{
  "experiment": "rdk-bars",
  "UUID": "73e9d3e8-5373-4413-b3c4-92db30e7bb72",
  "data": {
    "session": {
      "experiment_version": "1.0",
      "treatment": "bars",
      "file_version": "1.1",
      "totalTrials": 30,
      "session_group": "default",
      "browserData": {
        "os": "Mac",
        "browser": "Safari",
        "screenResolution": "1680x1050",
        "browserViewport": "1680x960",
        "extraHardware": {
          "userAgent": "Mozilla/5.0 (Macintosh; Intel Mac OS X 10_15_7) AppleWebKit/605.1.15 (KHTML, like Gecko) Version/26.0.1 Safari/605.1.15",
          "platform": "MacIntel",
          "hardwareConcurrency": 8,
          "deviceMemory": null,
          "gpu": {
            "vendor": "Apple Inc.",
            "renderer": "Apple GPU"
          },
          "screen": {
            "width": 1680,
            "height": 1050,
            "availWidth": 1680,
            "availHeight": 1019,
            "colorDepth": 24
          },
          "viewport": {
            "width": 1680,
            "height": 960
          },
          "devicePixelRatio": 2,
          "maxTouchPoints": 0,
          "pointer": {
            "coarse": false,
            "fine": true,
            "hover": true
          },
          "timeZone": "America/Los_Angeles",
          "language": "en-US",
          "languages": [
            "en-US"
          ]
        }
      },
      "calibration": {
        "monitorWidthCm": 38,
        "viewingDistanceCm": 54,
        "pixelsPerDegree": 0
      },
      "parameters": {
        "coherence": 0.4,
        "apertureDeg": 5,
        "dotSpeedDegPerSec": 2,
        "lifetimeMs": 200,
        "fixationDurationMs": 1500,
        "adaptorDurationMs": 1500,
        "testDurationMs": 2000
      },
      "mturk": {
        "assignmentId": "",
        "workerId": "",
        "hitId": ""
      }
    },
    "trials": [
      {
        "trial_index": 47,
        "rt": 1466,
        "correct": true,
        "response": "ArrowLeft",
        "congruent": true,
        "adaptorDirection": 180,
        "testDirection": 180
      },
      {
        "trial_index": 52,
        "rt": 1021,
        "correct": true,
        "response": "ArrowRight",
        "congruent": true,
        "adaptorDirection": 0,
        "testDirection": 0
      },
      {
        "trial_index": 57,
        "rt": 760,
        "correct": true,
        "response": "ArrowLeft",
        "congruent": false,
        "adaptorDirection": 0,
        "testDirection": 180
      },
      {
        "trial_index": 62,
        "rt": 817,
        "correct": false,
        "response": "ArrowLeft",
        "congruent": true,
        "adaptorDirection": 0,
        "testDirection": 0
      },
      {
        "trial_index": 67,
        "rt": 915,
        "correct": false,
        "response": "ArrowLeft",
        "congruent": true,
        "adaptorDirection": 0,
        "testDirection": 0
      },
      {
        "trial_index": 72,
        "rt": 748,
        "correct": true,
        "response": "ArrowRight",
        "congruent": false,
        "adaptorDirection": 180,
        "testDirection": 0
      },
      {
        "trial_index": 77,
        "rt": 702,
        "correct": true,
        "response": "ArrowLeft",
        "congruent": false,
        "adaptorDirection": 0,
        "testDirection": 180
      },
      {
        "trial_index": 82,
        "rt": 687,
        "correct": true,
        "response": "ArrowLeft",
        "congruent": false,
        "adaptorDirection": 0,
        "testDirection": 180
      },
      {
        "trial_index": 87,
        "rt": 604,
        "correct": true,
        "response": "ArrowRight",
        "congruent": false,
        "adaptorDirection": 180,
        "testDirection": 0
      },
      {
        "trial_index": 92,
        "rt": 1280,
        "correct": true,
        "response": "ArrowRight",
        "congruent": false,
        "adaptorDirection": 180,
        "testDirection": 0
      },
      {
        "trial_index": 97,
        "rt": 691,
        "correct": true,
        "response": "ArrowLeft",
        "congruent": false,
        "adaptorDirection": 0,
        "testDirection": 180
      },
      {
        "trial_index": 102,
        "rt": 634,
        "correct": true,
        "response": "ArrowLeft",
        "congruent": false,
        "adaptorDirection": 0,
        "testDirection": 180
      },
      {
        "trial_index": 107,
        "rt": 642,
        "correct": true,
        "response": "ArrowLeft",
        "congruent": false,
        "adaptorDirection": 0,
        "testDirection": 180
      },
      {
        "trial_index": 112,
        "rt": 780,
        "correct": true,
        "response": "ArrowRight",
        "congruent": false,
        "adaptorDirection": 180,
        "testDirection": 0
      },
      {
        "trial_index": 117,
        "rt": 1562,
        "correct": false,
        "response": "ArrowLeft",
        "congruent": true,
        "adaptorDirection": 0,
        "testDirection": 0
      },
      {
        "trial_index": 122,
        "rt": 913,
        "correct": true,
        "response": "ArrowLeft",
        "congruent": true,
        "adaptorDirection": 180,
        "testDirection": 180
      },
      {
        "trial_index": 127,
        "rt": 853,
        "correct": false,
        "response": "ArrowRight",
        "congruent": true,
        "adaptorDirection": 180,
        "testDirection": 180
      },
      {
        "trial_index": 132,
        "rt": 722,
        "correct": true,
        "response": "ArrowLeft",
        "congruent": false,
        "adaptorDirection": 0,
        "testDirection": 180
      },
      {
        "trial_index": 137,
        "rt": 1017,
        "correct": true,
        "response": "ArrowLeft",
        "congruent": true,
        "adaptorDirection": 180,
        "testDirection": 180
      },
      {
        "trial_index": 142,
        "rt": 700,
        "correct": true,
        "response": "ArrowLeft",
        "congruent": false,
        "adaptorDirection": 0,
        "testDirection": 180
      },
      {
        "trial_index": 147,
        "rt": 971,
        "correct": true,
        "response": "ArrowLeft",
        "congruent": true,
        "adaptorDirection": 180,
        "testDirection": 180
      },
      {
        "trial_index": 152,
        "rt": 912,
        "correct": true,
        "response": "ArrowLeft",
        "congruent": true,
        "adaptorDirection": 180,
        "testDirection": 180
      },
      {
        "trial_index": 157,
        "rt": 854,
        "correct": true,
        "response": "ArrowLeft",
        "congruent": true,
        "adaptorDirection": 180,
        "testDirection": 180
      },
      {
        "trial_index": 162,
        "rt": 849,
        "correct": false,
        "response": "ArrowLeft",
        "congruent": true,
        "adaptorDirection": 0,
        "testDirection": 0
      },
      {
        "trial_index": 167,
        "rt": 820,
        "correct": true,
        "response": "ArrowLeft",
        "congruent": false,
        "adaptorDirection": 0,
        "testDirection": 180
      },
      {
        "trial_index": 172,
        "rt": 899,
        "correct": true,
        "response": "ArrowLeft",
        "congruent": false,
        "adaptorDirection": 0,
        "testDirection": 180
      },
      {
        "trial_index": 177,
        "rt": 1142,
        "correct": true,
        "response": "ArrowLeft",
        "congruent": true,
        "adaptorDirection": 180,
        "testDirection": 180
      },
      {
        "trial_index": 182,
        "rt": 868,
        "correct": true,
        "response": "ArrowRight",
        "congruent": true,
        "adaptorDirection": 0,
        "testDirection": 0
      },
      {
        "trial_index": 187,
        "rt": 779,
        "correct": true,
        "response": "ArrowRight",
        "congruent": false,
        "adaptorDirection": 180,
        "testDirection": 0
      },
      {
        "trial_index": 192,
        "rt": 1214,
        "correct": true,
        "response": "ArrowLeft",
        "congruent": true,
        "adaptorDirection": 180,
        "testDirection": 180
      }
    ]
  }
}