{
  "experiment": "rdk-face-1",
  "UUID": "02a9220a-dcf3-43c3-9e70-c3406d8a5dc5",
  "data": {
    "session": {
      "experiment_version": "1.8.6",
      "treatment": "faces_towards_away_catch",
      "file_version": "1.8.6",
      "totalTrials": 120,
      "totalTrialsIncludingCatch": 132,
      "conditions": {
        "gazeTowardsCount": 60,
        "gazeAwayCount": 60,
        "gazeTowardsAccuracy": 100,
        "gazeAwayAccuracy": 97
      },
      "session_group": "default",
      "browserData": {
        "os": "Windows",
        "browser": "Chrome",
        "screenResolution": "2560x1440",
        "browserViewport": "1920x1080",
        "devicePixelRatio": 1,
        "colorDepth": 32,
        "hardwareConcurrency": 3,
        "deviceMemory": 1,
        "gpuRenderer": "ANGLE (Intel, Intel(R) HD Graphics 4400 (0x0000041E) Direct3D11 vs_5_0 ps_5_0, D3D11)",
        "measuredRefreshRateHz": 58
      },
      "attention": {
        "visibilityEvents": [
          {
            "event": "blur",
            "state": "blurred",
            "timestamp": 1772769377148
          },
          {
            "event": "visibilitychange",
            "state": "hidden",
            "timestamp": 1772769377152
          },
          {
            "event": "visibilitychange",
            "state": "visible",
            "timestamp": 1772769378905
          },
          {
            "event": "focus",
            "state": "focused",
            "timestamp": 1772769378927
          }
        ]
      },
      "calibration": {
        "monitorWidthCm": 38,
        "viewingDistanceCm": 54,
        "pixelsPerDegree": 50
      },
      "parameters": {
        "coherence": 0.4,
        "apertureDeg": 5,
        "densityDotsPerDeg2": 40,
        "dotDiameterDeg": 0.035,
        "dotSpeedDegPerSec": 3,
        "lifetimeMs": 200,
        "fixationDurationMs": 1500,
        "faceDurationMs": 1500,
        "testDurationMs": 2000,
        "catchResponseMs": 3000
      },
      "prolific": {
        "prolificPid": "6303fb5b692c378ba1d010f9",
        "studyId": "",
        "sessionId": ""
      },
      "timing": {
        "startTime": "2026-03-06T03:56:10.468Z",
        "endTime": "2026-03-06T04:11:21.580Z",
        "totalElapsedTimeMs": 911112
      }
    },
    "trials": [
      {
        "trial_number": 0,
        "trial_index": 90,
        "rt": 1226,
        "correct": true,
        "response": "ArrowRight",
        "congruent": false,
        "gazeTowards": false,
        "gazeCondition": "away",
        "faceOnLeft": false,
        "impliedDirection": 180,
        "testDirection": 0,
        "avgFps": 60,
        "minFps": 58,
        "maxFps": 61,
        "totalFrames": 74,
        "frameRates": 60
      },
      {
        "trial_number": 1,
        "trial_index": 95,
        "rt": 1280,
        "correct": true,
        "response": "ArrowLeft",
        "congruent": true,
        "gazeTowards": false,
        "gazeCondition": "away",
        "faceOnLeft": false,
        "impliedDirection": 180,
        "testDirection": 180,
        "avgFps": 60,
        "minFps": 58,
        "maxFps": 61,
        "totalFrames": 77,
        "frameRates": 60
      },
      {
        "trial_number": 2,
        "trial_index": 100,
        "rt": 1273,
        "correct": true,
        "response": "ArrowRight",
        "congruent": false,
        "gazeTowards": false,
        "gazeCondition": "away",
        "faceOnLeft": false,
        "impliedDirection": 180,
        "testDirection": 0,
        "avgFps": 60,
        "minFps": 58,
        "maxFps": 61,
        "totalFrames": 76,
        "frameRates": 60
      },
      {
        "trial_number": 3,
        "trial_index": 105,
        "rt": 1081,
        "correct": true,
        "response": "ArrowRight",
        "congruent": false,
        "gazeTowards": true,
        "gazeCondition": "towards",
        "faceOnLeft": false,
        "impliedDirection": 180,
        "testDirection": 0,
        "avgFps": 60,
        "minFps": 58,
        "maxFps": 61,
        "totalFrames": 64,
        "frameRates": 60
      },
      {
        "trial_number": 4,
        "trial_index": 110,
        "rt": 1340,
        "correct": false,
        "response": "ArrowRight",
        "congruent": false,
        "gazeTowards": false,
        "gazeCondition": "away",
        "faceOnLeft": true,
        "impliedDirection": 0,
        "testDirection": 180,
        "avgFps": 60,
        "minFps": 58,
        "maxFps": 61,
        "totalFrames": 81,
        "frameRates": 60
      },
      {
        "trial_number": 5,
        "trial_index": 118,
        "rt": 1659,
        "correct": true,
        "response": "ArrowLeft",
        "congruent": true,
        "gazeTowards": true,
        "gazeCondition": "towards",
        "faceOnLeft": false,
        "impliedDirection": 180,
        "testDirection": 180,
        "avgFps": 60,
        "minFps": 58,
        "maxFps": 61,
        "totalFrames": 100,
        "frameRates": 60
      },
      {
        "trial_number": 6,
        "trial_index": 123,
        "rt": 1017,
        "correct": true,
        "response": "ArrowRight",
        "congruent": true,
        "gazeTowards": false,
        "gazeCondition": "away",
        "faceOnLeft": true,
        "impliedDirection": 0,
        "testDirection": 0,
        "avgFps": 60,
        "minFps": 58,
        "maxFps": 61,
        "totalFrames": 61,
        "frameRates": 60
      },
      {
        "trial_number": 7,
        "trial_index": 128,
        "rt": 1113,
        "correct": true,
        "response": "ArrowRight",
        "congruent": false,
        "gazeTowards": false,
        "gazeCondition": "away",
        "faceOnLeft": false,
        "impliedDirection": 180,
        "testDirection": 0,
        "avgFps": 60,
        "minFps": 58,
        "maxFps": 61,
        "totalFrames": 67,
        "frameRates": 60
      },
      {
        "trial_number": 8,
        "trial_index": 133,
        "rt": 1325,
        "correct": true,
        "response": "ArrowLeft",
        "congruent": true,
        "gazeTowards": true,
        "gazeCondition": "towards",
        "faceOnLeft": false,
        "impliedDirection": 180,
        "testDirection": 180,
        "avgFps": 60,
        "minFps": 58,
        "maxFps": 61,
        "totalFrames": 80,
        "frameRates": 60
      },
      {
        "trial_number": 9,
        "trial_index": 138,
        "rt": 1194,
        "correct": true,
        "response": "ArrowLeft",
        "congruent": false,
        "gazeTowards": true,
        "gazeCondition": "towards",
        "faceOnLeft": true,
        "impliedDirection": 0,
        "testDirection": 180,
        "avgFps": 60,
        "minFps": 58,
        "maxFps": 61,
        "totalFrames": 72,
        "frameRates": 60
      },
      {
        "trial_number": 10,
        "trial_index": 143,
        "rt": 1308,
        "correct": true,
        "response": "ArrowLeft",
        "congruent": false,
        "gazeTowards": true,
        "gazeCondition": "towards",
        "faceOnLeft": true,
        "impliedDirection": 0,
        "testDirection": 180,
        "avgFps": 60,
        "minFps": 58,
        "maxFps": 61,
        "totalFrames": 79,
        "frameRates": 60
      },
      {
        "trial_number": 11,
        "trial_index": 148,
        "rt": 1383,
        "correct": true,
        "response": "ArrowLeft",
        "congruent": true,
        "gazeTowards": false,
        "gazeCondition": "away",
        "faceOnLeft": false,
        "impliedDirection": 180,
        "testDirection": 180,
        "avgFps": 61,
        "minFps": 60,
        "maxFps": 1006,
        "totalFrames": 83,
        "frameRates": 61
      },
      {
        "trial_number": 12,
        "trial_index": 153,
        "rt": 1262,
        "correct": true,
        "response": "ArrowLeft",
        "congruent": true,
        "gazeTowards": true,
        "gazeCondition": "towards",
        "faceOnLeft": false,
        "impliedDirection": 180,
        "testDirection": 180,
        "avgFps": 60,
        "minFps": 58,
        "maxFps": 61,
        "totalFrames": 76,
        "frameRates": 60
      },
      {
        "trial_number": 13,
        "trial_index": 158,
        "rt": 1016,
        "correct": true,
        "response": "ArrowLeft",
        "congruent": false,
        "gazeTowards": false,
        "gazeCondition": "away",
        "faceOnLeft": true,
        "impliedDirection": 0,
        "testDirection": 180,
        "avgFps": 60,
        "minFps": 58,
        "maxFps": 61,
        "totalFrames": 61,
        "frameRates": 60
      },
      {
        "trial_number": 14,
        "trial_index": 166,
        "rt": 1232,
        "correct": true,
        "response": "ArrowLeft",
        "congruent": true,
        "gazeTowards": false,
        "gazeCondition": "away",
        "faceOnLeft": false,
        "impliedDirection": 180,
        "testDirection": 180,
        "avgFps": 60,
        "minFps": 58,
        "maxFps": 61,
        "totalFrames": 73,
        "frameRates": 60
      },
      {
        "trial_number": 15,
        "trial_index": 171,
        "rt": 1321,
        "correct": true,
        "response": "ArrowLeft",
        "congruent": true,
        "gazeTowards": false,
        "gazeCondition": "away",
        "faceOnLeft": false,
        "impliedDirection": 180,
        "testDirection": 180,
        "avgFps": 60,
        "minFps": 58,
        "maxFps": 61,
        "totalFrames": 79,
        "frameRates": 60
      },
      {
        "trial_number": 16,
        "trial_index": 176,
        "rt": 785,
        "correct": true,
        "response": "ArrowRight",
        "congruent": false,
        "gazeTowards": false,
        "gazeCondition": "away",
        "faceOnLeft": false,
        "impliedDirection": 180,
        "testDirection": 0,
        "avgFps": 60,
        "minFps": 59,
        "maxFps": 61,
        "totalFrames": 47,
        "frameRates": 60
      },
      {
        "trial_number": 17,
        "trial_index": 181,
        "rt": 1024,
        "correct": true,
        "response": "ArrowRight",
        "congruent": true,
        "gazeTowards": false,
        "gazeCondition": "away",
        "faceOnLeft": true,
        "impliedDirection": 0,
        "testDirection": 0,
        "avgFps": 60,
        "minFps": 58,
        "maxFps": 60,
        "totalFrames": 62,
        "frameRates": 60
      },
      {
        "trial_number": 18,
        "trial_index": 186,
        "rt": 1024,
        "correct": true,
        "response": "ArrowRight",
        "congruent": false,
        "gazeTowards": true,
        "gazeCondition": "towards",
        "faceOnLeft": false,
        "impliedDirection": 180,
        "testDirection": 0,
        "avgFps": 60,
        "minFps": 58,
        "maxFps": 61,
        "totalFrames": 61,
        "frameRates": 60
      },
      {
        "trial_number": 19,
        "trial_index": 191,
        "rt": 994,
        "correct": true,
        "response": "ArrowLeft",
        "congruent": true,
        "gazeTowards": false,
        "gazeCondition": "away",
        "faceOnLeft": false,
        "impliedDirection": 180,
        "testDirection": 180,
        "avgFps": 60,
        "minFps": 59,
        "maxFps": 61,
        "totalFrames": 60,
        "frameRates": 60
      },
      {
        "trial_number": 20,
        "trial_index": 196,
        "rt": 1536,
        "correct": true,
        "response": "ArrowLeft",
        "congruent": false,
        "gazeTowards": false,
        "gazeCondition": "away",
        "faceOnLeft": true,
        "impliedDirection": 0,
        "testDirection": 180,
        "avgFps": 60,
        "minFps": 58,
        "maxFps": 61,
        "totalFrames": 92,
        "frameRates": 60
      },
      {
        "trial_number": 21,
        "trial_index": 201,
        "rt": 1087,
        "correct": true,
        "response": "ArrowRight",
        "congruent": true,
        "gazeTowards": false,
        "gazeCondition": "away",
        "faceOnLeft": true,
        "impliedDirection": 0,
        "testDirection": 0,
        "avgFps": 60,
        "minFps": 58,
        "maxFps": 61,
        "totalFrames": 65,
        "frameRates": 60
      },
      {
        "trial_number": 22,
        "trial_index": 206,
        "rt": 1160,
        "correct": true,
        "response": "ArrowRight",
        "congruent": true,
        "gazeTowards": true,
        "gazeCondition": "towards",
        "faceOnLeft": true,
        "impliedDirection": 0,
        "testDirection": 0,
        "avgFps": 60,
        "minFps": 58,
        "maxFps": 61,
        "totalFrames": 69,
        "frameRates": 60
      },
      {
        "trial_number": 23,
        "trial_index": 211,
        "rt": 1124,
        "correct": true,
        "response": "ArrowRight",
        "congruent": false,
        "gazeTowards": true,
        "gazeCondition": "towards",
        "faceOnLeft": false,
        "impliedDirection": 180,
        "testDirection": 0,
        "avgFps": 60,
        "minFps": 58,
        "maxFps": 61,
        "totalFrames": 67,
        "frameRates": 60
      },
      {
        "trial_number": 24,
        "trial_index": 216,
        "rt": 946,
        "correct": true,
        "response": "ArrowLeft",
        "congruent": false,
        "gazeTowards": false,
        "gazeCondition": "away",
        "faceOnLeft": true,
        "impliedDirection": 0,
        "testDirection": 180,
        "avgFps": 61,
        "minFps": 60,
        "maxFps": 914,
        "totalFrames": 57,
        "frameRates": 61
      },
      {
        "trial_number": 25,
        "trial_index": 221,
        "rt": 993,
        "correct": true,
        "response": "ArrowLeft",
        "congruent": false,
        "gazeTowards": true,
        "gazeCondition": "towards",
        "faceOnLeft": true,
        "impliedDirection": 0,
        "testDirection": 180,
        "avgFps": 60,
        "minFps": 58,
        "maxFps": 61,
        "totalFrames": 59,
        "frameRates": 60
      },
      {
        "trial_number": 26,
        "trial_index": 226,
        "rt": 942,
        "correct": true,
        "response": "ArrowRight",
        "congruent": false,
        "gazeTowards": false,
        "gazeCondition": "away",
        "faceOnLeft": false,
        "impliedDirection": 180,
        "testDirection": 0,
        "avgFps": 60,
        "minFps": 58,
        "maxFps": 61,
        "totalFrames": 57,
        "frameRates": 60
      },
      {
        "trial_number": 27,
        "trial_index": 231,
        "rt": 1070,
        "correct": true,
        "response": "ArrowRight",
        "congruent": true,
        "gazeTowards": true,
        "gazeCondition": "towards",
        "faceOnLeft": true,
        "impliedDirection": 0,
        "testDirection": 0,
        "avgFps": 60,
        "minFps": 58,
        "maxFps": 61,
        "totalFrames": 64,
        "frameRates": 60
      },
      {
        "trial_number": 28,
        "trial_index": 236,
        "rt": 816,
        "correct": true,
        "response": "ArrowLeft",
        "congruent": true,
        "gazeTowards": true,
        "gazeCondition": "towards",
        "faceOnLeft": false,
        "impliedDirection": 180,
        "testDirection": 180,
        "avgFps": 60,
        "minFps": 59,
        "maxFps": 60,
        "totalFrames": 49,
        "frameRates": 60
      },
      {
        "trial_number": 29,
        "trial_index": 241,
        "rt": 1029,
        "correct": true,
        "response": "ArrowLeft",
        "congruent": true,
        "gazeTowards": false,
        "gazeCondition": "away",
        "faceOnLeft": false,
        "impliedDirection": 180,
        "testDirection": 180,
        "avgFps": 60,
        "minFps": 58,
        "maxFps": 61,
        "totalFrames": 62,
        "frameRates": 60
      },
      {
        "trial_number": 30,
        "trial_index": 246,
        "rt": 831,
        "correct": true,
        "response": "ArrowRight",
        "congruent": false,
        "gazeTowards": false,
        "gazeCondition": "away",
        "faceOnLeft": false,
        "impliedDirection": 180,
        "testDirection": 0,
        "avgFps": 60,
        "minFps": 58,
        "maxFps": 61,
        "totalFrames": 50,
        "frameRates": 60
      },
      {
        "trial_number": 31,
        "trial_index": 252,
        "rt": 1266,
        "correct": true,
        "response": "ArrowRight",
        "congruent": false,
        "gazeTowards": false,
        "gazeCondition": "away",
        "faceOnLeft": false,
        "impliedDirection": 180,
        "testDirection": 0,
        "avgFps": 60,
        "minFps": 58,
        "maxFps": 61,
        "totalFrames": 76,
        "frameRates": 60
      },
      {
        "trial_number": 32,
        "trial_index": 257,
        "rt": 791,
        "correct": true,
        "response": "ArrowLeft",
        "congruent": true,
        "gazeTowards": false,
        "gazeCondition": "away",
        "faceOnLeft": false,
        "impliedDirection": 180,
        "testDirection": 180,
        "avgFps": 60,
        "minFps": 58,
        "maxFps": 61,
        "totalFrames": 48,
        "frameRates": 60
      },
      {
        "trial_number": 33,
        "trial_index": 262,
        "rt": 1020,
        "correct": true,
        "response": "ArrowRight",
        "congruent": true,
        "gazeTowards": true,
        "gazeCondition": "towards",
        "faceOnLeft": true,
        "impliedDirection": 0,
        "testDirection": 0,
        "avgFps": 61,
        "minFps": 60,
        "maxFps": 914,
        "totalFrames": 62,
        "frameRates": 61
      },
      {
        "trial_number": 34,
        "trial_index": 267,
        "rt": 1044,
        "correct": true,
        "response": "ArrowRight",
        "congruent": false,
        "gazeTowards": false,
        "gazeCondition": "away",
        "faceOnLeft": false,
        "impliedDirection": 180,
        "testDirection": 0,
        "avgFps": 60,
        "minFps": 58,
        "maxFps": 60,
        "totalFrames": 62,
        "frameRates": 60
      },
      {
        "trial_number": 35,
        "trial_index": 272,
        "rt": 750,
        "correct": true,
        "response": "ArrowLeft",
        "congruent": false,
        "gazeTowards": true,
        "gazeCondition": "towards",
        "faceOnLeft": true,
        "impliedDirection": 0,
        "testDirection": 180,
        "avgFps": 60,
        "minFps": 58,
        "maxFps": 61,
        "totalFrames": 45,
        "frameRates": 60
      },
      {
        "trial_number": 36,
        "trial_index": 277,
        "rt": 747,
        "correct": true,
        "response": "ArrowRight",
        "congruent": true,
        "gazeTowards": true,
        "gazeCondition": "towards",
        "faceOnLeft": true,
        "impliedDirection": 0,
        "testDirection": 0,
        "avgFps": 61,
        "minFps": 60,
        "maxFps": 1006,
        "totalFrames": 45,
        "frameRates": 61
      },
      {
        "trial_number": 37,
        "trial_index": 282,
        "rt": 890,
        "correct": true,
        "response": "ArrowLeft",
        "congruent": false,
        "gazeTowards": false,
        "gazeCondition": "away",
        "faceOnLeft": true,
        "impliedDirection": 0,
        "testDirection": 180,
        "avgFps": 60,
        "minFps": 58,
        "maxFps": 61,
        "totalFrames": 54,
        "frameRates": 60
      },
      {
        "trial_number": 38,
        "trial_index": 287,
        "rt": 971,
        "correct": true,
        "response": "ArrowLeft",
        "congruent": false,
        "gazeTowards": false,
        "gazeCondition": "away",
        "faceOnLeft": true,
        "impliedDirection": 0,
        "testDirection": 180,
        "avgFps": 61,
        "minFps": 60,
        "maxFps": 1006,
        "totalFrames": 59,
        "frameRates": 61
      },
      {
        "trial_number": 39,
        "trial_index": 292,
        "rt": 785,
        "correct": true,
        "response": "ArrowLeft",
        "congruent": true,
        "gazeTowards": true,
        "gazeCondition": "towards",
        "faceOnLeft": false,
        "impliedDirection": 180,
        "testDirection": 180,
        "avgFps": 60,
        "minFps": 58,
        "maxFps": 60,
        "totalFrames": 47,
        "frameRates": 60
      },
      {
        "trial_number": 40,
        "trial_index": 297,
        "rt": 749,
        "correct": true,
        "response": "ArrowLeft",
        "congruent": true,
        "gazeTowards": true,
        "gazeCondition": "towards",
        "faceOnLeft": false,
        "impliedDirection": 180,
        "testDirection": 180,
        "avgFps": 60,
        "minFps": 58,
        "maxFps": 61,
        "totalFrames": 45,
        "frameRates": 60
      },
      {
        "trial_number": 41,
        "trial_index": 302,
        "rt": 723,
        "correct": true,
        "response": "ArrowRight",
        "congruent": true,
        "gazeTowards": false,
        "gazeCondition": "away",
        "faceOnLeft": true,
        "impliedDirection": 0,
        "testDirection": 0,
        "avgFps": 61,
        "minFps": 59,
        "maxFps": 914,
        "totalFrames": 44,
        "frameRates": 61
      },
      {
        "trial_number": 42,
        "trial_index": 307,
        "rt": 724,
        "correct": true,
        "response": "ArrowLeft",
        "congruent": false,
        "gazeTowards": true,
        "gazeCondition": "towards",
        "faceOnLeft": true,
        "impliedDirection": 0,
        "testDirection": 180,
        "avgFps": 60,
        "minFps": 58,
        "maxFps": 60,
        "totalFrames": 44,
        "frameRates": 60
      },
      {
        "trial_number": 43,
        "trial_index": 312,
        "rt": 651,
        "correct": true,
        "response": "ArrowRight",
        "congruent": false,
        "gazeTowards": false,
        "gazeCondition": "away",
        "faceOnLeft": false,
        "impliedDirection": 180,
        "testDirection": 0,
        "avgFps": 60,
        "minFps": 58,
        "maxFps": 61,
        "totalFrames": 39,
        "frameRates": 60
      },
      {
        "trial_number": 44,
        "trial_index": 317,
        "rt": 1115,
        "correct": true,
        "response": "ArrowRight",
        "congruent": false,
        "gazeTowards": true,
        "gazeCondition": "towards",
        "faceOnLeft": false,
        "impliedDirection": 180,
        "testDirection": 0,
        "avgFps": 60,
        "minFps": 58,
        "maxFps": 61,
        "totalFrames": 67,
        "frameRates": 60
      },
      {
        "trial_number": 45,
        "trial_index": 322,
        "rt": 974,
        "correct": true,
        "response": "ArrowRight",
        "congruent": true,
        "gazeTowards": false,
        "gazeCondition": "away",
        "faceOnLeft": true,
        "impliedDirection": 0,
        "testDirection": 0,
        "avgFps": 60,
        "minFps": 58,
        "maxFps": 60,
        "totalFrames": 58,
        "frameRates": 60
      },
      {
        "trial_number": 46,
        "trial_index": 327,
        "rt": 1047,
        "correct": true,
        "response": "ArrowRight",
        "congruent": true,
        "gazeTowards": false,
        "gazeCondition": "away",
        "faceOnLeft": true,
        "impliedDirection": 0,
        "testDirection": 0,
        "avgFps": 61,
        "minFps": 60,
        "maxFps": 914,
        "totalFrames": 63,
        "frameRates": 61
      },
      {
        "trial_number": 47,
        "trial_index": 332,
        "rt": 691,
        "correct": true,
        "response": "ArrowLeft",
        "congruent": true,
        "gazeTowards": false,
        "gazeCondition": "away",
        "faceOnLeft": false,
        "impliedDirection": 180,
        "testDirection": 180,
        "avgFps": 60,
        "minFps": 59,
        "maxFps": 61,
        "totalFrames": 41,
        "frameRates": 60
      },
      {
        "trial_number": 48,
        "trial_index": 337,
        "rt": 935,
        "correct": true,
        "response": "ArrowRight",
        "congruent": false,
        "gazeTowards": false,
        "gazeCondition": "away",
        "faceOnLeft": false,
        "impliedDirection": 180,
        "testDirection": 0,
        "avgFps": 60,
        "minFps": 59,
        "maxFps": 61,
        "totalFrames": 56,
        "frameRates": 60
      },
      {
        "trial_number": 49,
        "trial_index": 342,
        "rt": 684,
        "correct": true,
        "response": "ArrowLeft",
        "congruent": true,
        "gazeTowards": false,
        "gazeCondition": "away",
        "faceOnLeft": false,
        "impliedDirection": 180,
        "testDirection": 180,
        "avgFps": 60,
        "minFps": 54,
        "maxFps": 63,
        "totalFrames": 40,
        "frameRates": 60
      },
      {
        "trial_number": 50,
        "trial_index": 347,
        "rt": 761,
        "correct": true,
        "response": "ArrowRight",
        "congruent": false,
        "gazeTowards": false,
        "gazeCondition": "away",
        "faceOnLeft": false,
        "impliedDirection": 180,
        "testDirection": 0,
        "avgFps": 61,
        "minFps": 60,
        "maxFps": 814,
        "totalFrames": 46,
        "frameRates": 61
      },
      {
        "trial_number": 51,
        "trial_index": 352,
        "rt": 1047,
        "correct": true,
        "response": "ArrowRight",
        "congruent": true,
        "gazeTowards": false,
        "gazeCondition": "away",
        "faceOnLeft": true,
        "impliedDirection": 0,
        "testDirection": 0,
        "avgFps": 60,
        "minFps": 58,
        "maxFps": 61,
        "totalFrames": 63,
        "frameRates": 60
      },
      {
        "trial_number": 52,
        "trial_index": 357,
        "rt": 696,
        "correct": true,
        "response": "ArrowLeft",
        "congruent": false,
        "gazeTowards": true,
        "gazeCondition": "towards",
        "faceOnLeft": true,
        "impliedDirection": 0,
        "testDirection": 180,
        "avgFps": 60,
        "minFps": 58,
        "maxFps": 60,
        "totalFrames": 42,
        "frameRates": 60
      },
      {
        "trial_number": 53,
        "trial_index": 362,
        "rt": 1012,
        "correct": true,
        "response": "ArrowLeft",
        "congruent": false,
        "gazeTowards": false,
        "gazeCondition": "away",
        "faceOnLeft": true,
        "impliedDirection": 0,
        "testDirection": 180,
        "avgFps": 60,
        "minFps": 58,
        "maxFps": 61,
        "totalFrames": 60,
        "frameRates": 60
      },
      {
        "trial_number": 54,
        "trial_index": 367,
        "rt": 668,
        "correct": true,
        "response": "ArrowRight",
        "congruent": false,
        "gazeTowards": true,
        "gazeCondition": "towards",
        "faceOnLeft": false,
        "impliedDirection": 180,
        "testDirection": 0,
        "avgFps": 60,
        "minFps": 58,
        "maxFps": 60,
        "totalFrames": 40,
        "frameRates": 60
      },
      {
        "trial_number": 55,
        "trial_index": 375,
        "rt": 1058,
        "correct": true,
        "response": "ArrowLeft",
        "congruent": true,
        "gazeTowards": false,
        "gazeCondition": "away",
        "faceOnLeft": false,
        "impliedDirection": 180,
        "testDirection": 180,
        "avgFps": 60,
        "minFps": 58,
        "maxFps": 61,
        "totalFrames": 63,
        "frameRates": 60
      },
      {
        "trial_number": 56,
        "trial_index": 380,
        "rt": 898,
        "correct": true,
        "response": "ArrowLeft",
        "congruent": true,
        "gazeTowards": false,
        "gazeCondition": "away",
        "faceOnLeft": false,
        "impliedDirection": 180,
        "testDirection": 180,
        "avgFps": 60,
        "minFps": 58,
        "maxFps": 60,
        "totalFrames": 54,
        "frameRates": 60
      },
      {
        "trial_number": 57,
        "trial_index": 385,
        "rt": 1087,
        "correct": true,
        "response": "ArrowLeft",
        "congruent": true,
        "gazeTowards": false,
        "gazeCondition": "away",
        "faceOnLeft": false,
        "impliedDirection": 180,
        "testDirection": 180,
        "avgFps": 60,
        "minFps": 58,
        "maxFps": 61,
        "totalFrames": 65,
        "frameRates": 60
      },
      {
        "trial_number": 58,
        "trial_index": 390,
        "rt": 647,
        "correct": true,
        "response": "ArrowRight",
        "congruent": true,
        "gazeTowards": false,
        "gazeCondition": "away",
        "faceOnLeft": true,
        "impliedDirection": 0,
        "testDirection": 0,
        "avgFps": 60,
        "minFps": 58,
        "maxFps": 61,
        "totalFrames": 39,
        "frameRates": 60
      },
      {
        "trial_number": 59,
        "trial_index": 395,
        "rt": 1113,
        "correct": true,
        "response": "ArrowRight",
        "congruent": true,
        "gazeTowards": false,
        "gazeCondition": "away",
        "faceOnLeft": true,
        "impliedDirection": 0,
        "testDirection": 0,
        "avgFps": 60,
        "minFps": 58,
        "maxFps": 61,
        "totalFrames": 67,
        "frameRates": 60
      },
      {
        "trial_number": 60,
        "trial_index": 400,
        "rt": 956,
        "correct": true,
        "response": "ArrowLeft",
        "congruent": true,
        "gazeTowards": true,
        "gazeCondition": "towards",
        "faceOnLeft": false,
        "impliedDirection": 180,
        "testDirection": 180,
        "avgFps": 60,
        "minFps": 58,
        "maxFps": 61,
        "totalFrames": 57,
        "frameRates": 60
      },
      {
        "trial_number": 61,
        "trial_index": 405,
        "rt": 804,
        "correct": true,
        "response": "ArrowRight",
        "congruent": true,
        "gazeTowards": false,
        "gazeCondition": "away",
        "faceOnLeft": true,
        "impliedDirection": 0,
        "testDirection": 0,
        "avgFps": 60,
        "minFps": 58,
        "maxFps": 60,
        "totalFrames": 48,
        "frameRates": 60
      },
      {
        "trial_number": 62,
        "trial_index": 410,
        "rt": 1095,
        "correct": true,
        "response": "ArrowRight",
        "congruent": true,
        "gazeTowards": true,
        "gazeCondition": "towards",
        "faceOnLeft": true,
        "impliedDirection": 0,
        "testDirection": 0,
        "avgFps": 60,
        "minFps": 58,
        "maxFps": 61,
        "totalFrames": 66,
        "frameRates": 60
      },
      {
        "trial_number": 63,
        "trial_index": 416,
        "rt": 919,
        "correct": true,
        "response": "ArrowLeft",
        "congruent": true,
        "gazeTowards": true,
        "gazeCondition": "towards",
        "faceOnLeft": false,
        "impliedDirection": 180,
        "testDirection": 180,
        "avgFps": 60,
        "minFps": 58,
        "maxFps": 62,
        "totalFrames": 55,
        "frameRates": 60
      },
      {
        "trial_number": 64,
        "trial_index": 424,
        "rt": 1031,
        "correct": true,
        "response": "ArrowRight",
        "congruent": true,
        "gazeTowards": true,
        "gazeCondition": "towards",
        "faceOnLeft": true,
        "impliedDirection": 0,
        "testDirection": 0,
        "avgFps": 60,
        "minFps": 58,
        "maxFps": 61,
        "totalFrames": 62,
        "frameRates": 60
      },
      {
        "trial_number": 65,
        "trial_index": 429,
        "rt": 1455,
        "correct": true,
        "response": "ArrowRight",
        "congruent": false,
        "gazeTowards": true,
        "gazeCondition": "towards",
        "faceOnLeft": false,
        "impliedDirection": 180,
        "testDirection": 0,
        "avgFps": 60,
        "minFps": 58,
        "maxFps": 61,
        "totalFrames": 87,
        "frameRates": 60
      },
      {
        "trial_number": 66,
        "trial_index": 434,
        "rt": 1286,
        "correct": true,
        "response": "ArrowRight",
        "congruent": false,
        "gazeTowards": true,
        "gazeCondition": "towards",
        "faceOnLeft": false,
        "impliedDirection": 180,
        "testDirection": 0,
        "avgFps": 60,
        "minFps": 59,
        "maxFps": 61,
        "totalFrames": 77,
        "frameRates": 60
      },
      {
        "trial_number": 67,
        "trial_index": 442,
        "rt": 898,
        "correct": true,
        "response": "ArrowLeft",
        "congruent": false,
        "gazeTowards": false,
        "gazeCondition": "away",
        "faceOnLeft": true,
        "impliedDirection": 0,
        "testDirection": 180,
        "avgFps": 60,
        "minFps": 58,
        "maxFps": 61,
        "totalFrames": 54,
        "frameRates": 60
      },
      {
        "trial_number": 68,
        "trial_index": 447,
        "rt": 820,
        "correct": true,
        "response": "ArrowLeft",
        "congruent": true,
        "gazeTowards": true,
        "gazeCondition": "towards",
        "faceOnLeft": false,
        "impliedDirection": 180,
        "testDirection": 180,
        "avgFps": 60,
        "minFps": 57,
        "maxFps": 61,
        "totalFrames": 49,
        "frameRates": 60
      },
      {
        "trial_number": 69,
        "trial_index": 452,
        "rt": 1198,
        "correct": true,
        "response": "ArrowLeft",
        "congruent": true,
        "gazeTowards": true,
        "gazeCondition": "towards",
        "faceOnLeft": false,
        "impliedDirection": 180,
        "testDirection": 180,
        "avgFps": 60,
        "minFps": 58,
        "maxFps": 61,
        "totalFrames": 72,
        "frameRates": 60
      },
      {
        "trial_number": 70,
        "trial_index": 457,
        "rt": 1003,
        "correct": true,
        "response": "ArrowRight",
        "congruent": true,
        "gazeTowards": true,
        "gazeCondition": "towards",
        "faceOnLeft": true,
        "impliedDirection": 0,
        "testDirection": 0,
        "avgFps": 60,
        "minFps": 57,
        "maxFps": 61,
        "totalFrames": 60,
        "frameRates": 60
      },
      {
        "trial_number": 71,
        "trial_index": 462,
        "rt": 1123,
        "correct": true,
        "response": "ArrowLeft",
        "congruent": true,
        "gazeTowards": false,
        "gazeCondition": "away",
        "faceOnLeft": false,
        "impliedDirection": 180,
        "testDirection": 180,
        "avgFps": 60,
        "minFps": 58,
        "maxFps": 61,
        "totalFrames": 68,
        "frameRates": 60
      },
      {
        "trial_number": 72,
        "trial_index": 467,
        "rt": 1015,
        "correct": true,
        "response": "ArrowLeft",
        "congruent": true,
        "gazeTowards": true,
        "gazeCondition": "towards",
        "faceOnLeft": false,
        "impliedDirection": 180,
        "testDirection": 180,
        "avgFps": 60,
        "minFps": 58,
        "maxFps": 61,
        "totalFrames": 60,
        "frameRates": 60
      },
      {
        "trial_number": 73,
        "trial_index": 472,
        "rt": 999,
        "correct": true,
        "response": "ArrowRight",
        "congruent": false,
        "gazeTowards": true,
        "gazeCondition": "towards",
        "faceOnLeft": false,
        "impliedDirection": 180,
        "testDirection": 0,
        "avgFps": 60,
        "minFps": 58,
        "maxFps": 61,
        "totalFrames": 59,
        "frameRates": 60
      },
      {
        "trial_number": 74,
        "trial_index": 477,
        "rt": 967,
        "correct": true,
        "response": "ArrowRight",
        "congruent": true,
        "gazeTowards": false,
        "gazeCondition": "away",
        "faceOnLeft": true,
        "impliedDirection": 0,
        "testDirection": 0,
        "avgFps": 60,
        "minFps": 58,
        "maxFps": 61,
        "totalFrames": 58,
        "frameRates": 60
      },
      {
        "trial_number": 75,
        "trial_index": 485,
        "rt": 1267,
        "correct": true,
        "response": "ArrowRight",
        "congruent": true,
        "gazeTowards": true,
        "gazeCondition": "towards",
        "faceOnLeft": true,
        "impliedDirection": 0,
        "testDirection": 0,
        "avgFps": 61,
        "minFps": 60,
        "maxFps": 887,
        "totalFrames": 76,
        "frameRates": 61
      },
      {
        "trial_number": 76,
        "trial_index": 490,
        "rt": 1170,
        "correct": true,
        "response": "ArrowRight",
        "congruent": false,
        "gazeTowards": false,
        "gazeCondition": "away",
        "faceOnLeft": false,
        "impliedDirection": 180,
        "testDirection": 0,
        "avgFps": 60,
        "minFps": 58,
        "maxFps": 61,
        "totalFrames": 70,
        "frameRates": 60
      },
      {
        "trial_number": 77,
        "trial_index": 498,
        "rt": 927,
        "correct": true,
        "response": "ArrowRight",
        "congruent": true,
        "gazeTowards": true,
        "gazeCondition": "towards",
        "faceOnLeft": true,
        "impliedDirection": 0,
        "testDirection": 0,
        "avgFps": 60,
        "minFps": 58,
        "maxFps": 61,
        "totalFrames": 55,
        "frameRates": 60
      },
      {
        "trial_number": 78,
        "trial_index": 503,
        "rt": 1201,
        "correct": true,
        "response": "ArrowLeft",
        "congruent": false,
        "gazeTowards": true,
        "gazeCondition": "towards",
        "faceOnLeft": true,
        "impliedDirection": 0,
        "testDirection": 180,
        "avgFps": 60,
        "minFps": 58,
        "maxFps": 61,
        "totalFrames": 72,
        "frameRates": 60
      },
      {
        "trial_number": 79,
        "trial_index": 511,
        "rt": 1181,
        "correct": true,
        "response": "ArrowLeft",
        "congruent": false,
        "gazeTowards": false,
        "gazeCondition": "away",
        "faceOnLeft": true,
        "impliedDirection": 0,
        "testDirection": 180,
        "avgFps": 60,
        "minFps": 58,
        "maxFps": 61,
        "totalFrames": 71,
        "frameRates": 60
      },
      {
        "trial_number": 80,
        "trial_index": 516,
        "rt": 1311,
        "correct": true,
        "response": "ArrowLeft",
        "congruent": true,
        "gazeTowards": false,
        "gazeCondition": "away",
        "faceOnLeft": false,
        "impliedDirection": 180,
        "testDirection": 180,
        "avgFps": 60,
        "minFps": 58,
        "maxFps": 61,
        "totalFrames": 79,
        "frameRates": 60
      },
      {
        "trial_number": 81,
        "trial_index": 521,
        "rt": 1202,
        "correct": true,
        "response": "ArrowRight",
        "congruent": false,
        "gazeTowards": false,
        "gazeCondition": "away",
        "faceOnLeft": false,
        "impliedDirection": 180,
        "testDirection": 0,
        "avgFps": 60,
        "minFps": 59,
        "maxFps": 61,
        "totalFrames": 72,
        "frameRates": 60
      },
      {
        "trial_number": 82,
        "trial_index": 526,
        "rt": 1124,
        "correct": true,
        "response": "ArrowRight",
        "congruent": true,
        "gazeTowards": true,
        "gazeCondition": "towards",
        "faceOnLeft": true,
        "impliedDirection": 0,
        "testDirection": 0,
        "avgFps": 60,
        "minFps": 58,
        "maxFps": 61,
        "totalFrames": 67,
        "frameRates": 60
      },
      {
        "trial_number": 83,
        "trial_index": 531,
        "rt": 1498,
        "correct": true,
        "response": "ArrowRight",
        "congruent": false,
        "gazeTowards": true,
        "gazeCondition": "towards",
        "faceOnLeft": false,
        "impliedDirection": 180,
        "testDirection": 0,
        "avgFps": 60,
        "minFps": 58,
        "maxFps": 61,
        "totalFrames": 90,
        "frameRates": 60
      },
      {
        "trial_number": 84,
        "trial_index": 536,
        "rt": 1308,
        "correct": true,
        "response": "ArrowRight",
        "congruent": false,
        "gazeTowards": false,
        "gazeCondition": "away",
        "faceOnLeft": false,
        "impliedDirection": 180,
        "testDirection": 0,
        "avgFps": 61,
        "minFps": 60,
        "maxFps": 1006,
        "totalFrames": 79,
        "frameRates": 61
      },
      {
        "trial_number": 85,
        "trial_index": 541,
        "rt": 1190,
        "correct": true,
        "response": "ArrowRight",
        "congruent": true,
        "gazeTowards": false,
        "gazeCondition": "away",
        "faceOnLeft": true,
        "impliedDirection": 0,
        "testDirection": 0,
        "avgFps": 60,
        "minFps": 58,
        "maxFps": 61,
        "totalFrames": 71,
        "frameRates": 60
      },
      {
        "trial_number": 86,
        "trial_index": 546,
        "rt": 988,
        "correct": true,
        "response": "ArrowLeft",
        "congruent": false,
        "gazeTowards": true,
        "gazeCondition": "towards",
        "faceOnLeft": true,
        "impliedDirection": 0,
        "testDirection": 180,
        "avgFps": 61,
        "minFps": 59,
        "maxFps": 914,
        "totalFrames": 60,
        "frameRates": 61
      },
      {
        "trial_number": 87,
        "trial_index": 551,
        "rt": 1076,
        "correct": true,
        "response": "ArrowRight",
        "congruent": true,
        "gazeTowards": true,
        "gazeCondition": "towards",
        "faceOnLeft": true,
        "impliedDirection": 0,
        "testDirection": 0,
        "avgFps": 60,
        "minFps": 58,
        "maxFps": 61,
        "totalFrames": 64,
        "frameRates": 60
      },
      {
        "trial_number": 88,
        "trial_index": 556,
        "rt": 1614,
        "correct": true,
        "response": "ArrowRight",
        "congruent": true,
        "gazeTowards": false,
        "gazeCondition": "away",
        "faceOnLeft": true,
        "impliedDirection": 0,
        "testDirection": 0,
        "avgFps": 60,
        "minFps": 58,
        "maxFps": 61,
        "totalFrames": 97,
        "frameRates": 60
      },
      {
        "trial_number": 89,
        "trial_index": 561,
        "rt": 1229,
        "correct": true,
        "response": "ArrowLeft",
        "congruent": true,
        "gazeTowards": false,
        "gazeCondition": "away",
        "faceOnLeft": false,
        "impliedDirection": 180,
        "testDirection": 180,
        "avgFps": 60,
        "minFps": 58,
        "maxFps": 61,
        "totalFrames": 74,
        "frameRates": 60
      },
      {
        "trial_number": 90,
        "trial_index": 566,
        "rt": 1225,
        "correct": true,
        "response": "ArrowLeft",
        "congruent": false,
        "gazeTowards": false,
        "gazeCondition": "away",
        "faceOnLeft": true,
        "impliedDirection": 0,
        "testDirection": 180,
        "avgFps": 60,
        "minFps": 58,
        "maxFps": 61,
        "totalFrames": 73,
        "frameRates": 60
      },
      {
        "trial_number": 91,
        "trial_index": 575,
        "rt": 877,
        "correct": true,
        "response": "ArrowRight",
        "congruent": false,
        "gazeTowards": false,
        "gazeCondition": "away",
        "faceOnLeft": false,
        "impliedDirection": 180,
        "testDirection": 0,
        "avgFps": 60,
        "minFps": 57,
        "maxFps": 61,
        "totalFrames": 53,
        "frameRates": 60
      },
      {
        "trial_number": 92,
        "trial_index": 580,
        "rt": 1595,
        "correct": true,
        "response": "ArrowRight",
        "congruent": false,
        "gazeTowards": true,
        "gazeCondition": "towards",
        "faceOnLeft": false,
        "impliedDirection": 180,
        "testDirection": 0,
        "avgFps": 60,
        "minFps": 58,
        "maxFps": 61,
        "totalFrames": 95,
        "frameRates": 60
      },
      {
        "trial_number": 93,
        "trial_index": 585,
        "rt": 996,
        "correct": true,
        "response": "ArrowLeft",
        "congruent": false,
        "gazeTowards": false,
        "gazeCondition": "away",
        "faceOnLeft": true,
        "impliedDirection": 0,
        "testDirection": 180,
        "avgFps": 60,
        "minFps": 57,
        "maxFps": 61,
        "totalFrames": 60,
        "frameRates": 60
      },
      {
        "trial_number": 94,
        "trial_index": 590,
        "rt": 983,
        "correct": true,
        "response": "ArrowLeft",
        "congruent": false,
        "gazeTowards": true,
        "gazeCondition": "towards",
        "faceOnLeft": true,
        "impliedDirection": 0,
        "testDirection": 180,
        "avgFps": 61,
        "minFps": 60,
        "maxFps": 1786,
        "totalFrames": 59,
        "frameRates": 61
      },
      {
        "trial_number": 95,
        "trial_index": 595,
        "rt": 1466,
        "correct": true,
        "response": "ArrowRight",
        "congruent": false,
        "gazeTowards": true,
        "gazeCondition": "towards",
        "faceOnLeft": false,
        "impliedDirection": 180,
        "testDirection": 0,
        "avgFps": 60,
        "minFps": 58,
        "maxFps": 60,
        "totalFrames": 88,
        "frameRates": 60
      },
      {
        "trial_number": 96,
        "trial_index": 600,
        "rt": 1256,
        "correct": true,
        "response": "ArrowRight",
        "congruent": true,
        "gazeTowards": true,
        "gazeCondition": "towards",
        "faceOnLeft": true,
        "impliedDirection": 0,
        "testDirection": 0,
        "avgFps": 61,
        "minFps": 60,
        "maxFps": 1006,
        "totalFrames": 76,
        "frameRates": 61
      },
      {
        "trial_number": 97,
        "trial_index": 605,
        "rt": 1837,
        "correct": false,
        "response": "ArrowLeft",
        "congruent": false,
        "gazeTowards": false,
        "gazeCondition": "away",
        "faceOnLeft": false,
        "impliedDirection": 180,
        "testDirection": 0,
        "avgFps": 60,
        "minFps": 58,
        "maxFps": 60,
        "totalFrames": 110,
        "frameRates": 60
      },
      {
        "trial_number": 98,
        "trial_index": 610,
        "rt": 1258,
        "correct": true,
        "response": "ArrowRight",
        "congruent": false,
        "gazeTowards": true,
        "gazeCondition": "towards",
        "faceOnLeft": false,
        "impliedDirection": 180,
        "testDirection": 0,
        "avgFps": 60,
        "minFps": 58,
        "maxFps": 61,
        "totalFrames": 75,
        "frameRates": 60
      },
      {
        "trial_number": 99,
        "trial_index": 615,
        "rt": 1049,
        "correct": true,
        "response": "ArrowLeft",
        "congruent": false,
        "gazeTowards": false,
        "gazeCondition": "away",
        "faceOnLeft": true,
        "impliedDirection": 0,
        "testDirection": 180,
        "avgFps": 61,
        "minFps": 59,
        "maxFps": 914,
        "totalFrames": 63,
        "frameRates": 61
      },
      {
        "trial_number": 100,
        "trial_index": 620,
        "rt": 1149,
        "correct": true,
        "response": "ArrowRight",
        "congruent": true,
        "gazeTowards": true,
        "gazeCondition": "towards",
        "faceOnLeft": true,
        "impliedDirection": 0,
        "testDirection": 0,
        "avgFps": 60,
        "minFps": 58,
        "maxFps": 61,
        "totalFrames": 69,
        "frameRates": 60
      },
      {
        "trial_number": 101,
        "trial_index": 625,
        "rt": 1401,
        "correct": true,
        "response": "ArrowRight",
        "congruent": false,
        "gazeTowards": true,
        "gazeCondition": "towards",
        "faceOnLeft": false,
        "impliedDirection": 180,
        "testDirection": 0,
        "avgFps": 60,
        "minFps": 58,
        "maxFps": 61,
        "totalFrames": 84,
        "frameRates": 60
      },
      {
        "trial_number": 102,
        "trial_index": 630,
        "rt": 1524,
        "correct": true,
        "response": "ArrowRight",
        "congruent": false,
        "gazeTowards": true,
        "gazeCondition": "towards",
        "faceOnLeft": false,
        "impliedDirection": 180,
        "testDirection": 0,
        "avgFps": 60,
        "minFps": 58,
        "maxFps": 61,
        "totalFrames": 91,
        "frameRates": 60
      },
      {
        "trial_number": 103,
        "trial_index": 635,
        "rt": 1810,
        "correct": true,
        "response": "ArrowRight",
        "congruent": false,
        "gazeTowards": true,
        "gazeCondition": "towards",
        "faceOnLeft": false,
        "impliedDirection": 180,
        "testDirection": 0,
        "avgFps": 60,
        "minFps": 58,
        "maxFps": 61,
        "totalFrames": 108,
        "frameRates": 60
      },
      {
        "trial_number": 104,
        "trial_index": 640,
        "rt": 922,
        "correct": true,
        "response": "ArrowLeft",
        "congruent": false,
        "gazeTowards": true,
        "gazeCondition": "towards",
        "faceOnLeft": true,
        "impliedDirection": 0,
        "testDirection": 180,
        "avgFps": 60,
        "minFps": 56,
        "maxFps": 61,
        "totalFrames": 55,
        "frameRates": 60
      },
      {
        "trial_number": 105,
        "trial_index": 645,
        "rt": 1466,
        "correct": true,
        "response": "ArrowRight",
        "congruent": false,
        "gazeTowards": true,
        "gazeCondition": "towards",
        "faceOnLeft": false,
        "impliedDirection": 180,
        "testDirection": 0,
        "avgFps": 61,
        "minFps": 60,
        "maxFps": 1923,
        "totalFrames": 88,
        "frameRates": 61
      },
      {
        "trial_number": 106,
        "trial_index": 650,
        "rt": 1302,
        "correct": true,
        "response": "ArrowLeft",
        "congruent": true,
        "gazeTowards": true,
        "gazeCondition": "towards",
        "faceOnLeft": false,
        "impliedDirection": 180,
        "testDirection": 180,
        "avgFps": 60,
        "minFps": 58,
        "maxFps": 60,
        "totalFrames": 78,
        "frameRates": 60
      },
      {
        "trial_number": 107,
        "trial_index": 655,
        "rt": 1161,
        "correct": true,
        "response": "ArrowLeft",
        "congruent": true,
        "gazeTowards": true,
        "gazeCondition": "towards",
        "faceOnLeft": false,
        "impliedDirection": 180,
        "testDirection": 180,
        "avgFps": 60,
        "minFps": 58,
        "maxFps": 60,
        "totalFrames": 70,
        "frameRates": 60
      },
      {
        "trial_number": 108,
        "trial_index": 663,
        "rt": 1030,
        "correct": true,
        "response": "ArrowLeft",
        "congruent": false,
        "gazeTowards": true,
        "gazeCondition": "towards",
        "faceOnLeft": true,
        "impliedDirection": 0,
        "testDirection": 180,
        "avgFps": 60,
        "minFps": 58,
        "maxFps": 61,
        "totalFrames": 62,
        "frameRates": 60
      },
      {
        "trial_number": 109,
        "trial_index": 668,
        "rt": 1222,
        "correct": true,
        "response": "ArrowLeft",
        "congruent": true,
        "gazeTowards": true,
        "gazeCondition": "towards",
        "faceOnLeft": false,
        "impliedDirection": 180,
        "testDirection": 180,
        "avgFps": 60,
        "minFps": 58,
        "maxFps": 61,
        "totalFrames": 73,
        "frameRates": 60
      },
      {
        "trial_number": 110,
        "trial_index": 673,
        "rt": 1295,
        "correct": true,
        "response": "ArrowRight",
        "congruent": true,
        "gazeTowards": true,
        "gazeCondition": "towards",
        "faceOnLeft": true,
        "impliedDirection": 0,
        "testDirection": 0,
        "avgFps": 60,
        "minFps": 58,
        "maxFps": 61,
        "totalFrames": 77,
        "frameRates": 60
      },
      {
        "trial_number": 111,
        "trial_index": 678,
        "rt": 829,
        "correct": true,
        "response": "ArrowLeft",
        "congruent": true,
        "gazeTowards": false,
        "gazeCondition": "away",
        "faceOnLeft": false,
        "impliedDirection": 180,
        "testDirection": 180,
        "avgFps": 60,
        "minFps": 58,
        "maxFps": 60,
        "totalFrames": 49,
        "frameRates": 60
      },
      {
        "trial_number": 112,
        "trial_index": 683,
        "rt": 1021,
        "correct": true,
        "response": "ArrowLeft",
        "congruent": false,
        "gazeTowards": true,
        "gazeCondition": "towards",
        "faceOnLeft": true,
        "impliedDirection": 0,
        "testDirection": 180,
        "avgFps": 61,
        "minFps": 59,
        "maxFps": 1006,
        "totalFrames": 62,
        "frameRates": 61
      },
      {
        "trial_number": 113,
        "trial_index": 691,
        "rt": 1328,
        "correct": true,
        "response": "ArrowLeft",
        "congruent": false,
        "gazeTowards": true,
        "gazeCondition": "towards",
        "faceOnLeft": true,
        "impliedDirection": 0,
        "testDirection": 180,
        "avgFps": 60,
        "minFps": 58,
        "maxFps": 61,
        "totalFrames": 79,
        "frameRates": 60
      },
      {
        "trial_number": 114,
        "trial_index": 699,
        "rt": 940,
        "correct": true,
        "response": "ArrowRight",
        "congruent": true,
        "gazeTowards": true,
        "gazeCondition": "towards",
        "faceOnLeft": true,
        "impliedDirection": 0,
        "testDirection": 0,
        "avgFps": 60,
        "minFps": 58,
        "maxFps": 61,
        "totalFrames": 56,
        "frameRates": 60
      },
      {
        "trial_number": 115,
        "trial_index": 704,
        "rt": 1006,
        "correct": true,
        "response": "ArrowRight",
        "congruent": false,
        "gazeTowards": false,
        "gazeCondition": "away",
        "faceOnLeft": false,
        "impliedDirection": 180,
        "testDirection": 0,
        "avgFps": 61,
        "minFps": 60,
        "maxFps": 914,
        "totalFrames": 61,
        "frameRates": 61
      },
      {
        "trial_number": 116,
        "trial_index": 709,
        "rt": 1827,
        "correct": true,
        "response": "ArrowRight",
        "congruent": true,
        "gazeTowards": false,
        "gazeCondition": "away",
        "faceOnLeft": true,
        "impliedDirection": 0,
        "testDirection": 0,
        "avgFps": 60,
        "minFps": 60,
        "maxFps": 1006,
        "totalFrames": 110,
        "frameRates": 60
      },
      {
        "trial_number": 117,
        "trial_index": 714,
        "rt": 1649,
        "correct": true,
        "response": "ArrowRight",
        "congruent": true,
        "gazeTowards": true,
        "gazeCondition": "towards",
        "faceOnLeft": true,
        "impliedDirection": 0,
        "testDirection": 0,
        "avgFps": 60,
        "minFps": 58,
        "maxFps": 61,
        "totalFrames": 99,
        "frameRates": 60
      },
      {
        "trial_number": 118,
        "trial_index": 719,
        "rt": 1976,
        "correct": true,
        "response": "ArrowRight",
        "congruent": false,
        "gazeTowards": true,
        "gazeCondition": "towards",
        "faceOnLeft": false,
        "impliedDirection": 180,
        "testDirection": 0,
        "avgFps": 60,
        "minFps": 58,
        "maxFps": 61,
        "totalFrames": 119,
        "frameRates": 60
      },
      {
        "trial_number": 119,
        "trial_index": 724,
        "rt": 1634,
        "correct": true,
        "response": "ArrowRight",
        "congruent": false,
        "gazeTowards": false,
        "gazeCondition": "away",
        "faceOnLeft": false,
        "impliedDirection": 180,
        "testDirection": 0,
        "avgFps": 60,
        "minFps": 58,
        "maxFps": 61,
        "totalFrames": 98,
        "frameRates": 60
      }
    ],
    "catch": {
      "total": 12,
      "correct": 12,
      "accuracy": 100,
      "meanRT": 645,
      "trials": [
        {
          "trial_number": 0,
          "trial_index": 114,
          "rt": 657,
          "correct": true,
          "colorTarget": "tree",
          "gazeTowards": true,
          "gazeCondition": "towards",
          "faceOnLeft": false
        },
        {
          "trial_number": 1,
          "trial_index": 162,
          "rt": 774,
          "correct": true,
          "colorTarget": "tree",
          "gazeTowards": true,
          "gazeCondition": "towards",
          "faceOnLeft": true
        },
        {
          "trial_number": 2,
          "trial_index": 371,
          "rt": 790,
          "correct": true,
          "colorTarget": "tree",
          "gazeTowards": true,
          "gazeCondition": "towards",
          "faceOnLeft": false
        },
        {
          "trial_number": 3,
          "trial_index": 420,
          "rt": 647,
          "correct": true,
          "colorTarget": "tree",
          "gazeTowards": true,
          "gazeCondition": "towards",
          "faceOnLeft": true
        },
        {
          "trial_number": 4,
          "trial_index": 438,
          "rt": 621,
          "correct": true,
          "colorTarget": "tree",
          "gazeTowards": true,
          "gazeCondition": "towards",
          "faceOnLeft": false
        },
        {
          "trial_number": 5,
          "trial_index": 481,
          "rt": 742,
          "correct": true,
          "colorTarget": "face",
          "gazeTowards": true,
          "gazeCondition": "towards",
          "faceOnLeft": true
        },
        {
          "trial_number": 6,
          "trial_index": 494,
          "rt": 587,
          "correct": true,
          "colorTarget": "face",
          "gazeTowards": false,
          "gazeCondition": "away",
          "faceOnLeft": false
        },
        {
          "trial_number": 7,
          "trial_index": 507,
          "rt": 607,
          "correct": true,
          "colorTarget": "tree",
          "gazeTowards": false,
          "gazeCondition": "away",
          "faceOnLeft": false
        },
        {
          "trial_number": 8,
          "trial_index": 571,
          "rt": 620,
          "correct": true,
          "colorTarget": "face",
          "gazeTowards": false,
          "gazeCondition": "away",
          "faceOnLeft": false
        },
        {
          "trial_number": 9,
          "trial_index": 659,
          "rt": 679,
          "correct": true,
          "colorTarget": "face",
          "gazeTowards": true,
          "gazeCondition": "towards",
          "faceOnLeft": false
        },
        {
          "trial_number": 10,
          "trial_index": 687,
          "rt": 431,
          "correct": true,
          "colorTarget": "face",
          "gazeTowards": true,
          "gazeCondition": "towards",
          "faceOnLeft": true
        },
        {
          "trial_number": 11,
          "trial_index": 695,
          "rt": 579,
          "correct": true,
          "colorTarget": "face",
          "gazeTowards": true,
          "gazeCondition": "towards",
          "faceOnLeft": true
        }
      ]
    },
    "practice": {
      "trials": [
        {
          "trial_number": 0,
          "rt": null,
          "correct": false,
          "direction": 180
        },
        {
          "trial_number": 1,
          "rt": 1359,
          "correct": true,
          "direction": 0
        },
        {
          "trial_number": 2,
          "rt": 1570,
          "correct": true,
          "direction": 180
        },
        {
          "trial_number": 3,
          "rt": 1742,
          "correct": true,
          "direction": 0
        },
        {
          "trial_number": 4,
          "rt": 1657,
          "correct": true,
          "direction": 0
        },
        {
          "trial_number": 5,
          "rt": null,
          "correct": false,
          "direction": 0
        },
        {
          "trial_number": 6,
          "rt": 1454,
          "correct": false,
          "direction": 0
        },
        {
          "trial_number": 7,
          "rt": 1793,
          "correct": true,
          "direction": 0
        },
        {
          "trial_number": 8,
          "rt": 1054,
          "correct": false,
          "direction": 180
        },
        {
          "trial_number": 9,
          "rt": 1546,
          "correct": true,
          "direction": 0
        },
        {
          "trial_number": 10,
          "rt": 1194,
          "correct": true,
          "direction": 180
        },
        {
          "trial_number": 11,
          "rt": 1071,
          "correct": true,
          "direction": 0
        },
        {
          "trial_number": 12,
          "rt": 1751,
          "correct": false,
          "direction": 180
        },
        {
          "trial_number": 13,
          "rt": 1029,
          "correct": true,
          "direction": 0
        },
        {
          "trial_number": 14,
          "rt": 1346,
          "correct": true,
          "direction": 0
        },
        {
          "trial_number": 15,
          "rt": 1185,
          "correct": true,
          "direction": 0
        },
        {
          "trial_number": 16,
          "rt": 1102,
          "correct": true,
          "direction": 0
        },
        {
          "trial_number": 17,
          "rt": 1044,
          "correct": true,
          "direction": 0
        },
        {
          "trial_number": 18,
          "rt": 1812,
          "correct": false,
          "direction": 180
        },
        {
          "trial_number": 19,
          "rt": 1233,
          "correct": true,
          "direction": 0
        }
      ],
      "meanRT": 1386,
      "accuracy": 70
    }
  }
}