{
  "experiment": "rdk-face-1",
  "UUID": "ac676401-6fe5-4d4d-b869-465190d88a09",
  "data": {
    "session": {
      "experiment_version": "1.8.6",
      "treatment": "faces_towards_away_catch",
      "file_version": "1.8.6",
      "totalTrials": 120,
      "totalTrialsIncludingCatch": 132,
      "conditions": {
        "gazeTowardsCount": 60,
        "gazeAwayCount": 60,
        "gazeTowardsAccuracy": 97,
        "gazeAwayAccuracy": 97
      },
      "session_group": "default",
      "browserData": {
        "os": "Windows",
        "browser": "Chrome",
        "screenResolution": "2048x1152",
        "browserViewport": "2048x1152",
        "devicePixelRatio": 1.25,
        "colorDepth": 32,
        "hardwareConcurrency": 12,
        "deviceMemory": 8,
        "gpuRenderer": "ANGLE (NVIDIA, NVIDIA GeForce RTX 3060 Ti (0x00002489) Direct3D11 vs_5_0 ps_5_0, D3D11)",
        "measuredRefreshRateHz": 53
      },
      "attention": {
        "visibilityEvents": [
          {
            "event": "blur",
            "state": "blurred",
            "timestamp": 1772779058818
          },
          {
            "event": "focus",
            "state": "focused",
            "timestamp": 1772779065098
          }
        ]
      },
      "calibration": {
        "monitorWidthCm": 38,
        "viewingDistanceCm": 54,
        "pixelsPerDegree": 50
      },
      "parameters": {
        "coherence": 0.4,
        "apertureDeg": 5,
        "densityDotsPerDeg2": 40,
        "dotDiameterDeg": 0.035,
        "dotSpeedDegPerSec": 3,
        "lifetimeMs": 200,
        "fixationDurationMs": 1500,
        "faceDurationMs": 1500,
        "testDurationMs": 2000,
        "catchResponseMs": 3000
      },
      "prolific": {
        "prolificPid": "66391b315f82b602182e3569",
        "studyId": "",
        "sessionId": ""
      },
      "timing": {
        "startTime": "2026-03-06T06:33:08.988Z",
        "endTime": "2026-03-06T06:46:17.105Z",
        "totalElapsedTimeMs": 788117
      }
    },
    "trials": [
      {
        "trial_number": 0,
        "trial_index": 49,
        "rt": 1084,
        "correct": true,
        "response": "ArrowRight",
        "congruent": false,
        "gazeTowards": false,
        "gazeCondition": "away",
        "faceOnLeft": false,
        "impliedDirection": 180,
        "testDirection": 0,
        "avgFps": 65,
        "minFps": 37,
        "maxFps": 144,
        "totalFrames": 70,
        "frameRates": 65
      },
      {
        "trial_number": 1,
        "trial_index": 54,
        "rt": 976,
        "correct": true,
        "response": "ArrowLeft",
        "congruent": true,
        "gazeTowards": true,
        "gazeCondition": "towards",
        "faceOnLeft": false,
        "impliedDirection": 180,
        "testDirection": 180,
        "avgFps": 65,
        "minFps": 37,
        "maxFps": 76,
        "totalFrames": 62,
        "frameRates": 65
      },
      {
        "trial_number": 2,
        "trial_index": 59,
        "rt": 1142,
        "correct": true,
        "response": "ArrowLeft",
        "congruent": true,
        "gazeTowards": false,
        "gazeCondition": "away",
        "faceOnLeft": false,
        "impliedDirection": 180,
        "testDirection": 180,
        "avgFps": 64,
        "minFps": 37,
        "maxFps": 99,
        "totalFrames": 73,
        "frameRates": 64
      },
      {
        "trial_number": 3,
        "trial_index": 64,
        "rt": 772,
        "correct": true,
        "response": "ArrowRight",
        "congruent": false,
        "gazeTowards": true,
        "gazeCondition": "towards",
        "faceOnLeft": false,
        "impliedDirection": 180,
        "testDirection": 0,
        "avgFps": 66,
        "minFps": 25,
        "maxFps": 146,
        "totalFrames": 51,
        "frameRates": 66
      },
      {
        "trial_number": 4,
        "trial_index": 69,
        "rt": 877,
        "correct": true,
        "response": "ArrowRight",
        "congruent": true,
        "gazeTowards": false,
        "gazeCondition": "away",
        "faceOnLeft": true,
        "impliedDirection": 0,
        "testDirection": 0,
        "avgFps": 66,
        "minFps": 37,
        "maxFps": 116,
        "totalFrames": 57,
        "frameRates": 66
      },
      {
        "trial_number": 5,
        "trial_index": 74,
        "rt": 915,
        "correct": true,
        "response": "ArrowRight",
        "congruent": true,
        "gazeTowards": false,
        "gazeCondition": "away",
        "faceOnLeft": true,
        "impliedDirection": 0,
        "testDirection": 0,
        "avgFps": 65,
        "minFps": 37,
        "maxFps": 77,
        "totalFrames": 59,
        "frameRates": 65
      },
      {
        "trial_number": 6,
        "trial_index": 79,
        "rt": 869,
        "correct": true,
        "response": "ArrowLeft",
        "congruent": false,
        "gazeTowards": false,
        "gazeCondition": "away",
        "faceOnLeft": true,
        "impliedDirection": 0,
        "testDirection": 180,
        "avgFps": 64,
        "minFps": 37,
        "maxFps": 77,
        "totalFrames": 55,
        "frameRates": 64
      },
      {
        "trial_number": 7,
        "trial_index": 84,
        "rt": 951,
        "correct": true,
        "response": "ArrowRight",
        "congruent": false,
        "gazeTowards": true,
        "gazeCondition": "towards",
        "faceOnLeft": false,
        "impliedDirection": 180,
        "testDirection": 0,
        "avgFps": 65,
        "minFps": 37,
        "maxFps": 76,
        "totalFrames": 61,
        "frameRates": 65
      },
      {
        "trial_number": 8,
        "trial_index": 89,
        "rt": 1022,
        "correct": true,
        "response": "ArrowLeft",
        "congruent": true,
        "gazeTowards": true,
        "gazeCondition": "towards",
        "faceOnLeft": false,
        "impliedDirection": 180,
        "testDirection": 180,
        "avgFps": 65,
        "minFps": 37,
        "maxFps": 146,
        "totalFrames": 65,
        "frameRates": 65
      },
      {
        "trial_number": 9,
        "trial_index": 97,
        "rt": 1370,
        "correct": false,
        "response": "ArrowLeft",
        "congruent": false,
        "gazeTowards": false,
        "gazeCondition": "away",
        "faceOnLeft": false,
        "impliedDirection": 180,
        "testDirection": 0,
        "avgFps": 64,
        "minFps": 37,
        "maxFps": 150,
        "totalFrames": 86,
        "frameRates": 64
      },
      {
        "trial_number": 10,
        "trial_index": 102,
        "rt": 1262,
        "correct": true,
        "response": "ArrowLeft",
        "congruent": true,
        "gazeTowards": false,
        "gazeCondition": "away",
        "faceOnLeft": false,
        "impliedDirection": 180,
        "testDirection": 180,
        "avgFps": 65,
        "minFps": 37,
        "maxFps": 76,
        "totalFrames": 80,
        "frameRates": 65
      },
      {
        "trial_number": 11,
        "trial_index": 107,
        "rt": 1408,
        "correct": false,
        "response": "ArrowLeft",
        "congruent": false,
        "gazeTowards": true,
        "gazeCondition": "towards",
        "faceOnLeft": false,
        "impliedDirection": 180,
        "testDirection": 0,
        "avgFps": 63,
        "minFps": 37,
        "maxFps": 148,
        "totalFrames": 88,
        "frameRates": 63
      },
      {
        "trial_number": 12,
        "trial_index": 115,
        "rt": 1285,
        "correct": true,
        "response": "ArrowLeft",
        "congruent": true,
        "gazeTowards": false,
        "gazeCondition": "away",
        "faceOnLeft": false,
        "impliedDirection": 180,
        "testDirection": 180,
        "avgFps": 63,
        "minFps": 37,
        "maxFps": 76,
        "totalFrames": 81,
        "frameRates": 63
      },
      {
        "trial_number": 13,
        "trial_index": 120,
        "rt": 1064,
        "correct": true,
        "response": "ArrowRight",
        "congruent": true,
        "gazeTowards": true,
        "gazeCondition": "towards",
        "faceOnLeft": true,
        "impliedDirection": 0,
        "testDirection": 0,
        "avgFps": 65,
        "minFps": 37,
        "maxFps": 304,
        "totalFrames": 68,
        "frameRates": 65
      },
      {
        "trial_number": 14,
        "trial_index": 125,
        "rt": 892,
        "correct": true,
        "response": "ArrowLeft",
        "congruent": true,
        "gazeTowards": true,
        "gazeCondition": "towards",
        "faceOnLeft": false,
        "impliedDirection": 180,
        "testDirection": 180,
        "avgFps": 66,
        "minFps": 37,
        "maxFps": 77,
        "totalFrames": 57,
        "frameRates": 66
      },
      {
        "trial_number": 15,
        "trial_index": 130,
        "rt": 953,
        "correct": true,
        "response": "ArrowLeft",
        "congruent": true,
        "gazeTowards": true,
        "gazeCondition": "towards",
        "faceOnLeft": false,
        "impliedDirection": 180,
        "testDirection": 180,
        "avgFps": 65,
        "minFps": 37,
        "maxFps": 77,
        "totalFrames": 61,
        "frameRates": 65
      },
      {
        "trial_number": 16,
        "trial_index": 135,
        "rt": 1082,
        "correct": true,
        "response": "ArrowLeft",
        "congruent": true,
        "gazeTowards": true,
        "gazeCondition": "towards",
        "faceOnLeft": false,
        "impliedDirection": 180,
        "testDirection": 180,
        "avgFps": 65,
        "minFps": 37,
        "maxFps": 76,
        "totalFrames": 69,
        "frameRates": 65
      },
      {
        "trial_number": 17,
        "trial_index": 140,
        "rt": 1197,
        "correct": true,
        "response": "ArrowLeft",
        "congruent": false,
        "gazeTowards": false,
        "gazeCondition": "away",
        "faceOnLeft": true,
        "impliedDirection": 0,
        "testDirection": 180,
        "avgFps": 65,
        "minFps": 37,
        "maxFps": 76,
        "totalFrames": 76,
        "frameRates": 65
      },
      {
        "trial_number": 18,
        "trial_index": 145,
        "rt": 816,
        "correct": true,
        "response": "ArrowRight",
        "congruent": false,
        "gazeTowards": false,
        "gazeCondition": "away",
        "faceOnLeft": false,
        "impliedDirection": 180,
        "testDirection": 0,
        "avgFps": 65,
        "minFps": 37,
        "maxFps": 98,
        "totalFrames": 53,
        "frameRates": 65
      },
      {
        "trial_number": 19,
        "trial_index": 150,
        "rt": 1070,
        "correct": true,
        "response": "ArrowLeft",
        "congruent": false,
        "gazeTowards": true,
        "gazeCondition": "towards",
        "faceOnLeft": true,
        "impliedDirection": 0,
        "testDirection": 180,
        "avgFps": 65,
        "minFps": 37,
        "maxFps": 295,
        "totalFrames": 69,
        "frameRates": 65
      },
      {
        "trial_number": 20,
        "trial_index": 155,
        "rt": 919,
        "correct": true,
        "response": "ArrowRight",
        "congruent": true,
        "gazeTowards": false,
        "gazeCondition": "away",
        "faceOnLeft": true,
        "impliedDirection": 0,
        "testDirection": 0,
        "avgFps": 66,
        "minFps": 37,
        "maxFps": 146,
        "totalFrames": 59,
        "frameRates": 66
      },
      {
        "trial_number": 21,
        "trial_index": 160,
        "rt": 1205,
        "correct": true,
        "response": "ArrowRight",
        "congruent": false,
        "gazeTowards": true,
        "gazeCondition": "towards",
        "faceOnLeft": false,
        "impliedDirection": 180,
        "testDirection": 0,
        "avgFps": 64,
        "minFps": 37,
        "maxFps": 295,
        "totalFrames": 77,
        "frameRates": 64
      },
      {
        "trial_number": 22,
        "trial_index": 165,
        "rt": 798,
        "correct": true,
        "response": "ArrowLeft",
        "congruent": false,
        "gazeTowards": false,
        "gazeCondition": "away",
        "faceOnLeft": true,
        "impliedDirection": 0,
        "testDirection": 180,
        "avgFps": 65,
        "minFps": 37,
        "maxFps": 76,
        "totalFrames": 51,
        "frameRates": 65
      },
      {
        "trial_number": 23,
        "trial_index": 170,
        "rt": 749,
        "correct": true,
        "response": "ArrowRight",
        "congruent": false,
        "gazeTowards": true,
        "gazeCondition": "towards",
        "faceOnLeft": false,
        "impliedDirection": 180,
        "testDirection": 0,
        "avgFps": 66,
        "minFps": 37,
        "maxFps": 77,
        "totalFrames": 49,
        "frameRates": 66
      },
      {
        "trial_number": 24,
        "trial_index": 175,
        "rt": 1209,
        "correct": false,
        "response": "ArrowLeft",
        "congruent": false,
        "gazeTowards": false,
        "gazeCondition": "away",
        "faceOnLeft": false,
        "impliedDirection": 180,
        "testDirection": 0,
        "avgFps": 64,
        "minFps": 37,
        "maxFps": 100,
        "totalFrames": 77,
        "frameRates": 64
      },
      {
        "trial_number": 25,
        "trial_index": 180,
        "rt": 874,
        "correct": true,
        "response": "ArrowRight",
        "congruent": false,
        "gazeTowards": true,
        "gazeCondition": "towards",
        "faceOnLeft": false,
        "impliedDirection": 180,
        "testDirection": 0,
        "avgFps": 66,
        "minFps": 37,
        "maxFps": 152,
        "totalFrames": 57,
        "frameRates": 66
      },
      {
        "trial_number": 26,
        "trial_index": 185,
        "rt": 1385,
        "correct": true,
        "response": "ArrowRight",
        "congruent": false,
        "gazeTowards": true,
        "gazeCondition": "towards",
        "faceOnLeft": false,
        "impliedDirection": 180,
        "testDirection": 0,
        "avgFps": 63,
        "minFps": 37,
        "maxFps": 76,
        "totalFrames": 87,
        "frameRates": 63
      },
      {
        "trial_number": 27,
        "trial_index": 190,
        "rt": 749,
        "correct": true,
        "response": "ArrowLeft",
        "congruent": false,
        "gazeTowards": true,
        "gazeCondition": "towards",
        "faceOnLeft": true,
        "impliedDirection": 0,
        "testDirection": 180,
        "avgFps": 66,
        "minFps": 37,
        "maxFps": 148,
        "totalFrames": 48,
        "frameRates": 66
      },
      {
        "trial_number": 28,
        "trial_index": 195,
        "rt": 1400,
        "correct": true,
        "response": "ArrowLeft",
        "congruent": false,
        "gazeTowards": false,
        "gazeCondition": "away",
        "faceOnLeft": true,
        "impliedDirection": 0,
        "testDirection": 180,
        "avgFps": 63,
        "minFps": 37,
        "maxFps": 76,
        "totalFrames": 88,
        "frameRates": 63
      },
      {
        "trial_number": 29,
        "trial_index": 200,
        "rt": 1224,
        "correct": true,
        "response": "ArrowRight",
        "congruent": false,
        "gazeTowards": true,
        "gazeCondition": "towards",
        "faceOnLeft": false,
        "impliedDirection": 180,
        "testDirection": 0,
        "avgFps": 63,
        "minFps": 37,
        "maxFps": 77,
        "totalFrames": 77,
        "frameRates": 63
      },
      {
        "trial_number": 30,
        "trial_index": 205,
        "rt": 890,
        "correct": true,
        "response": "ArrowLeft",
        "congruent": true,
        "gazeTowards": false,
        "gazeCondition": "away",
        "faceOnLeft": false,
        "impliedDirection": 180,
        "testDirection": 180,
        "avgFps": 65,
        "minFps": 25,
        "maxFps": 146,
        "totalFrames": 57,
        "frameRates": 65
      },
      {
        "trial_number": 31,
        "trial_index": 211,
        "rt": 832,
        "correct": true,
        "response": "ArrowLeft",
        "congruent": false,
        "gazeTowards": false,
        "gazeCondition": "away",
        "faceOnLeft": true,
        "impliedDirection": 0,
        "testDirection": 180,
        "avgFps": 66,
        "minFps": 37,
        "maxFps": 76,
        "totalFrames": 54,
        "frameRates": 66
      },
      {
        "trial_number": 32,
        "trial_index": 216,
        "rt": 783,
        "correct": true,
        "response": "ArrowLeft",
        "congruent": true,
        "gazeTowards": false,
        "gazeCondition": "away",
        "faceOnLeft": false,
        "impliedDirection": 180,
        "testDirection": 180,
        "avgFps": 66,
        "minFps": 38,
        "maxFps": 76,
        "totalFrames": 51,
        "frameRates": 66
      },
      {
        "trial_number": 33,
        "trial_index": 221,
        "rt": 804,
        "correct": true,
        "response": "ArrowRight",
        "congruent": true,
        "gazeTowards": false,
        "gazeCondition": "away",
        "faceOnLeft": true,
        "impliedDirection": 0,
        "testDirection": 0,
        "avgFps": 67,
        "minFps": 37,
        "maxFps": 150,
        "totalFrames": 52,
        "frameRates": 67
      },
      {
        "trial_number": 34,
        "trial_index": 226,
        "rt": 688,
        "correct": true,
        "response": "ArrowLeft",
        "congruent": true,
        "gazeTowards": true,
        "gazeCondition": "towards",
        "faceOnLeft": false,
        "impliedDirection": 180,
        "testDirection": 180,
        "avgFps": 67,
        "minFps": 37,
        "maxFps": 150,
        "totalFrames": 45,
        "frameRates": 67
      },
      {
        "trial_number": 35,
        "trial_index": 231,
        "rt": 760,
        "correct": true,
        "response": "ArrowLeft",
        "congruent": true,
        "gazeTowards": false,
        "gazeCondition": "away",
        "faceOnLeft": false,
        "impliedDirection": 180,
        "testDirection": 180,
        "avgFps": 67,
        "minFps": 37,
        "maxFps": 76,
        "totalFrames": 50,
        "frameRates": 67
      },
      {
        "trial_number": 36,
        "trial_index": 236,
        "rt": 799,
        "correct": true,
        "response": "ArrowLeft",
        "congruent": false,
        "gazeTowards": false,
        "gazeCondition": "away",
        "faceOnLeft": true,
        "impliedDirection": 0,
        "testDirection": 180,
        "avgFps": 66,
        "minFps": 37,
        "maxFps": 83,
        "totalFrames": 52,
        "frameRates": 66
      },
      {
        "trial_number": 37,
        "trial_index": 241,
        "rt": 766,
        "correct": true,
        "response": "ArrowRight",
        "congruent": false,
        "gazeTowards": true,
        "gazeCondition": "towards",
        "faceOnLeft": false,
        "impliedDirection": 180,
        "testDirection": 0,
        "avgFps": 67,
        "minFps": 37,
        "maxFps": 77,
        "totalFrames": 51,
        "frameRates": 67
      },
      {
        "trial_number": 38,
        "trial_index": 246,
        "rt": 771,
        "correct": true,
        "response": "ArrowLeft",
        "congruent": true,
        "gazeTowards": true,
        "gazeCondition": "towards",
        "faceOnLeft": false,
        "impliedDirection": 180,
        "testDirection": 180,
        "avgFps": 65,
        "minFps": 37,
        "maxFps": 98,
        "totalFrames": 49,
        "frameRates": 65
      },
      {
        "trial_number": 39,
        "trial_index": 251,
        "rt": 798,
        "correct": true,
        "response": "ArrowRight",
        "congruent": false,
        "gazeTowards": true,
        "gazeCondition": "towards",
        "faceOnLeft": false,
        "impliedDirection": 180,
        "testDirection": 0,
        "avgFps": 64,
        "minFps": 37,
        "maxFps": 76,
        "totalFrames": 51,
        "frameRates": 64
      },
      {
        "trial_number": 40,
        "trial_index": 256,
        "rt": 660,
        "correct": true,
        "response": "ArrowLeft",
        "congruent": false,
        "gazeTowards": true,
        "gazeCondition": "towards",
        "faceOnLeft": true,
        "impliedDirection": 0,
        "testDirection": 180,
        "avgFps": 68,
        "minFps": 37,
        "maxFps": 117,
        "totalFrames": 44,
        "frameRates": 68
      },
      {
        "trial_number": 41,
        "trial_index": 261,
        "rt": 439,
        "correct": true,
        "response": "ArrowRight",
        "congruent": false,
        "gazeTowards": true,
        "gazeCondition": "towards",
        "faceOnLeft": false,
        "impliedDirection": 180,
        "testDirection": 0,
        "avgFps": 70,
        "minFps": 38,
        "maxFps": 76,
        "totalFrames": 30,
        "frameRates": 70
      },
      {
        "trial_number": 42,
        "trial_index": 266,
        "rt": 671,
        "correct": true,
        "response": "ArrowRight",
        "congruent": true,
        "gazeTowards": false,
        "gazeCondition": "away",
        "faceOnLeft": true,
        "impliedDirection": 0,
        "testDirection": 0,
        "avgFps": 68,
        "minFps": 37,
        "maxFps": 76,
        "totalFrames": 45,
        "frameRates": 68
      },
      {
        "trial_number": 43,
        "trial_index": 271,
        "rt": 725,
        "correct": true,
        "response": "ArrowRight",
        "congruent": true,
        "gazeTowards": false,
        "gazeCondition": "away",
        "faceOnLeft": true,
        "impliedDirection": 0,
        "testDirection": 0,
        "avgFps": 65,
        "minFps": 37,
        "maxFps": 77,
        "totalFrames": 47,
        "frameRates": 65
      },
      {
        "trial_number": 44,
        "trial_index": 276,
        "rt": 535,
        "correct": true,
        "response": "ArrowLeft",
        "congruent": true,
        "gazeTowards": true,
        "gazeCondition": "towards",
        "faceOnLeft": false,
        "impliedDirection": 180,
        "testDirection": 180,
        "avgFps": 67,
        "minFps": 37,
        "maxFps": 76,
        "totalFrames": 35,
        "frameRates": 67
      },
      {
        "trial_number": 45,
        "trial_index": 281,
        "rt": 523,
        "correct": true,
        "response": "ArrowRight",
        "congruent": false,
        "gazeTowards": true,
        "gazeCondition": "towards",
        "faceOnLeft": false,
        "impliedDirection": 180,
        "testDirection": 0,
        "avgFps": 69,
        "minFps": 37,
        "maxFps": 76,
        "totalFrames": 36,
        "frameRates": 69
      },
      {
        "trial_number": 46,
        "trial_index": 286,
        "rt": 958,
        "correct": true,
        "response": "ArrowRight",
        "congruent": true,
        "gazeTowards": false,
        "gazeCondition": "away",
        "faceOnLeft": true,
        "impliedDirection": 0,
        "testDirection": 0,
        "avgFps": 66,
        "minFps": 37,
        "maxFps": 100,
        "totalFrames": 62,
        "frameRates": 66
      },
      {
        "trial_number": 47,
        "trial_index": 291,
        "rt": 1264,
        "correct": true,
        "response": "ArrowRight",
        "congruent": true,
        "gazeTowards": false,
        "gazeCondition": "away",
        "faceOnLeft": true,
        "impliedDirection": 0,
        "testDirection": 0,
        "avgFps": 63,
        "minFps": 37,
        "maxFps": 144,
        "totalFrames": 79,
        "frameRates": 63
      },
      {
        "trial_number": 48,
        "trial_index": 296,
        "rt": 654,
        "correct": true,
        "response": "ArrowLeft",
        "congruent": true,
        "gazeTowards": true,
        "gazeCondition": "towards",
        "faceOnLeft": false,
        "impliedDirection": 180,
        "testDirection": 180,
        "avgFps": 66,
        "minFps": 37,
        "maxFps": 97,
        "totalFrames": 43,
        "frameRates": 66
      },
      {
        "trial_number": 49,
        "trial_index": 301,
        "rt": 733,
        "correct": true,
        "response": "ArrowRight",
        "congruent": true,
        "gazeTowards": false,
        "gazeCondition": "away",
        "faceOnLeft": true,
        "impliedDirection": 0,
        "testDirection": 0,
        "avgFps": 67,
        "minFps": 37,
        "maxFps": 76,
        "totalFrames": 49,
        "frameRates": 67
      },
      {
        "trial_number": 50,
        "trial_index": 306,
        "rt": 740,
        "correct": true,
        "response": "ArrowLeft",
        "congruent": false,
        "gazeTowards": false,
        "gazeCondition": "away",
        "faceOnLeft": true,
        "impliedDirection": 0,
        "testDirection": 180,
        "avgFps": 67,
        "minFps": 37,
        "maxFps": 76,
        "totalFrames": 49,
        "frameRates": 67
      },
      {
        "trial_number": 51,
        "trial_index": 311,
        "rt": 754,
        "correct": true,
        "response": "ArrowLeft",
        "congruent": false,
        "gazeTowards": true,
        "gazeCondition": "towards",
        "faceOnLeft": true,
        "impliedDirection": 0,
        "testDirection": 180,
        "avgFps": 65,
        "minFps": 37,
        "maxFps": 144,
        "totalFrames": 48,
        "frameRates": 65
      },
      {
        "trial_number": 52,
        "trial_index": 316,
        "rt": 754,
        "correct": true,
        "response": "ArrowRight",
        "congruent": false,
        "gazeTowards": true,
        "gazeCondition": "towards",
        "faceOnLeft": false,
        "impliedDirection": 180,
        "testDirection": 0,
        "avgFps": 66,
        "minFps": 37,
        "maxFps": 100,
        "totalFrames": 49,
        "frameRates": 66
      },
      {
        "trial_number": 53,
        "trial_index": 321,
        "rt": 782,
        "correct": true,
        "response": "ArrowRight",
        "congruent": true,
        "gazeTowards": true,
        "gazeCondition": "towards",
        "faceOnLeft": true,
        "impliedDirection": 0,
        "testDirection": 0,
        "avgFps": 65,
        "minFps": 37,
        "maxFps": 77,
        "totalFrames": 51,
        "frameRates": 65
      },
      {
        "trial_number": 54,
        "trial_index": 335,
        "rt": 678,
        "correct": true,
        "response": "ArrowLeft",
        "congruent": true,
        "gazeTowards": false,
        "gazeCondition": "away",
        "faceOnLeft": false,
        "impliedDirection": 180,
        "testDirection": 180,
        "avgFps": 65,
        "minFps": 37,
        "maxFps": 142,
        "totalFrames": 44,
        "frameRates": 65
      },
      {
        "trial_number": 55,
        "trial_index": 343,
        "rt": 819,
        "correct": true,
        "response": "ArrowRight",
        "congruent": false,
        "gazeTowards": true,
        "gazeCondition": "towards",
        "faceOnLeft": false,
        "impliedDirection": 180,
        "testDirection": 0,
        "avgFps": 66,
        "minFps": 37,
        "maxFps": 76,
        "totalFrames": 54,
        "frameRates": 66
      },
      {
        "trial_number": 56,
        "trial_index": 348,
        "rt": 585,
        "correct": true,
        "response": "ArrowLeft",
        "congruent": false,
        "gazeTowards": true,
        "gazeCondition": "towards",
        "faceOnLeft": true,
        "impliedDirection": 0,
        "testDirection": 180,
        "avgFps": 69,
        "minFps": 37,
        "maxFps": 100,
        "totalFrames": 40,
        "frameRates": 69
      },
      {
        "trial_number": 57,
        "trial_index": 353,
        "rt": 593,
        "correct": true,
        "response": "ArrowLeft",
        "congruent": false,
        "gazeTowards": true,
        "gazeCondition": "towards",
        "faceOnLeft": true,
        "impliedDirection": 0,
        "testDirection": 180,
        "avgFps": 69,
        "minFps": 38,
        "maxFps": 148,
        "totalFrames": 40,
        "frameRates": 69
      },
      {
        "trial_number": 58,
        "trial_index": 358,
        "rt": 571,
        "correct": true,
        "response": "ArrowRight",
        "congruent": true,
        "gazeTowards": false,
        "gazeCondition": "away",
        "faceOnLeft": true,
        "impliedDirection": 0,
        "testDirection": 0,
        "avgFps": 67,
        "minFps": 37,
        "maxFps": 87,
        "totalFrames": 38,
        "frameRates": 67
      },
      {
        "trial_number": 59,
        "trial_index": 363,
        "rt": 536,
        "correct": true,
        "response": "ArrowLeft",
        "congruent": true,
        "gazeTowards": false,
        "gazeCondition": "away",
        "faceOnLeft": false,
        "impliedDirection": 180,
        "testDirection": 180,
        "avgFps": 67,
        "minFps": 37,
        "maxFps": 76,
        "totalFrames": 35,
        "frameRates": 67
      },
      {
        "trial_number": 60,
        "trial_index": 369,
        "rt": 424,
        "correct": true,
        "response": "ArrowLeft",
        "congruent": true,
        "gazeTowards": true,
        "gazeCondition": "towards",
        "faceOnLeft": false,
        "impliedDirection": 180,
        "testDirection": 180,
        "avgFps": 70,
        "minFps": 37,
        "maxFps": 76,
        "totalFrames": 28,
        "frameRates": 70
      },
      {
        "trial_number": 61,
        "trial_index": 374,
        "rt": 523,
        "correct": true,
        "response": "ArrowRight",
        "congruent": false,
        "gazeTowards": true,
        "gazeCondition": "towards",
        "faceOnLeft": false,
        "impliedDirection": 180,
        "testDirection": 0,
        "avgFps": 71,
        "minFps": 37,
        "maxFps": 77,
        "totalFrames": 36,
        "frameRates": 71
      },
      {
        "trial_number": 62,
        "trial_index": 379,
        "rt": 476,
        "correct": true,
        "response": "ArrowRight",
        "congruent": true,
        "gazeTowards": false,
        "gazeCondition": "away",
        "faceOnLeft": true,
        "impliedDirection": 0,
        "testDirection": 0,
        "avgFps": 71,
        "minFps": 38,
        "maxFps": 76,
        "totalFrames": 32,
        "frameRates": 71
      },
      {
        "trial_number": 63,
        "trial_index": 384,
        "rt": 616,
        "correct": true,
        "response": "ArrowRight",
        "congruent": true,
        "gazeTowards": false,
        "gazeCondition": "away",
        "faceOnLeft": true,
        "impliedDirection": 0,
        "testDirection": 0,
        "avgFps": 68,
        "minFps": 37,
        "maxFps": 76,
        "totalFrames": 41,
        "frameRates": 68
      },
      {
        "trial_number": 64,
        "trial_index": 389,
        "rt": 590,
        "correct": true,
        "response": "ArrowLeft",
        "congruent": false,
        "gazeTowards": false,
        "gazeCondition": "away",
        "faceOnLeft": true,
        "impliedDirection": 0,
        "testDirection": 180,
        "avgFps": 66,
        "minFps": 25,
        "maxFps": 76,
        "totalFrames": 38,
        "frameRates": 66
      },
      {
        "trial_number": 65,
        "trial_index": 394,
        "rt": 808,
        "correct": true,
        "response": "ArrowLeft",
        "congruent": true,
        "gazeTowards": true,
        "gazeCondition": "towards",
        "faceOnLeft": false,
        "impliedDirection": 180,
        "testDirection": 180,
        "avgFps": 65,
        "minFps": 37,
        "maxFps": 84,
        "totalFrames": 53,
        "frameRates": 65
      },
      {
        "trial_number": 66,
        "trial_index": 399,
        "rt": 553,
        "correct": true,
        "response": "ArrowLeft",
        "congruent": true,
        "gazeTowards": false,
        "gazeCondition": "away",
        "faceOnLeft": false,
        "impliedDirection": 180,
        "testDirection": 180,
        "avgFps": 70,
        "minFps": 37,
        "maxFps": 76,
        "totalFrames": 38,
        "frameRates": 70
      },
      {
        "trial_number": 67,
        "trial_index": 404,
        "rt": 656,
        "correct": true,
        "response": "ArrowLeft",
        "congruent": true,
        "gazeTowards": true,
        "gazeCondition": "towards",
        "faceOnLeft": false,
        "impliedDirection": 180,
        "testDirection": 180,
        "avgFps": 67,
        "minFps": 37,
        "maxFps": 76,
        "totalFrames": 43,
        "frameRates": 67
      },
      {
        "trial_number": 68,
        "trial_index": 409,
        "rt": 690,
        "correct": true,
        "response": "ArrowRight",
        "congruent": true,
        "gazeTowards": true,
        "gazeCondition": "towards",
        "faceOnLeft": true,
        "impliedDirection": 0,
        "testDirection": 0,
        "avgFps": 65,
        "minFps": 37,
        "maxFps": 99,
        "totalFrames": 45,
        "frameRates": 65
      },
      {
        "trial_number": 69,
        "trial_index": 417,
        "rt": 847,
        "correct": true,
        "response": "ArrowRight",
        "congruent": true,
        "gazeTowards": false,
        "gazeCondition": "away",
        "faceOnLeft": true,
        "impliedDirection": 0,
        "testDirection": 0,
        "avgFps": 65,
        "minFps": 37,
        "maxFps": 146,
        "totalFrames": 54,
        "frameRates": 65
      },
      {
        "trial_number": 70,
        "trial_index": 422,
        "rt": 703,
        "correct": true,
        "response": "ArrowRight",
        "congruent": false,
        "gazeTowards": false,
        "gazeCondition": "away",
        "faceOnLeft": false,
        "impliedDirection": 180,
        "testDirection": 0,
        "avgFps": 68,
        "minFps": 37,
        "maxFps": 77,
        "totalFrames": 47,
        "frameRates": 68
      },
      {
        "trial_number": 71,
        "trial_index": 427,
        "rt": 473,
        "correct": true,
        "response": "ArrowRight",
        "congruent": true,
        "gazeTowards": true,
        "gazeCondition": "towards",
        "faceOnLeft": true,
        "impliedDirection": 0,
        "testDirection": 0,
        "avgFps": 70,
        "minFps": 37,
        "maxFps": 142,
        "totalFrames": 33,
        "frameRates": 70
      },
      {
        "trial_number": 72,
        "trial_index": 432,
        "rt": 662,
        "correct": true,
        "response": "ArrowLeft",
        "congruent": false,
        "gazeTowards": false,
        "gazeCondition": "away",
        "faceOnLeft": true,
        "impliedDirection": 0,
        "testDirection": 180,
        "avgFps": 67,
        "minFps": 37,
        "maxFps": 77,
        "totalFrames": 44,
        "frameRates": 67
      },
      {
        "trial_number": 73,
        "trial_index": 437,
        "rt": 727,
        "correct": true,
        "response": "ArrowRight",
        "congruent": true,
        "gazeTowards": true,
        "gazeCondition": "towards",
        "faceOnLeft": true,
        "impliedDirection": 0,
        "testDirection": 0,
        "avgFps": 68,
        "minFps": 37,
        "maxFps": 76,
        "totalFrames": 48,
        "frameRates": 68
      },
      {
        "trial_number": 74,
        "trial_index": 442,
        "rt": 504,
        "correct": true,
        "response": "ArrowLeft",
        "congruent": false,
        "gazeTowards": true,
        "gazeCondition": "towards",
        "faceOnLeft": true,
        "impliedDirection": 0,
        "testDirection": 180,
        "avgFps": 67,
        "minFps": 38,
        "maxFps": 76,
        "totalFrames": 34,
        "frameRates": 67
      },
      {
        "trial_number": 75,
        "trial_index": 450,
        "rt": 540,
        "correct": true,
        "response": "ArrowLeft",
        "congruent": false,
        "gazeTowards": true,
        "gazeCondition": "towards",
        "faceOnLeft": true,
        "impliedDirection": 0,
        "testDirection": 180,
        "avgFps": 66,
        "minFps": 37,
        "maxFps": 77,
        "totalFrames": 36,
        "frameRates": 66
      },
      {
        "trial_number": 76,
        "trial_index": 455,
        "rt": 695,
        "correct": true,
        "response": "ArrowLeft",
        "congruent": true,
        "gazeTowards": false,
        "gazeCondition": "away",
        "faceOnLeft": false,
        "impliedDirection": 180,
        "testDirection": 180,
        "avgFps": 66,
        "minFps": 37,
        "maxFps": 76,
        "totalFrames": 45,
        "frameRates": 66
      },
      {
        "trial_number": 77,
        "trial_index": 460,
        "rt": 726,
        "correct": true,
        "response": "ArrowLeft",
        "congruent": true,
        "gazeTowards": false,
        "gazeCondition": "away",
        "faceOnLeft": false,
        "impliedDirection": 180,
        "testDirection": 180,
        "avgFps": 66,
        "minFps": 37,
        "maxFps": 84,
        "totalFrames": 47,
        "frameRates": 66
      },
      {
        "trial_number": 78,
        "trial_index": 465,
        "rt": 654,
        "correct": true,
        "response": "ArrowLeft",
        "congruent": false,
        "gazeTowards": true,
        "gazeCondition": "towards",
        "faceOnLeft": true,
        "impliedDirection": 0,
        "testDirection": 180,
        "avgFps": 69,
        "minFps": 38,
        "maxFps": 76,
        "totalFrames": 44,
        "frameRates": 69
      },
      {
        "trial_number": 79,
        "trial_index": 470,
        "rt": 557,
        "correct": true,
        "response": "ArrowLeft",
        "congruent": true,
        "gazeTowards": false,
        "gazeCondition": "away",
        "faceOnLeft": false,
        "impliedDirection": 180,
        "testDirection": 180,
        "avgFps": 71,
        "minFps": 37,
        "maxFps": 286,
        "totalFrames": 38,
        "frameRates": 71
      },
      {
        "trial_number": 80,
        "trial_index": 475,
        "rt": 454,
        "correct": true,
        "response": "ArrowLeft",
        "congruent": false,
        "gazeTowards": false,
        "gazeCondition": "away",
        "faceOnLeft": true,
        "impliedDirection": 0,
        "testDirection": 180,
        "avgFps": 71,
        "minFps": 37,
        "maxFps": 98,
        "totalFrames": 32,
        "frameRates": 71
      },
      {
        "trial_number": 81,
        "trial_index": 480,
        "rt": 955,
        "correct": true,
        "response": "ArrowRight",
        "congruent": true,
        "gazeTowards": true,
        "gazeCondition": "towards",
        "faceOnLeft": true,
        "impliedDirection": 0,
        "testDirection": 0,
        "avgFps": 64,
        "minFps": 37,
        "maxFps": 76,
        "totalFrames": 60,
        "frameRates": 64
      },
      {
        "trial_number": 82,
        "trial_index": 485,
        "rt": 594,
        "correct": true,
        "response": "ArrowRight",
        "congruent": true,
        "gazeTowards": false,
        "gazeCondition": "away",
        "faceOnLeft": true,
        "impliedDirection": 0,
        "testDirection": 0,
        "avgFps": 67,
        "minFps": 37,
        "maxFps": 76,
        "totalFrames": 40,
        "frameRates": 67
      },
      {
        "trial_number": 83,
        "trial_index": 490,
        "rt": 765,
        "correct": true,
        "response": "ArrowLeft",
        "congruent": false,
        "gazeTowards": false,
        "gazeCondition": "away",
        "faceOnLeft": true,
        "impliedDirection": 0,
        "testDirection": 180,
        "avgFps": 65,
        "minFps": 37,
        "maxFps": 83,
        "totalFrames": 49,
        "frameRates": 65
      },
      {
        "trial_number": 84,
        "trial_index": 495,
        "rt": 1243,
        "correct": true,
        "response": "ArrowLeft",
        "congruent": true,
        "gazeTowards": true,
        "gazeCondition": "towards",
        "faceOnLeft": false,
        "impliedDirection": 180,
        "testDirection": 180,
        "avgFps": 64,
        "minFps": 37,
        "maxFps": 76,
        "totalFrames": 79,
        "frameRates": 64
      },
      {
        "trial_number": 85,
        "trial_index": 500,
        "rt": 1545,
        "correct": true,
        "response": "ArrowRight",
        "congruent": false,
        "gazeTowards": false,
        "gazeCondition": "away",
        "faceOnLeft": false,
        "impliedDirection": 180,
        "testDirection": 0,
        "avgFps": 63,
        "minFps": 37,
        "maxFps": 77,
        "totalFrames": 97,
        "frameRates": 63
      },
      {
        "trial_number": 86,
        "trial_index": 505,
        "rt": 886,
        "correct": true,
        "response": "ArrowLeft",
        "congruent": true,
        "gazeTowards": false,
        "gazeCondition": "away",
        "faceOnLeft": false,
        "impliedDirection": 180,
        "testDirection": 180,
        "avgFps": 64,
        "minFps": 37,
        "maxFps": 146,
        "totalFrames": 56,
        "frameRates": 64
      },
      {
        "trial_number": 87,
        "trial_index": 510,
        "rt": 711,
        "correct": true,
        "response": "ArrowLeft",
        "congruent": true,
        "gazeTowards": false,
        "gazeCondition": "away",
        "faceOnLeft": false,
        "impliedDirection": 180,
        "testDirection": 180,
        "avgFps": 68,
        "minFps": 37,
        "maxFps": 76,
        "totalFrames": 48,
        "frameRates": 68
      },
      {
        "trial_number": 88,
        "trial_index": 515,
        "rt": 597,
        "correct": true,
        "response": "ArrowLeft",
        "congruent": true,
        "gazeTowards": true,
        "gazeCondition": "towards",
        "faceOnLeft": false,
        "impliedDirection": 180,
        "testDirection": 180,
        "avgFps": 67,
        "minFps": 37,
        "maxFps": 81,
        "totalFrames": 39,
        "frameRates": 67
      },
      {
        "trial_number": 89,
        "trial_index": 520,
        "rt": 777,
        "correct": true,
        "response": "ArrowRight",
        "congruent": false,
        "gazeTowards": false,
        "gazeCondition": "away",
        "faceOnLeft": false,
        "impliedDirection": 180,
        "testDirection": 0,
        "avgFps": 65,
        "minFps": 37,
        "maxFps": 76,
        "totalFrames": 50,
        "frameRates": 65
      },
      {
        "trial_number": 90,
        "trial_index": 525,
        "rt": 740,
        "correct": true,
        "response": "ArrowLeft",
        "congruent": false,
        "gazeTowards": true,
        "gazeCondition": "towards",
        "faceOnLeft": true,
        "impliedDirection": 0,
        "testDirection": 180,
        "avgFps": 65,
        "minFps": 37,
        "maxFps": 76,
        "totalFrames": 47,
        "frameRates": 65
      },
      {
        "trial_number": 91,
        "trial_index": 531,
        "rt": 712,
        "correct": true,
        "response": "ArrowRight",
        "congruent": false,
        "gazeTowards": false,
        "gazeCondition": "away",
        "faceOnLeft": false,
        "impliedDirection": 180,
        "testDirection": 0,
        "avgFps": 66,
        "minFps": 37,
        "maxFps": 295,
        "totalFrames": 46,
        "frameRates": 66
      },
      {
        "trial_number": 92,
        "trial_index": 536,
        "rt": 719,
        "correct": true,
        "response": "ArrowRight",
        "congruent": false,
        "gazeTowards": false,
        "gazeCondition": "away",
        "faceOnLeft": false,
        "impliedDirection": 180,
        "testDirection": 0,
        "avgFps": 68,
        "minFps": 37,
        "maxFps": 278,
        "totalFrames": 48,
        "frameRates": 68
      },
      {
        "trial_number": 93,
        "trial_index": 541,
        "rt": 1123,
        "correct": true,
        "response": "ArrowRight",
        "congruent": true,
        "gazeTowards": true,
        "gazeCondition": "towards",
        "faceOnLeft": true,
        "impliedDirection": 0,
        "testDirection": 0,
        "avgFps": 64,
        "minFps": 37,
        "maxFps": 76,
        "totalFrames": 71,
        "frameRates": 64
      },
      {
        "trial_number": 94,
        "trial_index": 546,
        "rt": 864,
        "correct": true,
        "response": "ArrowRight",
        "congruent": false,
        "gazeTowards": false,
        "gazeCondition": "away",
        "faceOnLeft": false,
        "impliedDirection": 180,
        "testDirection": 0,
        "avgFps": 66,
        "minFps": 37,
        "maxFps": 100,
        "totalFrames": 56,
        "frameRates": 66
      },
      {
        "trial_number": 95,
        "trial_index": 551,
        "rt": 924,
        "correct": false,
        "response": "ArrowLeft",
        "congruent": true,
        "gazeTowards": true,
        "gazeCondition": "towards",
        "faceOnLeft": true,
        "impliedDirection": 0,
        "testDirection": 0,
        "avgFps": 66,
        "minFps": 37,
        "maxFps": 76,
        "totalFrames": 60,
        "frameRates": 66
      },
      {
        "trial_number": 96,
        "trial_index": 556,
        "rt": 1483,
        "correct": true,
        "response": "ArrowRight",
        "congruent": true,
        "gazeTowards": true,
        "gazeCondition": "towards",
        "faceOnLeft": true,
        "impliedDirection": 0,
        "testDirection": 0,
        "avgFps": 64,
        "minFps": 37,
        "maxFps": 144,
        "totalFrames": 93,
        "frameRates": 64
      },
      {
        "trial_number": 97,
        "trial_index": 561,
        "rt": 870,
        "correct": true,
        "response": "ArrowRight",
        "congruent": false,
        "gazeTowards": true,
        "gazeCondition": "towards",
        "faceOnLeft": false,
        "impliedDirection": 180,
        "testDirection": 0,
        "avgFps": 66,
        "minFps": 37,
        "maxFps": 147,
        "totalFrames": 56,
        "frameRates": 66
      },
      {
        "trial_number": 98,
        "trial_index": 566,
        "rt": 779,
        "correct": true,
        "response": "ArrowLeft",
        "congruent": false,
        "gazeTowards": false,
        "gazeCondition": "away",
        "faceOnLeft": true,
        "impliedDirection": 0,
        "testDirection": 180,
        "avgFps": 66,
        "minFps": 37,
        "maxFps": 76,
        "totalFrames": 50,
        "frameRates": 66
      },
      {
        "trial_number": 99,
        "trial_index": 571,
        "rt": 1243,
        "correct": true,
        "response": "ArrowRight",
        "congruent": true,
        "gazeTowards": false,
        "gazeCondition": "away",
        "faceOnLeft": true,
        "impliedDirection": 0,
        "testDirection": 0,
        "avgFps": 63,
        "minFps": 37,
        "maxFps": 76,
        "totalFrames": 77,
        "frameRates": 63
      },
      {
        "trial_number": 100,
        "trial_index": 576,
        "rt": 1341,
        "correct": true,
        "response": "ArrowRight",
        "congruent": true,
        "gazeTowards": true,
        "gazeCondition": "towards",
        "faceOnLeft": true,
        "impliedDirection": 0,
        "testDirection": 0,
        "avgFps": 64,
        "minFps": 37,
        "maxFps": 76,
        "totalFrames": 84,
        "frameRates": 64
      },
      {
        "trial_number": 101,
        "trial_index": 581,
        "rt": 761,
        "correct": true,
        "response": "ArrowLeft",
        "congruent": true,
        "gazeTowards": true,
        "gazeCondition": "towards",
        "faceOnLeft": false,
        "impliedDirection": 180,
        "testDirection": 180,
        "avgFps": 68,
        "minFps": 37,
        "maxFps": 144,
        "totalFrames": 51,
        "frameRates": 68
      },
      {
        "trial_number": 102,
        "trial_index": 586,
        "rt": 1096,
        "correct": true,
        "response": "ArrowRight",
        "congruent": false,
        "gazeTowards": false,
        "gazeCondition": "away",
        "faceOnLeft": false,
        "impliedDirection": 180,
        "testDirection": 0,
        "avgFps": 63,
        "minFps": 37,
        "maxFps": 150,
        "totalFrames": 69,
        "frameRates": 63
      },
      {
        "trial_number": 103,
        "trial_index": 591,
        "rt": 840,
        "correct": true,
        "response": "ArrowLeft",
        "congruent": true,
        "gazeTowards": true,
        "gazeCondition": "towards",
        "faceOnLeft": false,
        "impliedDirection": 180,
        "testDirection": 180,
        "avgFps": 65,
        "minFps": 37,
        "maxFps": 76,
        "totalFrames": 54,
        "frameRates": 65
      },
      {
        "trial_number": 104,
        "trial_index": 596,
        "rt": 697,
        "correct": true,
        "response": "ArrowLeft",
        "congruent": false,
        "gazeTowards": true,
        "gazeCondition": "towards",
        "faceOnLeft": true,
        "impliedDirection": 0,
        "testDirection": 180,
        "avgFps": 68,
        "minFps": 37,
        "maxFps": 76,
        "totalFrames": 46,
        "frameRates": 68
      },
      {
        "trial_number": 105,
        "trial_index": 604,
        "rt": 996,
        "correct": true,
        "response": "ArrowRight",
        "congruent": true,
        "gazeTowards": false,
        "gazeCondition": "away",
        "faceOnLeft": true,
        "impliedDirection": 0,
        "testDirection": 0,
        "avgFps": 65,
        "minFps": 37,
        "maxFps": 76,
        "totalFrames": 64,
        "frameRates": 65
      },
      {
        "trial_number": 106,
        "trial_index": 609,
        "rt": 938,
        "correct": true,
        "response": "ArrowLeft",
        "congruent": true,
        "gazeTowards": true,
        "gazeCondition": "towards",
        "faceOnLeft": false,
        "impliedDirection": 180,
        "testDirection": 180,
        "avgFps": 64,
        "minFps": 37,
        "maxFps": 77,
        "totalFrames": 60,
        "frameRates": 64
      },
      {
        "trial_number": 107,
        "trial_index": 614,
        "rt": 1058,
        "correct": true,
        "response": "ArrowLeft",
        "congruent": false,
        "gazeTowards": true,
        "gazeCondition": "towards",
        "faceOnLeft": true,
        "impliedDirection": 0,
        "testDirection": 180,
        "avgFps": 65,
        "minFps": 37,
        "maxFps": 76,
        "totalFrames": 68,
        "frameRates": 65
      },
      {
        "trial_number": 108,
        "trial_index": 619,
        "rt": 1454,
        "correct": true,
        "response": "ArrowRight",
        "congruent": false,
        "gazeTowards": false,
        "gazeCondition": "away",
        "faceOnLeft": false,
        "impliedDirection": 180,
        "testDirection": 0,
        "avgFps": 63,
        "minFps": 37,
        "maxFps": 77,
        "totalFrames": 92,
        "frameRates": 63
      },
      {
        "trial_number": 109,
        "trial_index": 624,
        "rt": 1059,
        "correct": true,
        "response": "ArrowRight",
        "congruent": false,
        "gazeTowards": false,
        "gazeCondition": "away",
        "faceOnLeft": false,
        "impliedDirection": 180,
        "testDirection": 0,
        "avgFps": 64,
        "minFps": 37,
        "maxFps": 144,
        "totalFrames": 67,
        "frameRates": 64
      },
      {
        "trial_number": 110,
        "trial_index": 632,
        "rt": 962,
        "correct": true,
        "response": "ArrowRight",
        "congruent": false,
        "gazeTowards": false,
        "gazeCondition": "away",
        "faceOnLeft": false,
        "impliedDirection": 180,
        "testDirection": 0,
        "avgFps": 65,
        "minFps": 37,
        "maxFps": 76,
        "totalFrames": 62,
        "frameRates": 65
      },
      {
        "trial_number": 111,
        "trial_index": 640,
        "rt": 606,
        "correct": true,
        "response": "ArrowLeft",
        "congruent": false,
        "gazeTowards": true,
        "gazeCondition": "towards",
        "faceOnLeft": true,
        "impliedDirection": 0,
        "testDirection": 180,
        "avgFps": 68,
        "minFps": 37,
        "maxFps": 76,
        "totalFrames": 41,
        "frameRates": 68
      },
      {
        "trial_number": 112,
        "trial_index": 645,
        "rt": 914,
        "correct": true,
        "response": "ArrowLeft",
        "congruent": true,
        "gazeTowards": true,
        "gazeCondition": "towards",
        "faceOnLeft": false,
        "impliedDirection": 180,
        "testDirection": 180,
        "avgFps": 66,
        "minFps": 37,
        "maxFps": 150,
        "totalFrames": 59,
        "frameRates": 66
      },
      {
        "trial_number": 113,
        "trial_index": 650,
        "rt": 886,
        "correct": true,
        "response": "ArrowLeft",
        "congruent": true,
        "gazeTowards": true,
        "gazeCondition": "towards",
        "faceOnLeft": false,
        "impliedDirection": 180,
        "testDirection": 180,
        "avgFps": 66,
        "minFps": 37,
        "maxFps": 295,
        "totalFrames": 57,
        "frameRates": 66
      },
      {
        "trial_number": 114,
        "trial_index": 655,
        "rt": 995,
        "correct": true,
        "response": "ArrowRight",
        "congruent": false,
        "gazeTowards": false,
        "gazeCondition": "away",
        "faceOnLeft": false,
        "impliedDirection": 180,
        "testDirection": 0,
        "avgFps": 65,
        "minFps": 37,
        "maxFps": 76,
        "totalFrames": 64,
        "frameRates": 65
      },
      {
        "trial_number": 115,
        "trial_index": 660,
        "rt": 597,
        "correct": true,
        "response": "ArrowLeft",
        "congruent": false,
        "gazeTowards": false,
        "gazeCondition": "away",
        "faceOnLeft": true,
        "impliedDirection": 0,
        "testDirection": 180,
        "avgFps": 69,
        "minFps": 38,
        "maxFps": 99,
        "totalFrames": 41,
        "frameRates": 69
      },
      {
        "trial_number": 116,
        "trial_index": 665,
        "rt": 850,
        "correct": true,
        "response": "ArrowRight",
        "congruent": true,
        "gazeTowards": true,
        "gazeCondition": "towards",
        "faceOnLeft": true,
        "impliedDirection": 0,
        "testDirection": 0,
        "avgFps": 65,
        "minFps": 37,
        "maxFps": 146,
        "totalFrames": 55,
        "frameRates": 65
      },
      {
        "trial_number": 117,
        "trial_index": 670,
        "rt": 927,
        "correct": true,
        "response": "ArrowRight",
        "congruent": false,
        "gazeTowards": false,
        "gazeCondition": "away",
        "faceOnLeft": false,
        "impliedDirection": 180,
        "testDirection": 0,
        "avgFps": 65,
        "minFps": 37,
        "maxFps": 81,
        "totalFrames": 59,
        "frameRates": 65
      },
      {
        "trial_number": 118,
        "trial_index": 675,
        "rt": 1498,
        "correct": true,
        "response": "ArrowRight",
        "congruent": false,
        "gazeTowards": false,
        "gazeCondition": "away",
        "faceOnLeft": false,
        "impliedDirection": 180,
        "testDirection": 0,
        "avgFps": 64,
        "minFps": 37,
        "maxFps": 77,
        "totalFrames": 94,
        "frameRates": 64
      },
      {
        "trial_number": 119,
        "trial_index": 683,
        "rt": 821,
        "correct": true,
        "response": "ArrowLeft",
        "congruent": false,
        "gazeTowards": true,
        "gazeCondition": "towards",
        "faceOnLeft": true,
        "impliedDirection": 0,
        "testDirection": 180,
        "avgFps": 65,
        "minFps": 37,
        "maxFps": 77,
        "totalFrames": 54,
        "frameRates": 65
      }
    ],
    "catch": {
      "total": 12,
      "correct": 12,
      "accuracy": 100,
      "meanRT": 596,
      "trials": [
        {
          "trial_number": 0,
          "trial_index": 93,
          "rt": 579,
          "correct": true,
          "colorTarget": "face",
          "gazeTowards": false,
          "gazeCondition": "away",
          "faceOnLeft": false
        },
        {
          "trial_number": 1,
          "trial_index": 111,
          "rt": 428,
          "correct": true,
          "colorTarget": "face",
          "gazeTowards": false,
          "gazeCondition": "away",
          "faceOnLeft": true
        },
        {
          "trial_number": 2,
          "trial_index": 325,
          "rt": 752,
          "correct": true,
          "colorTarget": "tree",
          "gazeTowards": false,
          "gazeCondition": "away",
          "faceOnLeft": false
        },
        {
          "trial_number": 3,
          "trial_index": 328,
          "rt": 644,
          "correct": true,
          "colorTarget": "face",
          "gazeTowards": false,
          "gazeCondition": "away",
          "faceOnLeft": true
        },
        {
          "trial_number": 4,
          "trial_index": 331,
          "rt": 402,
          "correct": true,
          "colorTarget": "tree",
          "gazeTowards": false,
          "gazeCondition": "away",
          "faceOnLeft": true
        },
        {
          "trial_number": 5,
          "trial_index": 339,
          "rt": 614,
          "correct": true,
          "colorTarget": "tree",
          "gazeTowards": true,
          "gazeCondition": "towards",
          "faceOnLeft": false
        },
        {
          "trial_number": 6,
          "trial_index": 413,
          "rt": 670,
          "correct": true,
          "colorTarget": "face",
          "gazeTowards": true,
          "gazeCondition": "towards",
          "faceOnLeft": false
        },
        {
          "trial_number": 7,
          "trial_index": 446,
          "rt": 517,
          "correct": true,
          "colorTarget": "tree",
          "gazeTowards": false,
          "gazeCondition": "away",
          "faceOnLeft": true
        },
        {
          "trial_number": 8,
          "trial_index": 600,
          "rt": 395,
          "correct": true,
          "colorTarget": "tree",
          "gazeTowards": false,
          "gazeCondition": "away",
          "faceOnLeft": true
        },
        {
          "trial_number": 9,
          "trial_index": 628,
          "rt": 551,
          "correct": true,
          "colorTarget": "tree",
          "gazeTowards": false,
          "gazeCondition": "away",
          "faceOnLeft": false
        },
        {
          "trial_number": 10,
          "trial_index": 636,
          "rt": 606,
          "correct": true,
          "colorTarget": "face",
          "gazeTowards": true,
          "gazeCondition": "towards",
          "faceOnLeft": true
        },
        {
          "trial_number": 11,
          "trial_index": 679,
          "rt": 998,
          "correct": true,
          "colorTarget": "face",
          "gazeTowards": false,
          "gazeCondition": "away",
          "faceOnLeft": true
        }
      ]
    },
    "practice": {
      "trials": [
        {
          "trial_number": 0,
          "rt": 1940,
          "correct": true,
          "direction": 180
        },
        {
          "trial_number": 1,
          "rt": 1753,
          "correct": true,
          "direction": 180
        },
        {
          "trial_number": 2,
          "rt": 1163,
          "correct": true,
          "direction": 0
        },
        {
          "trial_number": 3,
          "rt": 1274,
          "correct": true,
          "direction": 180
        },
        {
          "trial_number": 4,
          "rt": 998,
          "correct": true,
          "direction": 0
        },
        {
          "trial_number": 5,
          "rt": 950,
          "correct": true,
          "direction": 180
        },
        {
          "trial_number": 6,
          "rt": 1316,
          "correct": true,
          "direction": 180
        },
        {
          "trial_number": 7,
          "rt": 993,
          "correct": true,
          "direction": 180
        },
        {
          "trial_number": 8,
          "rt": null,
          "correct": false,
          "direction": 180
        },
        {
          "trial_number": 9,
          "rt": 884,
          "correct": true,
          "direction": 0
        }
      ],
      "meanRT": 1252,
      "accuracy": 90
    }
  }
}