{
  "experiment": "rdk-face-1",
  "UUID": "55e463a5-fdc6-486a-a8fb-67e0998c16a3",
  "data": {
    "session": {
      "experiment_version": "1.8.6",
      "treatment": "faces_towards_away_catch",
      "file_version": "1.8.6",
      "totalTrials": 120,
      "totalTrialsIncludingCatch": 132,
      "conditions": {
        "gazeTowardsCount": 60,
        "gazeAwayCount": 60,
        "gazeTowardsAccuracy": 93,
        "gazeAwayAccuracy": 97
      },
      "session_group": "default",
      "browserData": {
        "os": "Windows",
        "browser": "Chrome",
        "screenResolution": "1920x1080",
        "browserViewport": "1920x1080",
        "devicePixelRatio": 1,
        "colorDepth": 32,
        "hardwareConcurrency": 16,
        "deviceMemory": 8,
        "gpuRenderer": "ANGLE (AMD, Radeon RX 590 Series (0x000067DF) Direct3D11 vs_5_0 ps_5_0, D3D11)",
        "measuredRefreshRateHz": 78
      },
      "attention": {
        "visibilityEvents": [
          {
            "event": "blur",
            "state": "blurred",
            "timestamp": 1772767291867
          },
          {
            "event": "visibilitychange",
            "state": "hidden",
            "timestamp": 1772767291869
          },
          {
            "event": "visibilitychange",
            "state": "visible",
            "timestamp": 1772767293519
          },
          {
            "event": "focus",
            "state": "focused",
            "timestamp": 1772767293525
          },
          {
            "event": "blur",
            "state": "blurred",
            "timestamp": 1772767328616
          },
          {
            "event": "focus",
            "state": "focused",
            "timestamp": 1772767332104
          }
        ]
      },
      "calibration": {
        "monitorWidthCm": 38,
        "viewingDistanceCm": 54,
        "pixelsPerDegree": 50
      },
      "parameters": {
        "coherence": 0.4,
        "apertureDeg": 5,
        "densityDotsPerDeg2": 40,
        "dotDiameterDeg": 0.035,
        "dotSpeedDegPerSec": 3,
        "lifetimeMs": 200,
        "fixationDurationMs": 1500,
        "faceDurationMs": 1500,
        "testDurationMs": 2000,
        "catchResponseMs": 3000
      },
      "prolific": {
        "prolificPid": "63f81021ab46acf095efff80",
        "studyId": "",
        "sessionId": ""
      },
      "timing": {
        "startTime": "2026-03-06T03:21:29.994Z",
        "endTime": "2026-03-06T03:34:35.583Z",
        "totalElapsedTimeMs": 785589
      }
    },
    "trials": [
      {
        "trial_number": 0,
        "trial_index": 49,
        "rt": 906,
        "correct": true,
        "response": "ArrowLeft",
        "congruent": false,
        "gazeTowards": false,
        "gazeCondition": "away",
        "faceOnLeft": true,
        "impliedDirection": 0,
        "testDirection": 180,
        "avgFps": 100,
        "minFps": 99,
        "maxFps": 101,
        "totalFrames": 91,
        "frameRates": 100
      },
      {
        "trial_number": 1,
        "trial_index": 54,
        "rt": 749,
        "correct": true,
        "response": "ArrowLeft",
        "congruent": false,
        "gazeTowards": true,
        "gazeCondition": "towards",
        "faceOnLeft": true,
        "impliedDirection": 0,
        "testDirection": 180,
        "avgFps": 100,
        "minFps": 98,
        "maxFps": 101,
        "totalFrames": 75,
        "frameRates": 100
      },
      {
        "trial_number": 2,
        "trial_index": 59,
        "rt": 903,
        "correct": true,
        "response": "ArrowRight",
        "congruent": true,
        "gazeTowards": true,
        "gazeCondition": "towards",
        "faceOnLeft": true,
        "impliedDirection": 0,
        "testDirection": 0,
        "avgFps": 100,
        "minFps": 99,
        "maxFps": 101,
        "totalFrames": 90,
        "frameRates": 100
      },
      {
        "trial_number": 3,
        "trial_index": 64,
        "rt": 547,
        "correct": true,
        "response": "ArrowLeft",
        "congruent": false,
        "gazeTowards": true,
        "gazeCondition": "towards",
        "faceOnLeft": true,
        "impliedDirection": 0,
        "testDirection": 180,
        "avgFps": 100,
        "minFps": 97,
        "maxFps": 103,
        "totalFrames": 55,
        "frameRates": 100
      },
      {
        "trial_number": 4,
        "trial_index": 72,
        "rt": 647,
        "correct": true,
        "response": "ArrowRight",
        "congruent": false,
        "gazeTowards": false,
        "gazeCondition": "away",
        "faceOnLeft": false,
        "impliedDirection": 180,
        "testDirection": 0,
        "avgFps": 100,
        "minFps": 99,
        "maxFps": 101,
        "totalFrames": 64,
        "frameRates": 100
      },
      {
        "trial_number": 5,
        "trial_index": 77,
        "rt": 457,
        "correct": true,
        "response": "ArrowLeft",
        "congruent": false,
        "gazeTowards": false,
        "gazeCondition": "away",
        "faceOnLeft": true,
        "impliedDirection": 0,
        "testDirection": 180,
        "avgFps": 100,
        "minFps": 99,
        "maxFps": 101,
        "totalFrames": 46,
        "frameRates": 100
      },
      {
        "trial_number": 6,
        "trial_index": 82,
        "rt": 734,
        "correct": true,
        "response": "ArrowLeft",
        "congruent": false,
        "gazeTowards": false,
        "gazeCondition": "away",
        "faceOnLeft": true,
        "impliedDirection": 0,
        "testDirection": 180,
        "avgFps": 100,
        "minFps": 99,
        "maxFps": 101,
        "totalFrames": 73,
        "frameRates": 100
      },
      {
        "trial_number": 7,
        "trial_index": 87,
        "rt": 850,
        "correct": true,
        "response": "ArrowLeft",
        "congruent": true,
        "gazeTowards": false,
        "gazeCondition": "away",
        "faceOnLeft": false,
        "impliedDirection": 180,
        "testDirection": 180,
        "avgFps": 100,
        "minFps": 99,
        "maxFps": 101,
        "totalFrames": 85,
        "frameRates": 100
      },
      {
        "trial_number": 8,
        "trial_index": 92,
        "rt": 624,
        "correct": true,
        "response": "ArrowLeft",
        "congruent": false,
        "gazeTowards": true,
        "gazeCondition": "towards",
        "faceOnLeft": true,
        "impliedDirection": 0,
        "testDirection": 180,
        "avgFps": 100,
        "minFps": 99,
        "maxFps": 101,
        "totalFrames": 63,
        "frameRates": 100
      },
      {
        "trial_number": 9,
        "trial_index": 97,
        "rt": 629,
        "correct": true,
        "response": "ArrowLeft",
        "congruent": false,
        "gazeTowards": false,
        "gazeCondition": "away",
        "faceOnLeft": true,
        "impliedDirection": 0,
        "testDirection": 180,
        "avgFps": 100,
        "minFps": 99,
        "maxFps": 101,
        "totalFrames": 63,
        "frameRates": 100
      },
      {
        "trial_number": 10,
        "trial_index": 102,
        "rt": 799,
        "correct": true,
        "response": "ArrowLeft",
        "congruent": true,
        "gazeTowards": true,
        "gazeCondition": "towards",
        "faceOnLeft": false,
        "impliedDirection": 180,
        "testDirection": 180,
        "avgFps": 100,
        "minFps": 99,
        "maxFps": 101,
        "totalFrames": 80,
        "frameRates": 100
      },
      {
        "trial_number": 11,
        "trial_index": 107,
        "rt": 696,
        "correct": true,
        "response": "ArrowLeft",
        "congruent": true,
        "gazeTowards": false,
        "gazeCondition": "away",
        "faceOnLeft": false,
        "impliedDirection": 180,
        "testDirection": 180,
        "avgFps": 100,
        "minFps": 99,
        "maxFps": 101,
        "totalFrames": 70,
        "frameRates": 100
      },
      {
        "trial_number": 12,
        "trial_index": 112,
        "rt": 642,
        "correct": true,
        "response": "ArrowRight",
        "congruent": true,
        "gazeTowards": false,
        "gazeCondition": "away",
        "faceOnLeft": true,
        "impliedDirection": 0,
        "testDirection": 0,
        "avgFps": 100,
        "minFps": 99,
        "maxFps": 101,
        "totalFrames": 64,
        "frameRates": 100
      },
      {
        "trial_number": 13,
        "trial_index": 117,
        "rt": 751,
        "correct": true,
        "response": "ArrowLeft",
        "congruent": false,
        "gazeTowards": true,
        "gazeCondition": "towards",
        "faceOnLeft": true,
        "impliedDirection": 0,
        "testDirection": 180,
        "avgFps": 100,
        "minFps": 99,
        "maxFps": 101,
        "totalFrames": 75,
        "frameRates": 100
      },
      {
        "trial_number": 14,
        "trial_index": 125,
        "rt": 952,
        "correct": true,
        "response": "ArrowRight",
        "congruent": true,
        "gazeTowards": false,
        "gazeCondition": "away",
        "faceOnLeft": true,
        "impliedDirection": 0,
        "testDirection": 0,
        "avgFps": 100,
        "minFps": 99,
        "maxFps": 101,
        "totalFrames": 95,
        "frameRates": 100
      },
      {
        "trial_number": 15,
        "trial_index": 130,
        "rt": 544,
        "correct": true,
        "response": "ArrowLeft",
        "congruent": true,
        "gazeTowards": true,
        "gazeCondition": "towards",
        "faceOnLeft": false,
        "impliedDirection": 180,
        "testDirection": 180,
        "avgFps": 100,
        "minFps": 99,
        "maxFps": 101,
        "totalFrames": 55,
        "frameRates": 100
      },
      {
        "trial_number": 16,
        "trial_index": 135,
        "rt": 469,
        "correct": true,
        "response": "ArrowLeft",
        "congruent": true,
        "gazeTowards": true,
        "gazeCondition": "towards",
        "faceOnLeft": false,
        "impliedDirection": 180,
        "testDirection": 180,
        "avgFps": 100,
        "minFps": 99,
        "maxFps": 101,
        "totalFrames": 47,
        "frameRates": 100
      },
      {
        "trial_number": 17,
        "trial_index": 140,
        "rt": 498,
        "correct": true,
        "response": "ArrowRight",
        "congruent": true,
        "gazeTowards": false,
        "gazeCondition": "away",
        "faceOnLeft": true,
        "impliedDirection": 0,
        "testDirection": 0,
        "avgFps": 101,
        "minFps": 99,
        "maxFps": 286,
        "totalFrames": 50,
        "frameRates": 101
      },
      {
        "trial_number": 18,
        "trial_index": 145,
        "rt": 540,
        "correct": true,
        "response": "ArrowRight",
        "congruent": true,
        "gazeTowards": true,
        "gazeCondition": "towards",
        "faceOnLeft": true,
        "impliedDirection": 0,
        "testDirection": 0,
        "avgFps": 100,
        "minFps": 99,
        "maxFps": 101,
        "totalFrames": 54,
        "frameRates": 100
      },
      {
        "trial_number": 19,
        "trial_index": 153,
        "rt": 568,
        "correct": true,
        "response": "ArrowLeft",
        "congruent": false,
        "gazeTowards": true,
        "gazeCondition": "towards",
        "faceOnLeft": true,
        "impliedDirection": 0,
        "testDirection": 180,
        "avgFps": 102,
        "minFps": 99,
        "maxFps": 16667,
        "totalFrames": 57,
        "frameRates": 102
      },
      {
        "trial_number": 20,
        "trial_index": 158,
        "rt": 555,
        "correct": true,
        "response": "ArrowLeft",
        "congruent": true,
        "gazeTowards": true,
        "gazeCondition": "towards",
        "faceOnLeft": false,
        "impliedDirection": 180,
        "testDirection": 180,
        "avgFps": 100,
        "minFps": 99,
        "maxFps": 101,
        "totalFrames": 56,
        "frameRates": 100
      },
      {
        "trial_number": 21,
        "trial_index": 163,
        "rt": 487,
        "correct": true,
        "response": "ArrowLeft",
        "congruent": false,
        "gazeTowards": false,
        "gazeCondition": "away",
        "faceOnLeft": true,
        "impliedDirection": 0,
        "testDirection": 180,
        "avgFps": 100,
        "minFps": 99,
        "maxFps": 101,
        "totalFrames": 49,
        "frameRates": 100
      },
      {
        "trial_number": 22,
        "trial_index": 168,
        "rt": 669,
        "correct": true,
        "response": "ArrowRight",
        "congruent": false,
        "gazeTowards": true,
        "gazeCondition": "towards",
        "faceOnLeft": false,
        "impliedDirection": 180,
        "testDirection": 0,
        "avgFps": 100,
        "minFps": 99,
        "maxFps": 101,
        "totalFrames": 67,
        "frameRates": 100
      },
      {
        "trial_number": 23,
        "trial_index": 173,
        "rt": 765,
        "correct": true,
        "response": "ArrowRight",
        "congruent": false,
        "gazeTowards": false,
        "gazeCondition": "away",
        "faceOnLeft": false,
        "impliedDirection": 180,
        "testDirection": 0,
        "avgFps": 100,
        "minFps": 99,
        "maxFps": 101,
        "totalFrames": 76,
        "frameRates": 100
      },
      {
        "trial_number": 24,
        "trial_index": 178,
        "rt": 620,
        "correct": true,
        "response": "ArrowLeft",
        "congruent": true,
        "gazeTowards": false,
        "gazeCondition": "away",
        "faceOnLeft": false,
        "impliedDirection": 180,
        "testDirection": 180,
        "avgFps": 100,
        "minFps": 99,
        "maxFps": 101,
        "totalFrames": 62,
        "frameRates": 100
      },
      {
        "trial_number": 25,
        "trial_index": 183,
        "rt": 561,
        "correct": true,
        "response": "ArrowLeft",
        "congruent": true,
        "gazeTowards": true,
        "gazeCondition": "towards",
        "faceOnLeft": false,
        "impliedDirection": 180,
        "testDirection": 180,
        "avgFps": 100,
        "minFps": 99,
        "maxFps": 101,
        "totalFrames": 56,
        "frameRates": 100
      },
      {
        "trial_number": 26,
        "trial_index": 188,
        "rt": 826,
        "correct": true,
        "response": "ArrowRight",
        "congruent": false,
        "gazeTowards": false,
        "gazeCondition": "away",
        "faceOnLeft": false,
        "impliedDirection": 180,
        "testDirection": 0,
        "avgFps": 100,
        "minFps": 99,
        "maxFps": 101,
        "totalFrames": 83,
        "frameRates": 100
      },
      {
        "trial_number": 27,
        "trial_index": 193,
        "rt": 742,
        "correct": true,
        "response": "ArrowRight",
        "congruent": true,
        "gazeTowards": false,
        "gazeCondition": "away",
        "faceOnLeft": true,
        "impliedDirection": 0,
        "testDirection": 0,
        "avgFps": 100,
        "minFps": 99,
        "maxFps": 101,
        "totalFrames": 74,
        "frameRates": 100
      },
      {
        "trial_number": 28,
        "trial_index": 198,
        "rt": 439,
        "correct": true,
        "response": "ArrowLeft",
        "congruent": false,
        "gazeTowards": true,
        "gazeCondition": "towards",
        "faceOnLeft": true,
        "impliedDirection": 0,
        "testDirection": 180,
        "avgFps": 100,
        "minFps": 99,
        "maxFps": 101,
        "totalFrames": 44,
        "frameRates": 100
      },
      {
        "trial_number": 29,
        "trial_index": 203,
        "rt": 443,
        "correct": true,
        "response": "ArrowLeft",
        "congruent": true,
        "gazeTowards": true,
        "gazeCondition": "towards",
        "faceOnLeft": false,
        "impliedDirection": 180,
        "testDirection": 180,
        "avgFps": 100,
        "minFps": 99,
        "maxFps": 101,
        "totalFrames": 44,
        "frameRates": 100
      },
      {
        "trial_number": 30,
        "trial_index": 209,
        "rt": 457,
        "correct": true,
        "response": "ArrowRight",
        "congruent": true,
        "gazeTowards": false,
        "gazeCondition": "away",
        "faceOnLeft": true,
        "impliedDirection": 0,
        "testDirection": 0,
        "avgFps": 100,
        "minFps": 99,
        "maxFps": 101,
        "totalFrames": 46,
        "frameRates": 100
      },
      {
        "trial_number": 31,
        "trial_index": 217,
        "rt": 596,
        "correct": true,
        "response": "ArrowLeft",
        "congruent": false,
        "gazeTowards": true,
        "gazeCondition": "towards",
        "faceOnLeft": true,
        "impliedDirection": 0,
        "testDirection": 180,
        "avgFps": 100,
        "minFps": 99,
        "maxFps": 101,
        "totalFrames": 60,
        "frameRates": 100
      },
      {
        "trial_number": 32,
        "trial_index": 222,
        "rt": 1167,
        "correct": true,
        "response": "ArrowLeft",
        "congruent": true,
        "gazeTowards": true,
        "gazeCondition": "towards",
        "faceOnLeft": false,
        "impliedDirection": 180,
        "testDirection": 180,
        "avgFps": 100,
        "minFps": 99,
        "maxFps": 102,
        "totalFrames": 117,
        "frameRates": 100
      },
      {
        "trial_number": 33,
        "trial_index": 227,
        "rt": 867,
        "correct": true,
        "response": "ArrowLeft",
        "congruent": true,
        "gazeTowards": true,
        "gazeCondition": "towards",
        "faceOnLeft": false,
        "impliedDirection": 180,
        "testDirection": 180,
        "avgFps": 100,
        "minFps": 99,
        "maxFps": 101,
        "totalFrames": 87,
        "frameRates": 100
      },
      {
        "trial_number": 34,
        "trial_index": 232,
        "rt": 558,
        "correct": true,
        "response": "ArrowLeft",
        "congruent": true,
        "gazeTowards": false,
        "gazeCondition": "away",
        "faceOnLeft": false,
        "impliedDirection": 180,
        "testDirection": 180,
        "avgFps": 100,
        "minFps": 99,
        "maxFps": 101,
        "totalFrames": 56,
        "frameRates": 100
      },
      {
        "trial_number": 35,
        "trial_index": 237,
        "rt": 461,
        "correct": true,
        "response": "ArrowRight",
        "congruent": false,
        "gazeTowards": true,
        "gazeCondition": "towards",
        "faceOnLeft": false,
        "impliedDirection": 180,
        "testDirection": 0,
        "avgFps": 102,
        "minFps": 99,
        "maxFps": 10000,
        "totalFrames": 47,
        "frameRates": 102
      },
      {
        "trial_number": 36,
        "trial_index": 242,
        "rt": 582,
        "correct": true,
        "response": "ArrowLeft",
        "congruent": true,
        "gazeTowards": false,
        "gazeCondition": "away",
        "faceOnLeft": false,
        "impliedDirection": 180,
        "testDirection": 180,
        "avgFps": 100,
        "minFps": 99,
        "maxFps": 101,
        "totalFrames": 58,
        "frameRates": 100
      },
      {
        "trial_number": 37,
        "trial_index": 247,
        "rt": 626,
        "correct": true,
        "response": "ArrowLeft",
        "congruent": true,
        "gazeTowards": false,
        "gazeCondition": "away",
        "faceOnLeft": false,
        "impliedDirection": 180,
        "testDirection": 180,
        "avgFps": 100,
        "minFps": 99,
        "maxFps": 101,
        "totalFrames": 63,
        "frameRates": 100
      },
      {
        "trial_number": 38,
        "trial_index": 252,
        "rt": 544,
        "correct": true,
        "response": "ArrowLeft",
        "congruent": false,
        "gazeTowards": false,
        "gazeCondition": "away",
        "faceOnLeft": true,
        "impliedDirection": 0,
        "testDirection": 180,
        "avgFps": 100,
        "minFps": 99,
        "maxFps": 101,
        "totalFrames": 54,
        "frameRates": 100
      },
      {
        "trial_number": 39,
        "trial_index": 257,
        "rt": 835,
        "correct": true,
        "response": "ArrowLeft",
        "congruent": false,
        "gazeTowards": false,
        "gazeCondition": "away",
        "faceOnLeft": true,
        "impliedDirection": 0,
        "testDirection": 180,
        "avgFps": 101,
        "minFps": 99,
        "maxFps": 6250,
        "totalFrames": 84,
        "frameRates": 101
      },
      {
        "trial_number": 40,
        "trial_index": 262,
        "rt": 713,
        "correct": true,
        "response": "ArrowLeft",
        "congruent": false,
        "gazeTowards": true,
        "gazeCondition": "towards",
        "faceOnLeft": true,
        "impliedDirection": 0,
        "testDirection": 180,
        "avgFps": 100,
        "minFps": 98,
        "maxFps": 101,
        "totalFrames": 71,
        "frameRates": 100
      },
      {
        "trial_number": 41,
        "trial_index": 267,
        "rt": 658,
        "correct": true,
        "response": "ArrowRight",
        "congruent": false,
        "gazeTowards": true,
        "gazeCondition": "towards",
        "faceOnLeft": false,
        "impliedDirection": 180,
        "testDirection": 0,
        "avgFps": 100,
        "minFps": 99,
        "maxFps": 101,
        "totalFrames": 66,
        "frameRates": 100
      },
      {
        "trial_number": 42,
        "trial_index": 272,
        "rt": 476,
        "correct": true,
        "response": "ArrowLeft",
        "congruent": false,
        "gazeTowards": true,
        "gazeCondition": "towards",
        "faceOnLeft": true,
        "impliedDirection": 0,
        "testDirection": 180,
        "avgFps": 100,
        "minFps": 99,
        "maxFps": 101,
        "totalFrames": 48,
        "frameRates": 100
      },
      {
        "trial_number": 43,
        "trial_index": 277,
        "rt": 565,
        "correct": true,
        "response": "ArrowRight",
        "congruent": true,
        "gazeTowards": true,
        "gazeCondition": "towards",
        "faceOnLeft": true,
        "impliedDirection": 0,
        "testDirection": 0,
        "avgFps": 100,
        "minFps": 99,
        "maxFps": 101,
        "totalFrames": 57,
        "frameRates": 100
      },
      {
        "trial_number": 44,
        "trial_index": 282,
        "rt": 517,
        "correct": true,
        "response": "ArrowRight",
        "congruent": false,
        "gazeTowards": false,
        "gazeCondition": "away",
        "faceOnLeft": false,
        "impliedDirection": 180,
        "testDirection": 0,
        "avgFps": 100,
        "minFps": 99,
        "maxFps": 101,
        "totalFrames": 51,
        "frameRates": 100
      },
      {
        "trial_number": 45,
        "trial_index": 287,
        "rt": 775,
        "correct": true,
        "response": "ArrowRight",
        "congruent": false,
        "gazeTowards": false,
        "gazeCondition": "away",
        "faceOnLeft": false,
        "impliedDirection": 180,
        "testDirection": 0,
        "avgFps": 100,
        "minFps": 99,
        "maxFps": 101,
        "totalFrames": 78,
        "frameRates": 100
      },
      {
        "trial_number": 46,
        "trial_index": 292,
        "rt": 485,
        "correct": true,
        "response": "ArrowLeft",
        "congruent": false,
        "gazeTowards": true,
        "gazeCondition": "towards",
        "faceOnLeft": true,
        "impliedDirection": 0,
        "testDirection": 180,
        "avgFps": 101,
        "minFps": 98,
        "maxFps": 278,
        "totalFrames": 49,
        "frameRates": 101
      },
      {
        "trial_number": 47,
        "trial_index": 297,
        "rt": 923,
        "correct": false,
        "response": "ArrowRight",
        "congruent": true,
        "gazeTowards": true,
        "gazeCondition": "towards",
        "faceOnLeft": false,
        "impliedDirection": 180,
        "testDirection": 180,
        "avgFps": 100,
        "minFps": 99,
        "maxFps": 101,
        "totalFrames": 92,
        "frameRates": 100
      },
      {
        "trial_number": 48,
        "trial_index": 302,
        "rt": 1270,
        "correct": true,
        "response": "ArrowRight",
        "congruent": true,
        "gazeTowards": true,
        "gazeCondition": "towards",
        "faceOnLeft": true,
        "impliedDirection": 0,
        "testDirection": 0,
        "avgFps": 100,
        "minFps": 98,
        "maxFps": 101,
        "totalFrames": 127,
        "frameRates": 100
      },
      {
        "trial_number": 49,
        "trial_index": 307,
        "rt": 656,
        "correct": true,
        "response": "ArrowLeft",
        "congruent": false,
        "gazeTowards": true,
        "gazeCondition": "towards",
        "faceOnLeft": true,
        "impliedDirection": 0,
        "testDirection": 180,
        "avgFps": 100,
        "minFps": 99,
        "maxFps": 101,
        "totalFrames": 66,
        "frameRates": 100
      },
      {
        "trial_number": 50,
        "trial_index": 312,
        "rt": 1240,
        "correct": false,
        "response": "ArrowRight",
        "congruent": false,
        "gazeTowards": true,
        "gazeCondition": "towards",
        "faceOnLeft": true,
        "impliedDirection": 0,
        "testDirection": 180,
        "avgFps": 100,
        "minFps": 98,
        "maxFps": 102,
        "totalFrames": 124,
        "frameRates": 100
      },
      {
        "trial_number": 51,
        "trial_index": 317,
        "rt": 731,
        "correct": true,
        "response": "ArrowLeft",
        "congruent": true,
        "gazeTowards": true,
        "gazeCondition": "towards",
        "faceOnLeft": false,
        "impliedDirection": 180,
        "testDirection": 180,
        "avgFps": 100,
        "minFps": 93,
        "maxFps": 106,
        "totalFrames": 73,
        "frameRates": 100
      },
      {
        "trial_number": 52,
        "trial_index": 322,
        "rt": 712,
        "correct": true,
        "response": "ArrowLeft",
        "congruent": false,
        "gazeTowards": false,
        "gazeCondition": "away",
        "faceOnLeft": true,
        "impliedDirection": 0,
        "testDirection": 180,
        "avgFps": 100,
        "minFps": 99,
        "maxFps": 144,
        "totalFrames": 71,
        "frameRates": 100
      },
      {
        "trial_number": 53,
        "trial_index": 327,
        "rt": 718,
        "correct": true,
        "response": "ArrowLeft",
        "congruent": false,
        "gazeTowards": false,
        "gazeCondition": "away",
        "faceOnLeft": true,
        "impliedDirection": 0,
        "testDirection": 180,
        "avgFps": 100,
        "minFps": 98,
        "maxFps": 101,
        "totalFrames": 72,
        "frameRates": 100
      },
      {
        "trial_number": 54,
        "trial_index": 332,
        "rt": 624,
        "correct": true,
        "response": "ArrowRight",
        "congruent": true,
        "gazeTowards": true,
        "gazeCondition": "towards",
        "faceOnLeft": true,
        "impliedDirection": 0,
        "testDirection": 0,
        "avgFps": 100,
        "minFps": 99,
        "maxFps": 101,
        "totalFrames": 63,
        "frameRates": 100
      },
      {
        "trial_number": 55,
        "trial_index": 340,
        "rt": 1154,
        "correct": true,
        "response": "ArrowRight",
        "congruent": false,
        "gazeTowards": true,
        "gazeCondition": "towards",
        "faceOnLeft": false,
        "impliedDirection": 180,
        "testDirection": 0,
        "avgFps": 100,
        "minFps": 99,
        "maxFps": 101,
        "totalFrames": 115,
        "frameRates": 100
      },
      {
        "trial_number": 56,
        "trial_index": 345,
        "rt": 1092,
        "correct": true,
        "response": "ArrowRight",
        "congruent": false,
        "gazeTowards": false,
        "gazeCondition": "away",
        "faceOnLeft": false,
        "impliedDirection": 180,
        "testDirection": 0,
        "avgFps": 100,
        "minFps": 99,
        "maxFps": 101,
        "totalFrames": 109,
        "frameRates": 100
      },
      {
        "trial_number": 57,
        "trial_index": 350,
        "rt": 645,
        "correct": true,
        "response": "ArrowLeft",
        "congruent": true,
        "gazeTowards": false,
        "gazeCondition": "away",
        "faceOnLeft": false,
        "impliedDirection": 180,
        "testDirection": 180,
        "avgFps": 100,
        "minFps": 99,
        "maxFps": 101,
        "totalFrames": 64,
        "frameRates": 100
      },
      {
        "trial_number": 58,
        "trial_index": 355,
        "rt": 667,
        "correct": true,
        "response": "ArrowRight",
        "congruent": true,
        "gazeTowards": false,
        "gazeCondition": "away",
        "faceOnLeft": true,
        "impliedDirection": 0,
        "testDirection": 0,
        "avgFps": 100,
        "minFps": 99,
        "maxFps": 101,
        "totalFrames": 67,
        "frameRates": 100
      },
      {
        "trial_number": 59,
        "trial_index": 360,
        "rt": 498,
        "correct": true,
        "response": "ArrowRight",
        "congruent": true,
        "gazeTowards": false,
        "gazeCondition": "away",
        "faceOnLeft": true,
        "impliedDirection": 0,
        "testDirection": 0,
        "avgFps": 101,
        "minFps": 99,
        "maxFps": 278,
        "totalFrames": 50,
        "frameRates": 101
      },
      {
        "trial_number": 60,
        "trial_index": 365,
        "rt": 543,
        "correct": true,
        "response": "ArrowRight",
        "congruent": false,
        "gazeTowards": false,
        "gazeCondition": "away",
        "faceOnLeft": false,
        "impliedDirection": 180,
        "testDirection": 0,
        "avgFps": 100,
        "minFps": 99,
        "maxFps": 101,
        "totalFrames": 54,
        "frameRates": 100
      },
      {
        "trial_number": 61,
        "trial_index": 371,
        "rt": 589,
        "correct": true,
        "response": "ArrowLeft",
        "congruent": true,
        "gazeTowards": true,
        "gazeCondition": "towards",
        "faceOnLeft": false,
        "impliedDirection": 180,
        "testDirection": 180,
        "avgFps": 100,
        "minFps": 99,
        "maxFps": 101,
        "totalFrames": 59,
        "frameRates": 100
      },
      {
        "trial_number": 62,
        "trial_index": 376,
        "rt": 1598,
        "correct": true,
        "response": "ArrowLeft",
        "congruent": false,
        "gazeTowards": true,
        "gazeCondition": "towards",
        "faceOnLeft": true,
        "impliedDirection": 0,
        "testDirection": 180,
        "avgFps": 100,
        "minFps": 99,
        "maxFps": 101,
        "totalFrames": 160,
        "frameRates": 100
      },
      {
        "trial_number": 63,
        "trial_index": 381,
        "rt": 765,
        "correct": true,
        "response": "ArrowRight",
        "congruent": true,
        "gazeTowards": true,
        "gazeCondition": "towards",
        "faceOnLeft": true,
        "impliedDirection": 0,
        "testDirection": 0,
        "avgFps": 100,
        "minFps": 99,
        "maxFps": 101,
        "totalFrames": 77,
        "frameRates": 100
      },
      {
        "trial_number": 64,
        "trial_index": 386,
        "rt": 1173,
        "correct": true,
        "response": "ArrowRight",
        "congruent": false,
        "gazeTowards": false,
        "gazeCondition": "away",
        "faceOnLeft": false,
        "impliedDirection": 180,
        "testDirection": 0,
        "avgFps": 100,
        "minFps": 98,
        "maxFps": 101,
        "totalFrames": 118,
        "frameRates": 100
      },
      {
        "trial_number": 65,
        "trial_index": 391,
        "rt": 1173,
        "correct": true,
        "response": "ArrowRight",
        "congruent": false,
        "gazeTowards": false,
        "gazeCondition": "away",
        "faceOnLeft": false,
        "impliedDirection": 180,
        "testDirection": 0,
        "avgFps": 101,
        "minFps": 99,
        "maxFps": 278,
        "totalFrames": 118,
        "frameRates": 101
      },
      {
        "trial_number": 66,
        "trial_index": 396,
        "rt": 1744,
        "correct": false,
        "response": "ArrowRight",
        "congruent": true,
        "gazeTowards": true,
        "gazeCondition": "towards",
        "faceOnLeft": false,
        "impliedDirection": 180,
        "testDirection": 180,
        "avgFps": 100,
        "minFps": 99,
        "maxFps": 101,
        "totalFrames": 174,
        "frameRates": 100
      },
      {
        "trial_number": 67,
        "trial_index": 401,
        "rt": 1161,
        "correct": true,
        "response": "ArrowLeft",
        "congruent": true,
        "gazeTowards": false,
        "gazeCondition": "away",
        "faceOnLeft": false,
        "impliedDirection": 180,
        "testDirection": 180,
        "avgFps": 100,
        "minFps": 99,
        "maxFps": 101,
        "totalFrames": 116,
        "frameRates": 100
      },
      {
        "trial_number": 68,
        "trial_index": 406,
        "rt": 800,
        "correct": true,
        "response": "ArrowLeft",
        "congruent": false,
        "gazeTowards": true,
        "gazeCondition": "towards",
        "faceOnLeft": true,
        "impliedDirection": 0,
        "testDirection": 180,
        "avgFps": 100,
        "minFps": 99,
        "maxFps": 101,
        "totalFrames": 80,
        "frameRates": 100
      },
      {
        "trial_number": 69,
        "trial_index": 411,
        "rt": 1052,
        "correct": false,
        "response": "ArrowRight",
        "congruent": false,
        "gazeTowards": false,
        "gazeCondition": "away",
        "faceOnLeft": true,
        "impliedDirection": 0,
        "testDirection": 180,
        "avgFps": 100,
        "minFps": 99,
        "maxFps": 101,
        "totalFrames": 105,
        "frameRates": 100
      },
      {
        "trial_number": 70,
        "trial_index": 416,
        "rt": 728,
        "correct": true,
        "response": "ArrowLeft",
        "congruent": false,
        "gazeTowards": false,
        "gazeCondition": "away",
        "faceOnLeft": true,
        "impliedDirection": 0,
        "testDirection": 180,
        "avgFps": 100,
        "minFps": 99,
        "maxFps": 101,
        "totalFrames": 72,
        "frameRates": 100
      },
      {
        "trial_number": 71,
        "trial_index": 421,
        "rt": 621,
        "correct": true,
        "response": "ArrowRight",
        "congruent": false,
        "gazeTowards": false,
        "gazeCondition": "away",
        "faceOnLeft": false,
        "impliedDirection": 180,
        "testDirection": 0,
        "avgFps": 100,
        "minFps": 99,
        "maxFps": 101,
        "totalFrames": 62,
        "frameRates": 100
      },
      {
        "trial_number": 72,
        "trial_index": 426,
        "rt": 637,
        "correct": true,
        "response": "ArrowRight",
        "congruent": true,
        "gazeTowards": true,
        "gazeCondition": "towards",
        "faceOnLeft": true,
        "impliedDirection": 0,
        "testDirection": 0,
        "avgFps": 100,
        "minFps": 99,
        "maxFps": 101,
        "totalFrames": 64,
        "frameRates": 100
      },
      {
        "trial_number": 73,
        "trial_index": 431,
        "rt": 695,
        "correct": true,
        "response": "ArrowLeft",
        "congruent": false,
        "gazeTowards": false,
        "gazeCondition": "away",
        "faceOnLeft": true,
        "impliedDirection": 0,
        "testDirection": 180,
        "avgFps": 100,
        "minFps": 99,
        "maxFps": 101,
        "totalFrames": 69,
        "frameRates": 100
      },
      {
        "trial_number": 74,
        "trial_index": 436,
        "rt": 710,
        "correct": true,
        "response": "ArrowLeft",
        "congruent": false,
        "gazeTowards": true,
        "gazeCondition": "towards",
        "faceOnLeft": true,
        "impliedDirection": 0,
        "testDirection": 180,
        "avgFps": 100,
        "minFps": 99,
        "maxFps": 101,
        "totalFrames": 71,
        "frameRates": 100
      },
      {
        "trial_number": 75,
        "trial_index": 444,
        "rt": 549,
        "correct": true,
        "response": "ArrowRight",
        "congruent": true,
        "gazeTowards": false,
        "gazeCondition": "away",
        "faceOnLeft": true,
        "impliedDirection": 0,
        "testDirection": 0,
        "avgFps": 100,
        "minFps": 99,
        "maxFps": 101,
        "totalFrames": 55,
        "frameRates": 100
      },
      {
        "trial_number": 76,
        "trial_index": 449,
        "rt": 722,
        "correct": true,
        "response": "ArrowRight",
        "congruent": false,
        "gazeTowards": true,
        "gazeCondition": "towards",
        "faceOnLeft": false,
        "impliedDirection": 180,
        "testDirection": 0,
        "avgFps": 100,
        "minFps": 99,
        "maxFps": 101,
        "totalFrames": 72,
        "frameRates": 100
      },
      {
        "trial_number": 77,
        "trial_index": 454,
        "rt": 1117,
        "correct": true,
        "response": "ArrowLeft",
        "congruent": true,
        "gazeTowards": false,
        "gazeCondition": "away",
        "faceOnLeft": false,
        "impliedDirection": 180,
        "testDirection": 180,
        "avgFps": 100,
        "minFps": 99,
        "maxFps": 101,
        "totalFrames": 112,
        "frameRates": 100
      },
      {
        "trial_number": 78,
        "trial_index": 459,
        "rt": null,
        "correct": false,
        "response": null,
        "congruent": false,
        "gazeTowards": true,
        "gazeCondition": "towards",
        "faceOnLeft": true,
        "impliedDirection": 0,
        "testDirection": 180,
        "avgFps": 100,
        "minFps": 98,
        "maxFps": 101,
        "totalFrames": 200,
        "frameRates": 100
      },
      {
        "trial_number": 79,
        "trial_index": 464,
        "rt": 955,
        "correct": true,
        "response": "ArrowLeft",
        "congruent": false,
        "gazeTowards": false,
        "gazeCondition": "away",
        "faceOnLeft": true,
        "impliedDirection": 0,
        "testDirection": 180,
        "avgFps": 100,
        "minFps": 99,
        "maxFps": 101,
        "totalFrames": 95,
        "frameRates": 100
      },
      {
        "trial_number": 80,
        "trial_index": 469,
        "rt": 1050,
        "correct": true,
        "response": "ArrowLeft",
        "congruent": true,
        "gazeTowards": true,
        "gazeCondition": "towards",
        "faceOnLeft": false,
        "impliedDirection": 180,
        "testDirection": 180,
        "avgFps": 100,
        "minFps": 99,
        "maxFps": 101,
        "totalFrames": 105,
        "frameRates": 100
      },
      {
        "trial_number": 81,
        "trial_index": 474,
        "rt": 753,
        "correct": true,
        "response": "ArrowRight",
        "congruent": true,
        "gazeTowards": false,
        "gazeCondition": "away",
        "faceOnLeft": true,
        "impliedDirection": 0,
        "testDirection": 0,
        "avgFps": 100,
        "minFps": 99,
        "maxFps": 145,
        "totalFrames": 75,
        "frameRates": 100
      },
      {
        "trial_number": 82,
        "trial_index": 479,
        "rt": 1608,
        "correct": false,
        "response": "ArrowRight",
        "congruent": false,
        "gazeTowards": false,
        "gazeCondition": "away",
        "faceOnLeft": true,
        "impliedDirection": 0,
        "testDirection": 180,
        "avgFps": 100,
        "minFps": 99,
        "maxFps": 101,
        "totalFrames": 161,
        "frameRates": 100
      },
      {
        "trial_number": 83,
        "trial_index": 484,
        "rt": 636,
        "correct": true,
        "response": "ArrowRight",
        "congruent": false,
        "gazeTowards": false,
        "gazeCondition": "away",
        "faceOnLeft": false,
        "impliedDirection": 180,
        "testDirection": 0,
        "avgFps": 100,
        "minFps": 99,
        "maxFps": 101,
        "totalFrames": 64,
        "frameRates": 100
      },
      {
        "trial_number": 84,
        "trial_index": 489,
        "rt": 435,
        "correct": true,
        "response": "ArrowLeft",
        "congruent": true,
        "gazeTowards": true,
        "gazeCondition": "towards",
        "faceOnLeft": false,
        "impliedDirection": 180,
        "testDirection": 180,
        "avgFps": 101,
        "minFps": 99,
        "maxFps": 286,
        "totalFrames": 44,
        "frameRates": 101
      },
      {
        "trial_number": 85,
        "trial_index": 500,
        "rt": 571,
        "correct": true,
        "response": "ArrowRight",
        "congruent": false,
        "gazeTowards": false,
        "gazeCondition": "away",
        "faceOnLeft": false,
        "impliedDirection": 180,
        "testDirection": 0,
        "avgFps": 100,
        "minFps": 99,
        "maxFps": 101,
        "totalFrames": 57,
        "frameRates": 100
      },
      {
        "trial_number": 86,
        "trial_index": 505,
        "rt": 704,
        "correct": true,
        "response": "ArrowLeft",
        "congruent": false,
        "gazeTowards": false,
        "gazeCondition": "away",
        "faceOnLeft": true,
        "impliedDirection": 0,
        "testDirection": 180,
        "avgFps": 100,
        "minFps": 99,
        "maxFps": 101,
        "totalFrames": 70,
        "frameRates": 100
      },
      {
        "trial_number": 87,
        "trial_index": 510,
        "rt": 531,
        "correct": true,
        "response": "ArrowRight",
        "congruent": true,
        "gazeTowards": true,
        "gazeCondition": "towards",
        "faceOnLeft": true,
        "impliedDirection": 0,
        "testDirection": 0,
        "avgFps": 100,
        "minFps": 99,
        "maxFps": 101,
        "totalFrames": 53,
        "frameRates": 100
      },
      {
        "trial_number": 88,
        "trial_index": 515,
        "rt": 646,
        "correct": true,
        "response": "ArrowLeft",
        "congruent": false,
        "gazeTowards": false,
        "gazeCondition": "away",
        "faceOnLeft": true,
        "impliedDirection": 0,
        "testDirection": 180,
        "avgFps": 100,
        "minFps": 99,
        "maxFps": 101,
        "totalFrames": 64,
        "frameRates": 100
      },
      {
        "trial_number": 89,
        "trial_index": 520,
        "rt": 536,
        "correct": true,
        "response": "ArrowRight",
        "congruent": false,
        "gazeTowards": true,
        "gazeCondition": "towards",
        "faceOnLeft": false,
        "impliedDirection": 180,
        "testDirection": 0,
        "avgFps": 100,
        "minFps": 99,
        "maxFps": 101,
        "totalFrames": 53,
        "frameRates": 100
      },
      {
        "trial_number": 90,
        "trial_index": 525,
        "rt": 889,
        "correct": true,
        "response": "ArrowRight",
        "congruent": false,
        "gazeTowards": true,
        "gazeCondition": "towards",
        "faceOnLeft": false,
        "impliedDirection": 180,
        "testDirection": 0,
        "avgFps": 100,
        "minFps": 99,
        "maxFps": 101,
        "totalFrames": 89,
        "frameRates": 100
      },
      {
        "trial_number": 91,
        "trial_index": 537,
        "rt": 615,
        "correct": true,
        "response": "ArrowLeft",
        "congruent": true,
        "gazeTowards": false,
        "gazeCondition": "away",
        "faceOnLeft": false,
        "impliedDirection": 180,
        "testDirection": 180,
        "avgFps": 100,
        "minFps": 97,
        "maxFps": 103,
        "totalFrames": 61,
        "frameRates": 100
      },
      {
        "trial_number": 92,
        "trial_index": 542,
        "rt": 487,
        "correct": true,
        "response": "ArrowRight",
        "congruent": true,
        "gazeTowards": true,
        "gazeCondition": "towards",
        "faceOnLeft": true,
        "impliedDirection": 0,
        "testDirection": 0,
        "avgFps": 101,
        "minFps": 99,
        "maxFps": 281,
        "totalFrames": 49,
        "frameRates": 101
      },
      {
        "trial_number": 93,
        "trial_index": 547,
        "rt": 858,
        "correct": true,
        "response": "ArrowRight",
        "congruent": false,
        "gazeTowards": false,
        "gazeCondition": "away",
        "faceOnLeft": false,
        "impliedDirection": 180,
        "testDirection": 0,
        "avgFps": 100,
        "minFps": 99,
        "maxFps": 101,
        "totalFrames": 86,
        "frameRates": 100
      },
      {
        "trial_number": 94,
        "trial_index": 552,
        "rt": 568,
        "correct": true,
        "response": "ArrowRight",
        "congruent": true,
        "gazeTowards": false,
        "gazeCondition": "away",
        "faceOnLeft": true,
        "impliedDirection": 0,
        "testDirection": 0,
        "avgFps": 100,
        "minFps": 99,
        "maxFps": 101,
        "totalFrames": 57,
        "frameRates": 100
      },
      {
        "trial_number": 95,
        "trial_index": 557,
        "rt": 783,
        "correct": true,
        "response": "ArrowRight",
        "congruent": false,
        "gazeTowards": true,
        "gazeCondition": "towards",
        "faceOnLeft": false,
        "impliedDirection": 180,
        "testDirection": 0,
        "avgFps": 100,
        "minFps": 99,
        "maxFps": 101,
        "totalFrames": 79,
        "frameRates": 100
      },
      {
        "trial_number": 96,
        "trial_index": 562,
        "rt": 574,
        "correct": true,
        "response": "ArrowLeft",
        "congruent": false,
        "gazeTowards": true,
        "gazeCondition": "towards",
        "faceOnLeft": true,
        "impliedDirection": 0,
        "testDirection": 180,
        "avgFps": 100,
        "minFps": 99,
        "maxFps": 101,
        "totalFrames": 57,
        "frameRates": 100
      },
      {
        "trial_number": 97,
        "trial_index": 567,
        "rt": 699,
        "correct": true,
        "response": "ArrowRight",
        "congruent": true,
        "gazeTowards": false,
        "gazeCondition": "away",
        "faceOnLeft": true,
        "impliedDirection": 0,
        "testDirection": 0,
        "avgFps": 100,
        "minFps": 99,
        "maxFps": 101,
        "totalFrames": 70,
        "frameRates": 100
      },
      {
        "trial_number": 98,
        "trial_index": 572,
        "rt": 697,
        "correct": true,
        "response": "ArrowLeft",
        "congruent": true,
        "gazeTowards": true,
        "gazeCondition": "towards",
        "faceOnLeft": false,
        "impliedDirection": 180,
        "testDirection": 180,
        "avgFps": 100,
        "minFps": 99,
        "maxFps": 101,
        "totalFrames": 70,
        "frameRates": 100
      },
      {
        "trial_number": 99,
        "trial_index": 577,
        "rt": 471,
        "correct": true,
        "response": "ArrowRight",
        "congruent": true,
        "gazeTowards": false,
        "gazeCondition": "away",
        "faceOnLeft": true,
        "impliedDirection": 0,
        "testDirection": 0,
        "avgFps": 100,
        "minFps": 99,
        "maxFps": 101,
        "totalFrames": 47,
        "frameRates": 100
      },
      {
        "trial_number": 100,
        "trial_index": 582,
        "rt": 541,
        "correct": true,
        "response": "ArrowRight",
        "congruent": true,
        "gazeTowards": false,
        "gazeCondition": "away",
        "faceOnLeft": true,
        "impliedDirection": 0,
        "testDirection": 0,
        "avgFps": 102,
        "minFps": 99,
        "maxFps": null,
        "totalFrames": 55,
        "frameRates": 102
      },
      {
        "trial_number": 101,
        "trial_index": 590,
        "rt": 459,
        "correct": true,
        "response": "ArrowLeft",
        "congruent": true,
        "gazeTowards": false,
        "gazeCondition": "away",
        "faceOnLeft": false,
        "impliedDirection": 180,
        "testDirection": 180,
        "avgFps": 100,
        "minFps": 99,
        "maxFps": 101,
        "totalFrames": 46,
        "frameRates": 100
      },
      {
        "trial_number": 102,
        "trial_index": 595,
        "rt": 568,
        "correct": true,
        "response": "ArrowRight",
        "congruent": true,
        "gazeTowards": false,
        "gazeCondition": "away",
        "faceOnLeft": true,
        "impliedDirection": 0,
        "testDirection": 0,
        "avgFps": 100,
        "minFps": 99,
        "maxFps": 101,
        "totalFrames": 56,
        "frameRates": 100
      },
      {
        "trial_number": 103,
        "trial_index": 600,
        "rt": 738,
        "correct": true,
        "response": "ArrowRight",
        "congruent": false,
        "gazeTowards": true,
        "gazeCondition": "towards",
        "faceOnLeft": false,
        "impliedDirection": 180,
        "testDirection": 0,
        "avgFps": 101,
        "minFps": 99,
        "maxFps": 286,
        "totalFrames": 74,
        "frameRates": 101
      },
      {
        "trial_number": 104,
        "trial_index": 605,
        "rt": 1163,
        "correct": true,
        "response": "ArrowRight",
        "congruent": true,
        "gazeTowards": false,
        "gazeCondition": "away",
        "faceOnLeft": true,
        "impliedDirection": 0,
        "testDirection": 0,
        "avgFps": 100,
        "minFps": 99,
        "maxFps": 101,
        "totalFrames": 116,
        "frameRates": 100
      },
      {
        "trial_number": 105,
        "trial_index": 610,
        "rt": 508,
        "correct": true,
        "response": "ArrowLeft",
        "congruent": true,
        "gazeTowards": true,
        "gazeCondition": "towards",
        "faceOnLeft": false,
        "impliedDirection": 180,
        "testDirection": 180,
        "avgFps": 100,
        "minFps": 99,
        "maxFps": 101,
        "totalFrames": 50,
        "frameRates": 100
      },
      {
        "trial_number": 106,
        "trial_index": 615,
        "rt": 552,
        "correct": true,
        "response": "ArrowRight",
        "congruent": false,
        "gazeTowards": true,
        "gazeCondition": "towards",
        "faceOnLeft": false,
        "impliedDirection": 180,
        "testDirection": 0,
        "avgFps": 100,
        "minFps": 99,
        "maxFps": 101,
        "totalFrames": 55,
        "frameRates": 100
      },
      {
        "trial_number": 107,
        "trial_index": 620,
        "rt": 633,
        "correct": true,
        "response": "ArrowRight",
        "congruent": false,
        "gazeTowards": true,
        "gazeCondition": "towards",
        "faceOnLeft": false,
        "impliedDirection": 180,
        "testDirection": 0,
        "avgFps": 100,
        "minFps": 99,
        "maxFps": 101,
        "totalFrames": 63,
        "frameRates": 100
      },
      {
        "trial_number": 108,
        "trial_index": 625,
        "rt": 525,
        "correct": true,
        "response": "ArrowRight",
        "congruent": true,
        "gazeTowards": true,
        "gazeCondition": "towards",
        "faceOnLeft": true,
        "impliedDirection": 0,
        "testDirection": 0,
        "avgFps": 100,
        "minFps": 99,
        "maxFps": 101,
        "totalFrames": 53,
        "frameRates": 100
      },
      {
        "trial_number": 109,
        "trial_index": 633,
        "rt": 713,
        "correct": true,
        "response": "ArrowRight",
        "congruent": true,
        "gazeTowards": false,
        "gazeCondition": "away",
        "faceOnLeft": true,
        "impliedDirection": 0,
        "testDirection": 0,
        "avgFps": 100,
        "minFps": 99,
        "maxFps": 101,
        "totalFrames": 71,
        "frameRates": 100
      },
      {
        "trial_number": 110,
        "trial_index": 638,
        "rt": 527,
        "correct": true,
        "response": "ArrowLeft",
        "congruent": true,
        "gazeTowards": true,
        "gazeCondition": "towards",
        "faceOnLeft": false,
        "impliedDirection": 180,
        "testDirection": 180,
        "avgFps": 100,
        "minFps": 99,
        "maxFps": 101,
        "totalFrames": 53,
        "frameRates": 100
      },
      {
        "trial_number": 111,
        "trial_index": 643,
        "rt": 590,
        "correct": true,
        "response": "ArrowLeft",
        "congruent": true,
        "gazeTowards": false,
        "gazeCondition": "away",
        "faceOnLeft": false,
        "impliedDirection": 180,
        "testDirection": 180,
        "avgFps": 100,
        "minFps": 99,
        "maxFps": 101,
        "totalFrames": 59,
        "frameRates": 100
      },
      {
        "trial_number": 112,
        "trial_index": 648,
        "rt": 608,
        "correct": true,
        "response": "ArrowRight",
        "congruent": true,
        "gazeTowards": true,
        "gazeCondition": "towards",
        "faceOnLeft": true,
        "impliedDirection": 0,
        "testDirection": 0,
        "avgFps": 100,
        "minFps": 99,
        "maxFps": 101,
        "totalFrames": 61,
        "frameRates": 100
      },
      {
        "trial_number": 113,
        "trial_index": 653,
        "rt": 558,
        "correct": true,
        "response": "ArrowRight",
        "congruent": true,
        "gazeTowards": false,
        "gazeCondition": "away",
        "faceOnLeft": true,
        "impliedDirection": 0,
        "testDirection": 0,
        "avgFps": 100,
        "minFps": 93,
        "maxFps": 106,
        "totalFrames": 56,
        "frameRates": 100
      },
      {
        "trial_number": 114,
        "trial_index": 658,
        "rt": 574,
        "correct": true,
        "response": "ArrowLeft",
        "congruent": false,
        "gazeTowards": false,
        "gazeCondition": "away",
        "faceOnLeft": true,
        "impliedDirection": 0,
        "testDirection": 180,
        "avgFps": 100,
        "minFps": 99,
        "maxFps": 101,
        "totalFrames": 57,
        "frameRates": 100
      },
      {
        "trial_number": 115,
        "trial_index": 663,
        "rt": 469,
        "correct": true,
        "response": "ArrowLeft",
        "congruent": true,
        "gazeTowards": false,
        "gazeCondition": "away",
        "faceOnLeft": false,
        "impliedDirection": 180,
        "testDirection": 180,
        "avgFps": 100,
        "minFps": 99,
        "maxFps": 101,
        "totalFrames": 47,
        "frameRates": 100
      },
      {
        "trial_number": 116,
        "trial_index": 668,
        "rt": 781,
        "correct": true,
        "response": "ArrowRight",
        "congruent": false,
        "gazeTowards": true,
        "gazeCondition": "towards",
        "faceOnLeft": false,
        "impliedDirection": 180,
        "testDirection": 0,
        "avgFps": 101,
        "minFps": 99,
        "maxFps": 295,
        "totalFrames": 78,
        "frameRates": 101
      },
      {
        "trial_number": 117,
        "trial_index": 673,
        "rt": 956,
        "correct": true,
        "response": "ArrowRight",
        "congruent": false,
        "gazeTowards": true,
        "gazeCondition": "towards",
        "faceOnLeft": false,
        "impliedDirection": 180,
        "testDirection": 0,
        "avgFps": 100,
        "minFps": 99,
        "maxFps": 101,
        "totalFrames": 95,
        "frameRates": 100
      },
      {
        "trial_number": 118,
        "trial_index": 678,
        "rt": 714,
        "correct": true,
        "response": "ArrowLeft",
        "congruent": true,
        "gazeTowards": true,
        "gazeCondition": "towards",
        "faceOnLeft": false,
        "impliedDirection": 180,
        "testDirection": 180,
        "avgFps": 100,
        "minFps": 99,
        "maxFps": 101,
        "totalFrames": 71,
        "frameRates": 100
      },
      {
        "trial_number": 119,
        "trial_index": 683,
        "rt": 547,
        "correct": true,
        "response": "ArrowRight",
        "congruent": true,
        "gazeTowards": true,
        "gazeCondition": "towards",
        "faceOnLeft": true,
        "impliedDirection": 0,
        "testDirection": 0,
        "avgFps": 100,
        "minFps": 99,
        "maxFps": 101,
        "totalFrames": 54,
        "frameRates": 100
      }
    ],
    "catch": {
      "total": 12,
      "correct": 12,
      "accuracy": 100,
      "meanRT": 600,
      "trials": [
        {
          "trial_number": 0,
          "trial_index": 68,
          "rt": 643,
          "correct": true,
          "colorTarget": "tree",
          "gazeTowards": true,
          "gazeCondition": "towards",
          "faceOnLeft": false
        },
        {
          "trial_number": 1,
          "trial_index": 121,
          "rt": 468,
          "correct": true,
          "colorTarget": "face",
          "gazeTowards": false,
          "gazeCondition": "away",
          "faceOnLeft": true
        },
        {
          "trial_number": 2,
          "trial_index": 149,
          "rt": 610,
          "correct": true,
          "colorTarget": "tree",
          "gazeTowards": true,
          "gazeCondition": "towards",
          "faceOnLeft": true
        },
        {
          "trial_number": 3,
          "trial_index": 213,
          "rt": 388,
          "correct": true,
          "colorTarget": "face",
          "gazeTowards": true,
          "gazeCondition": "towards",
          "faceOnLeft": false
        },
        {
          "trial_number": 4,
          "trial_index": 336,
          "rt": 742,
          "correct": true,
          "colorTarget": "tree",
          "gazeTowards": false,
          "gazeCondition": "away",
          "faceOnLeft": true
        },
        {
          "trial_number": 5,
          "trial_index": 440,
          "rt": 698,
          "correct": true,
          "colorTarget": "face",
          "gazeTowards": true,
          "gazeCondition": "towards",
          "faceOnLeft": false
        },
        {
          "trial_number": 6,
          "trial_index": 493,
          "rt": 657,
          "correct": true,
          "colorTarget": "tree",
          "gazeTowards": true,
          "gazeCondition": "towards",
          "faceOnLeft": true
        },
        {
          "trial_number": 7,
          "trial_index": 496,
          "rt": 534,
          "correct": true,
          "colorTarget": "tree",
          "gazeTowards": false,
          "gazeCondition": "away",
          "faceOnLeft": true
        },
        {
          "trial_number": 8,
          "trial_index": 530,
          "rt": 690,
          "correct": true,
          "colorTarget": "face",
          "gazeTowards": true,
          "gazeCondition": "towards",
          "faceOnLeft": false
        },
        {
          "trial_number": 9,
          "trial_index": 533,
          "rt": 485,
          "correct": true,
          "colorTarget": "face",
          "gazeTowards": false,
          "gazeCondition": "away",
          "faceOnLeft": true
        },
        {
          "trial_number": 10,
          "trial_index": 586,
          "rt": 682,
          "correct": true,
          "colorTarget": "face",
          "gazeTowards": false,
          "gazeCondition": "away",
          "faceOnLeft": true
        },
        {
          "trial_number": 11,
          "trial_index": 629,
          "rt": 598,
          "correct": true,
          "colorTarget": "tree",
          "gazeTowards": false,
          "gazeCondition": "away",
          "faceOnLeft": true
        }
      ]
    },
    "practice": {
      "trials": [
        {
          "trial_number": 0,
          "rt": null,
          "correct": false,
          "direction": 0
        },
        {
          "trial_number": 1,
          "rt": 622,
          "correct": true,
          "direction": 180
        },
        {
          "trial_number": 2,
          "rt": 631,
          "correct": true,
          "direction": 0
        },
        {
          "trial_number": 3,
          "rt": 889,
          "correct": true,
          "direction": 0
        },
        {
          "trial_number": 4,
          "rt": 578,
          "correct": true,
          "direction": 0
        },
        {
          "trial_number": 5,
          "rt": 815,
          "correct": true,
          "direction": 0
        },
        {
          "trial_number": 6,
          "rt": 978,
          "correct": true,
          "direction": 0
        },
        {
          "trial_number": 7,
          "rt": 518,
          "correct": true,
          "direction": 180
        },
        {
          "trial_number": 8,
          "rt": 521,
          "correct": true,
          "direction": 0
        },
        {
          "trial_number": 9,
          "rt": 471,
          "correct": true,
          "direction": 180
        }
      ],
      "meanRT": 669,
      "accuracy": 90
    }
  }
}