{
  "experiment": "rdk-face-1",
  "UUID": "b12fff4b-e358-4765-b562-4704a88b6133",
  "data": {
    "session": {
      "experiment_version": "1.8.6",
      "treatment": "faces_towards_away_catch",
      "file_version": "1.8.6",
      "totalTrials": 120,
      "totalTrialsIncludingCatch": 132,
      "conditions": {
        "gazeTowardsCount": 60,
        "gazeAwayCount": 60,
        "gazeTowardsAccuracy": 97,
        "gazeAwayAccuracy": 98
      },
      "session_group": "default",
      "browserData": {
        "os": "Mac",
        "browser": "Chrome",
        "screenResolution": "1680x1050",
        "browserViewport": "1680x1050",
        "devicePixelRatio": 2,
        "colorDepth": 24,
        "hardwareConcurrency": 2,
        "deviceMemory": 8,
        "gpuRenderer": "ANGLE (Intel Inc., Intel HD Graphics 4000 OpenGL Engine, OpenGL 4.1)",
        "measuredRefreshRateHz": 59
      },
      "attention": {
        "visibilityEvents": [
          {
            "event": "blur",
            "state": "blurred",
            "timestamp": 1772773321478
          },
          {
            "event": "visibilitychange",
            "state": "hidden",
            "timestamp": 1772773321480
          },
          {
            "event": "visibilitychange",
            "state": "visible",
            "timestamp": 1772773327560
          },
          {
            "event": "focus",
            "state": "focused",
            "timestamp": 1772773327571
          }
        ]
      },
      "calibration": {
        "monitorWidthCm": 38,
        "viewingDistanceCm": 54,
        "pixelsPerDegree": 50
      },
      "parameters": {
        "coherence": 0.4,
        "apertureDeg": 5,
        "densityDotsPerDeg2": 40,
        "dotDiameterDeg": 0.035,
        "dotSpeedDegPerSec": 3,
        "lifetimeMs": 200,
        "fixationDurationMs": 1500,
        "faceDurationMs": 1500,
        "testDurationMs": 2000,
        "catchResponseMs": 3000
      },
      "prolific": {
        "prolificPid": "694670c95d97b634f9e9b205",
        "studyId": "",
        "sessionId": ""
      },
      "timing": {
        "startTime": "2026-03-06T05:01:57.423Z",
        "endTime": "2026-03-06T05:18:17.402Z",
        "totalElapsedTimeMs": 979979
      }
    },
    "trials": [
      {
        "trial_number": 0,
        "trial_index": 49,
        "rt": 1228,
        "correct": true,
        "response": "ArrowLeft",
        "congruent": true,
        "gazeTowards": true,
        "gazeCondition": "towards",
        "faceOnLeft": false,
        "impliedDirection": 180,
        "testDirection": 180,
        "avgFps": 60,
        "minFps": 45,
        "maxFps": 64,
        "totalFrames": 73,
        "frameRates": 60
      },
      {
        "trial_number": 1,
        "trial_index": 54,
        "rt": 1128,
        "correct": true,
        "response": "ArrowLeft",
        "congruent": true,
        "gazeTowards": false,
        "gazeCondition": "away",
        "faceOnLeft": false,
        "impliedDirection": 180,
        "testDirection": 180,
        "avgFps": 60,
        "minFps": 56,
        "maxFps": 63,
        "totalFrames": 67,
        "frameRates": 60
      },
      {
        "trial_number": 2,
        "trial_index": 59,
        "rt": 1175,
        "correct": true,
        "response": "ArrowRight",
        "congruent": true,
        "gazeTowards": true,
        "gazeCondition": "towards",
        "faceOnLeft": true,
        "impliedDirection": 0,
        "testDirection": 0,
        "avgFps": 60,
        "minFps": 56,
        "maxFps": 63,
        "totalFrames": 70,
        "frameRates": 60
      },
      {
        "trial_number": 3,
        "trial_index": 67,
        "rt": 1215,
        "correct": true,
        "response": "ArrowLeft",
        "congruent": true,
        "gazeTowards": false,
        "gazeCondition": "away",
        "faceOnLeft": false,
        "impliedDirection": 180,
        "testDirection": 180,
        "avgFps": 59,
        "minFps": 37,
        "maxFps": 64,
        "totalFrames": 72,
        "frameRates": 59
      },
      {
        "trial_number": 4,
        "trial_index": 72,
        "rt": 1119,
        "correct": true,
        "response": "ArrowLeft",
        "congruent": false,
        "gazeTowards": true,
        "gazeCondition": "towards",
        "faceOnLeft": true,
        "impliedDirection": 0,
        "testDirection": 180,
        "avgFps": 60,
        "minFps": 56,
        "maxFps": 64,
        "totalFrames": 67,
        "frameRates": 60
      },
      {
        "trial_number": 5,
        "trial_index": 77,
        "rt": 1308,
        "correct": true,
        "response": "ArrowRight",
        "congruent": false,
        "gazeTowards": true,
        "gazeCondition": "towards",
        "faceOnLeft": false,
        "impliedDirection": 180,
        "testDirection": 0,
        "avgFps": 59,
        "minFps": 29,
        "maxFps": 63,
        "totalFrames": 77,
        "frameRates": 59
      },
      {
        "trial_number": 6,
        "trial_index": 85,
        "rt": 1000,
        "correct": true,
        "response": "ArrowLeft",
        "congruent": false,
        "gazeTowards": true,
        "gazeCondition": "towards",
        "faceOnLeft": true,
        "impliedDirection": 0,
        "testDirection": 180,
        "avgFps": 59,
        "minFps": 33,
        "maxFps": 64,
        "totalFrames": 59,
        "frameRates": 59
      },
      {
        "trial_number": 7,
        "trial_index": 93,
        "rt": 1590,
        "correct": true,
        "response": "ArrowLeft",
        "congruent": true,
        "gazeTowards": false,
        "gazeCondition": "away",
        "faceOnLeft": false,
        "impliedDirection": 180,
        "testDirection": 180,
        "avgFps": 60,
        "minFps": 56,
        "maxFps": 63,
        "totalFrames": 95,
        "frameRates": 60
      },
      {
        "trial_number": 8,
        "trial_index": 98,
        "rt": null,
        "correct": false,
        "response": null,
        "congruent": false,
        "gazeTowards": true,
        "gazeCondition": "towards",
        "faceOnLeft": false,
        "impliedDirection": 180,
        "testDirection": 0,
        "avgFps": 60,
        "minFps": 56,
        "maxFps": 64,
        "totalFrames": 119,
        "frameRates": 60
      },
      {
        "trial_number": 9,
        "trial_index": 103,
        "rt": 1234,
        "correct": true,
        "response": "ArrowLeft",
        "congruent": false,
        "gazeTowards": false,
        "gazeCondition": "away",
        "faceOnLeft": true,
        "impliedDirection": 0,
        "testDirection": 180,
        "avgFps": 60,
        "minFps": 56,
        "maxFps": 63,
        "totalFrames": 74,
        "frameRates": 60
      },
      {
        "trial_number": 10,
        "trial_index": 108,
        "rt": 1051,
        "correct": true,
        "response": "ArrowRight",
        "congruent": true,
        "gazeTowards": true,
        "gazeCondition": "towards",
        "faceOnLeft": true,
        "impliedDirection": 0,
        "testDirection": 0,
        "avgFps": 60,
        "minFps": 56,
        "maxFps": 63,
        "totalFrames": 63,
        "frameRates": 60
      },
      {
        "trial_number": 11,
        "trial_index": 116,
        "rt": 1279,
        "correct": true,
        "response": "ArrowRight",
        "congruent": true,
        "gazeTowards": false,
        "gazeCondition": "away",
        "faceOnLeft": true,
        "impliedDirection": 0,
        "testDirection": 0,
        "avgFps": 60,
        "minFps": 48,
        "maxFps": 64,
        "totalFrames": 76,
        "frameRates": 60
      },
      {
        "trial_number": 12,
        "trial_index": 121,
        "rt": 1143,
        "correct": true,
        "response": "ArrowRight",
        "congruent": false,
        "gazeTowards": true,
        "gazeCondition": "towards",
        "faceOnLeft": false,
        "impliedDirection": 180,
        "testDirection": 0,
        "avgFps": 59,
        "minFps": 32,
        "maxFps": 64,
        "totalFrames": 67,
        "frameRates": 59
      },
      {
        "trial_number": 13,
        "trial_index": 126,
        "rt": 1041,
        "correct": true,
        "response": "ArrowLeft",
        "congruent": false,
        "gazeTowards": true,
        "gazeCondition": "towards",
        "faceOnLeft": true,
        "impliedDirection": 0,
        "testDirection": 180,
        "avgFps": 60,
        "minFps": 56,
        "maxFps": 64,
        "totalFrames": 62,
        "frameRates": 60
      },
      {
        "trial_number": 14,
        "trial_index": 131,
        "rt": 1448,
        "correct": true,
        "response": "ArrowLeft",
        "congruent": false,
        "gazeTowards": false,
        "gazeCondition": "away",
        "faceOnLeft": true,
        "impliedDirection": 0,
        "testDirection": 180,
        "avgFps": 60,
        "minFps": 57,
        "maxFps": 63,
        "totalFrames": 86,
        "frameRates": 60
      },
      {
        "trial_number": 15,
        "trial_index": 136,
        "rt": 1305,
        "correct": true,
        "response": "ArrowRight",
        "congruent": false,
        "gazeTowards": false,
        "gazeCondition": "away",
        "faceOnLeft": false,
        "impliedDirection": 180,
        "testDirection": 0,
        "avgFps": 59,
        "minFps": 33,
        "maxFps": 64,
        "totalFrames": 77,
        "frameRates": 59
      },
      {
        "trial_number": 16,
        "trial_index": 141,
        "rt": 1067,
        "correct": true,
        "response": "ArrowLeft",
        "congruent": true,
        "gazeTowards": true,
        "gazeCondition": "towards",
        "faceOnLeft": false,
        "impliedDirection": 180,
        "testDirection": 180,
        "avgFps": 59,
        "minFps": 29,
        "maxFps": 64,
        "totalFrames": 63,
        "frameRates": 59
      },
      {
        "trial_number": 17,
        "trial_index": 146,
        "rt": 1315,
        "correct": true,
        "response": "ArrowLeft",
        "congruent": false,
        "gazeTowards": false,
        "gazeCondition": "away",
        "faceOnLeft": true,
        "impliedDirection": 0,
        "testDirection": 180,
        "avgFps": 60,
        "minFps": 45,
        "maxFps": 64,
        "totalFrames": 78,
        "frameRates": 60
      },
      {
        "trial_number": 18,
        "trial_index": 151,
        "rt": 1222,
        "correct": true,
        "response": "ArrowLeft",
        "congruent": true,
        "gazeTowards": false,
        "gazeCondition": "away",
        "faceOnLeft": false,
        "impliedDirection": 180,
        "testDirection": 180,
        "avgFps": 60,
        "minFps": 48,
        "maxFps": 64,
        "totalFrames": 72,
        "frameRates": 60
      },
      {
        "trial_number": 19,
        "trial_index": 156,
        "rt": 1573,
        "correct": true,
        "response": "ArrowLeft",
        "congruent": true,
        "gazeTowards": true,
        "gazeCondition": "towards",
        "faceOnLeft": false,
        "impliedDirection": 180,
        "testDirection": 180,
        "avgFps": 60,
        "minFps": 56,
        "maxFps": 64,
        "totalFrames": 94,
        "frameRates": 60
      },
      {
        "trial_number": 20,
        "trial_index": 161,
        "rt": 1367,
        "correct": true,
        "response": "ArrowLeft",
        "congruent": false,
        "gazeTowards": true,
        "gazeCondition": "towards",
        "faceOnLeft": true,
        "impliedDirection": 0,
        "testDirection": 180,
        "avgFps": 59,
        "minFps": 29,
        "maxFps": 63,
        "totalFrames": 81,
        "frameRates": 59
      },
      {
        "trial_number": 21,
        "trial_index": 166,
        "rt": 1481,
        "correct": true,
        "response": "ArrowLeft",
        "congruent": true,
        "gazeTowards": true,
        "gazeCondition": "towards",
        "faceOnLeft": false,
        "impliedDirection": 180,
        "testDirection": 180,
        "avgFps": 60,
        "minFps": 46,
        "maxFps": 64,
        "totalFrames": 88,
        "frameRates": 60
      },
      {
        "trial_number": 22,
        "trial_index": 171,
        "rt": 1381,
        "correct": true,
        "response": "ArrowLeft",
        "congruent": true,
        "gazeTowards": true,
        "gazeCondition": "towards",
        "faceOnLeft": false,
        "impliedDirection": 180,
        "testDirection": 180,
        "avgFps": 59,
        "minFps": 36,
        "maxFps": 63,
        "totalFrames": 82,
        "frameRates": 59
      },
      {
        "trial_number": 23,
        "trial_index": 176,
        "rt": 1260,
        "correct": true,
        "response": "ArrowLeft",
        "congruent": false,
        "gazeTowards": true,
        "gazeCondition": "towards",
        "faceOnLeft": true,
        "impliedDirection": 0,
        "testDirection": 180,
        "avgFps": 60,
        "minFps": 56,
        "maxFps": 64,
        "totalFrames": 75,
        "frameRates": 60
      },
      {
        "trial_number": 24,
        "trial_index": 181,
        "rt": 1107,
        "correct": true,
        "response": "ArrowRight",
        "congruent": false,
        "gazeTowards": true,
        "gazeCondition": "towards",
        "faceOnLeft": false,
        "impliedDirection": 180,
        "testDirection": 0,
        "avgFps": 59,
        "minFps": 31,
        "maxFps": 64,
        "totalFrames": 65,
        "frameRates": 59
      },
      {
        "trial_number": 25,
        "trial_index": 186,
        "rt": 1058,
        "correct": true,
        "response": "ArrowRight",
        "congruent": false,
        "gazeTowards": true,
        "gazeCondition": "towards",
        "faceOnLeft": false,
        "impliedDirection": 180,
        "testDirection": 0,
        "avgFps": 60,
        "minFps": 56,
        "maxFps": 64,
        "totalFrames": 63,
        "frameRates": 60
      },
      {
        "trial_number": 26,
        "trial_index": 191,
        "rt": 973,
        "correct": true,
        "response": "ArrowRight",
        "congruent": false,
        "gazeTowards": false,
        "gazeCondition": "away",
        "faceOnLeft": false,
        "impliedDirection": 180,
        "testDirection": 0,
        "avgFps": 59,
        "minFps": 29,
        "maxFps": 63,
        "totalFrames": 57,
        "frameRates": 59
      },
      {
        "trial_number": 27,
        "trial_index": 196,
        "rt": 1453,
        "correct": true,
        "response": "ArrowRight",
        "congruent": false,
        "gazeTowards": false,
        "gazeCondition": "away",
        "faceOnLeft": false,
        "impliedDirection": 180,
        "testDirection": 0,
        "avgFps": 59,
        "minFps": 31,
        "maxFps": 63,
        "totalFrames": 86,
        "frameRates": 59
      },
      {
        "trial_number": 28,
        "trial_index": 201,
        "rt": 984,
        "correct": true,
        "response": "ArrowRight",
        "congruent": true,
        "gazeTowards": true,
        "gazeCondition": "towards",
        "faceOnLeft": true,
        "impliedDirection": 0,
        "testDirection": 0,
        "avgFps": 59,
        "minFps": 30,
        "maxFps": 63,
        "totalFrames": 58,
        "frameRates": 59
      },
      {
        "trial_number": 29,
        "trial_index": 207,
        "rt": 1160,
        "correct": true,
        "response": "ArrowLeft",
        "congruent": false,
        "gazeTowards": true,
        "gazeCondition": "towards",
        "faceOnLeft": true,
        "impliedDirection": 0,
        "testDirection": 180,
        "avgFps": 60,
        "minFps": 56,
        "maxFps": 64,
        "totalFrames": 69,
        "frameRates": 60
      },
      {
        "trial_number": 30,
        "trial_index": 212,
        "rt": 992,
        "correct": true,
        "response": "ArrowLeft",
        "congruent": true,
        "gazeTowards": false,
        "gazeCondition": "away",
        "faceOnLeft": false,
        "impliedDirection": 180,
        "testDirection": 180,
        "avgFps": 60,
        "minFps": 57,
        "maxFps": 66,
        "totalFrames": 59,
        "frameRates": 60
      },
      {
        "trial_number": 31,
        "trial_index": 217,
        "rt": 913,
        "correct": true,
        "response": "ArrowRight",
        "congruent": true,
        "gazeTowards": true,
        "gazeCondition": "towards",
        "faceOnLeft": true,
        "impliedDirection": 0,
        "testDirection": 0,
        "avgFps": 60,
        "minFps": 57,
        "maxFps": 64,
        "totalFrames": 54,
        "frameRates": 60
      },
      {
        "trial_number": 32,
        "trial_index": 222,
        "rt": 1066,
        "correct": true,
        "response": "ArrowRight",
        "congruent": false,
        "gazeTowards": false,
        "gazeCondition": "away",
        "faceOnLeft": false,
        "impliedDirection": 180,
        "testDirection": 0,
        "avgFps": 60,
        "minFps": 44,
        "maxFps": 64,
        "totalFrames": 63,
        "frameRates": 60
      },
      {
        "trial_number": 33,
        "trial_index": 227,
        "rt": 1012,
        "correct": true,
        "response": "ArrowLeft",
        "congruent": true,
        "gazeTowards": false,
        "gazeCondition": "away",
        "faceOnLeft": false,
        "impliedDirection": 180,
        "testDirection": 180,
        "avgFps": 60,
        "minFps": 46,
        "maxFps": 63,
        "totalFrames": 60,
        "frameRates": 60
      },
      {
        "trial_number": 34,
        "trial_index": 232,
        "rt": 1516,
        "correct": true,
        "response": "ArrowLeft",
        "congruent": true,
        "gazeTowards": false,
        "gazeCondition": "away",
        "faceOnLeft": false,
        "impliedDirection": 180,
        "testDirection": 180,
        "avgFps": 60,
        "minFps": 45,
        "maxFps": 64,
        "totalFrames": 90,
        "frameRates": 60
      },
      {
        "trial_number": 35,
        "trial_index": 237,
        "rt": 1267,
        "correct": true,
        "response": "ArrowRight",
        "congruent": false,
        "gazeTowards": true,
        "gazeCondition": "towards",
        "faceOnLeft": false,
        "impliedDirection": 180,
        "testDirection": 0,
        "avgFps": 59,
        "minFps": 29,
        "maxFps": 64,
        "totalFrames": 75,
        "frameRates": 59
      },
      {
        "trial_number": 36,
        "trial_index": 242,
        "rt": 1096,
        "correct": true,
        "response": "ArrowRight",
        "congruent": true,
        "gazeTowards": false,
        "gazeCondition": "away",
        "faceOnLeft": true,
        "impliedDirection": 0,
        "testDirection": 0,
        "avgFps": 59,
        "minFps": 43,
        "maxFps": 64,
        "totalFrames": 65,
        "frameRates": 59
      },
      {
        "trial_number": 37,
        "trial_index": 247,
        "rt": 1339,
        "correct": true,
        "response": "ArrowRight",
        "congruent": false,
        "gazeTowards": false,
        "gazeCondition": "away",
        "faceOnLeft": false,
        "impliedDirection": 180,
        "testDirection": 0,
        "avgFps": 60,
        "minFps": 56,
        "maxFps": 63,
        "totalFrames": 80,
        "frameRates": 60
      },
      {
        "trial_number": 38,
        "trial_index": 252,
        "rt": 1181,
        "correct": true,
        "response": "ArrowRight",
        "congruent": false,
        "gazeTowards": true,
        "gazeCondition": "towards",
        "faceOnLeft": false,
        "impliedDirection": 180,
        "testDirection": 0,
        "avgFps": 60,
        "minFps": 46,
        "maxFps": 64,
        "totalFrames": 70,
        "frameRates": 60
      },
      {
        "trial_number": 39,
        "trial_index": 257,
        "rt": 972,
        "correct": true,
        "response": "ArrowRight",
        "congruent": true,
        "gazeTowards": true,
        "gazeCondition": "towards",
        "faceOnLeft": true,
        "impliedDirection": 0,
        "testDirection": 0,
        "avgFps": 59,
        "minFps": 36,
        "maxFps": 63,
        "totalFrames": 57,
        "frameRates": 59
      },
      {
        "trial_number": 40,
        "trial_index": 262,
        "rt": 1152,
        "correct": true,
        "response": "ArrowLeft",
        "congruent": true,
        "gazeTowards": false,
        "gazeCondition": "away",
        "faceOnLeft": false,
        "impliedDirection": 180,
        "testDirection": 180,
        "avgFps": 59,
        "minFps": 31,
        "maxFps": 64,
        "totalFrames": 68,
        "frameRates": 59
      },
      {
        "trial_number": 41,
        "trial_index": 267,
        "rt": 925,
        "correct": true,
        "response": "ArrowRight",
        "congruent": false,
        "gazeTowards": false,
        "gazeCondition": "away",
        "faceOnLeft": false,
        "impliedDirection": 180,
        "testDirection": 0,
        "avgFps": 59,
        "minFps": 32,
        "maxFps": 64,
        "totalFrames": 54,
        "frameRates": 59
      },
      {
        "trial_number": 42,
        "trial_index": 272,
        "rt": 1234,
        "correct": true,
        "response": "ArrowLeft",
        "congruent": false,
        "gazeTowards": false,
        "gazeCondition": "away",
        "faceOnLeft": true,
        "impliedDirection": 0,
        "testDirection": 180,
        "avgFps": 59,
        "minFps": 31,
        "maxFps": 63,
        "totalFrames": 73,
        "frameRates": 59
      },
      {
        "trial_number": 43,
        "trial_index": 277,
        "rt": 833,
        "correct": true,
        "response": "ArrowLeft",
        "congruent": true,
        "gazeTowards": false,
        "gazeCondition": "away",
        "faceOnLeft": false,
        "impliedDirection": 180,
        "testDirection": 180,
        "avgFps": 60,
        "minFps": 57,
        "maxFps": 63,
        "totalFrames": 49,
        "frameRates": 60
      },
      {
        "trial_number": 44,
        "trial_index": 282,
        "rt": 837,
        "correct": true,
        "response": "ArrowLeft",
        "congruent": true,
        "gazeTowards": false,
        "gazeCondition": "away",
        "faceOnLeft": false,
        "impliedDirection": 180,
        "testDirection": 180,
        "avgFps": 59,
        "minFps": 31,
        "maxFps": 63,
        "totalFrames": 49,
        "frameRates": 59
      },
      {
        "trial_number": 45,
        "trial_index": 287,
        "rt": 796,
        "correct": true,
        "response": "ArrowRight",
        "congruent": false,
        "gazeTowards": true,
        "gazeCondition": "towards",
        "faceOnLeft": false,
        "impliedDirection": 180,
        "testDirection": 0,
        "avgFps": 60,
        "minFps": 56,
        "maxFps": 63,
        "totalFrames": 47,
        "frameRates": 60
      },
      {
        "trial_number": 46,
        "trial_index": 292,
        "rt": 1160,
        "correct": true,
        "response": "ArrowLeft",
        "congruent": true,
        "gazeTowards": false,
        "gazeCondition": "away",
        "faceOnLeft": false,
        "impliedDirection": 180,
        "testDirection": 180,
        "avgFps": 60,
        "minFps": 45,
        "maxFps": 64,
        "totalFrames": 69,
        "frameRates": 60
      },
      {
        "trial_number": 47,
        "trial_index": 297,
        "rt": 856,
        "correct": true,
        "response": "ArrowLeft",
        "congruent": false,
        "gazeTowards": false,
        "gazeCondition": "away",
        "faceOnLeft": true,
        "impliedDirection": 0,
        "testDirection": 180,
        "avgFps": 60,
        "minFps": 57,
        "maxFps": 62,
        "totalFrames": 51,
        "frameRates": 60
      },
      {
        "trial_number": 48,
        "trial_index": 302,
        "rt": 1025,
        "correct": true,
        "response": "ArrowRight",
        "congruent": false,
        "gazeTowards": false,
        "gazeCondition": "away",
        "faceOnLeft": false,
        "impliedDirection": 180,
        "testDirection": 0,
        "avgFps": 59,
        "minFps": 36,
        "maxFps": 64,
        "totalFrames": 61,
        "frameRates": 59
      },
      {
        "trial_number": 49,
        "trial_index": 307,
        "rt": 1545,
        "correct": true,
        "response": "ArrowRight",
        "congruent": true,
        "gazeTowards": false,
        "gazeCondition": "away",
        "faceOnLeft": true,
        "impliedDirection": 0,
        "testDirection": 0,
        "avgFps": 60,
        "minFps": 45,
        "maxFps": 63,
        "totalFrames": 92,
        "frameRates": 60
      },
      {
        "trial_number": 50,
        "trial_index": 312,
        "rt": 1326,
        "correct": true,
        "response": "ArrowLeft",
        "congruent": true,
        "gazeTowards": true,
        "gazeCondition": "towards",
        "faceOnLeft": false,
        "impliedDirection": 180,
        "testDirection": 180,
        "avgFps": 60,
        "minFps": 56,
        "maxFps": 63,
        "totalFrames": 79,
        "frameRates": 60
      },
      {
        "trial_number": 51,
        "trial_index": 317,
        "rt": 1220,
        "correct": true,
        "response": "ArrowLeft",
        "congruent": false,
        "gazeTowards": false,
        "gazeCondition": "away",
        "faceOnLeft": true,
        "impliedDirection": 0,
        "testDirection": 180,
        "avgFps": 60,
        "minFps": 56,
        "maxFps": 64,
        "totalFrames": 73,
        "frameRates": 60
      },
      {
        "trial_number": 52,
        "trial_index": 322,
        "rt": 1123,
        "correct": true,
        "response": "ArrowLeft",
        "congruent": false,
        "gazeTowards": true,
        "gazeCondition": "towards",
        "faceOnLeft": true,
        "impliedDirection": 0,
        "testDirection": 180,
        "avgFps": 60,
        "minFps": 44,
        "maxFps": 64,
        "totalFrames": 67,
        "frameRates": 60
      },
      {
        "trial_number": 53,
        "trial_index": 327,
        "rt": 1307,
        "correct": true,
        "response": "ArrowRight",
        "congruent": false,
        "gazeTowards": false,
        "gazeCondition": "away",
        "faceOnLeft": false,
        "impliedDirection": 180,
        "testDirection": 0,
        "avgFps": 60,
        "minFps": 56,
        "maxFps": 64,
        "totalFrames": 78,
        "frameRates": 60
      },
      {
        "trial_number": 54,
        "trial_index": 332,
        "rt": 797,
        "correct": true,
        "response": "ArrowLeft",
        "congruent": true,
        "gazeTowards": false,
        "gazeCondition": "away",
        "faceOnLeft": false,
        "impliedDirection": 180,
        "testDirection": 180,
        "avgFps": 60,
        "minFps": 57,
        "maxFps": 63,
        "totalFrames": 47,
        "frameRates": 60
      },
      {
        "trial_number": 55,
        "trial_index": 340,
        "rt": 1524,
        "correct": true,
        "response": "ArrowLeft",
        "congruent": true,
        "gazeTowards": false,
        "gazeCondition": "away",
        "faceOnLeft": false,
        "impliedDirection": 180,
        "testDirection": 180,
        "avgFps": 60,
        "minFps": 56,
        "maxFps": 63,
        "totalFrames": 91,
        "frameRates": 60
      },
      {
        "trial_number": 56,
        "trial_index": 345,
        "rt": 1049,
        "correct": true,
        "response": "ArrowLeft",
        "congruent": true,
        "gazeTowards": true,
        "gazeCondition": "towards",
        "faceOnLeft": false,
        "impliedDirection": 180,
        "testDirection": 180,
        "avgFps": 60,
        "minFps": 56,
        "maxFps": 63,
        "totalFrames": 63,
        "frameRates": 60
      },
      {
        "trial_number": 57,
        "trial_index": 350,
        "rt": 1588,
        "correct": true,
        "response": "ArrowLeft",
        "congruent": false,
        "gazeTowards": true,
        "gazeCondition": "towards",
        "faceOnLeft": true,
        "impliedDirection": 0,
        "testDirection": 180,
        "avgFps": 60,
        "minFps": 56,
        "maxFps": 63,
        "totalFrames": 95,
        "frameRates": 60
      },
      {
        "trial_number": 58,
        "trial_index": 355,
        "rt": 1257,
        "correct": true,
        "response": "ArrowLeft",
        "congruent": true,
        "gazeTowards": true,
        "gazeCondition": "towards",
        "faceOnLeft": false,
        "impliedDirection": 180,
        "testDirection": 180,
        "avgFps": 60,
        "minFps": 56,
        "maxFps": 63,
        "totalFrames": 75,
        "frameRates": 60
      },
      {
        "trial_number": 59,
        "trial_index": 360,
        "rt": 975,
        "correct": true,
        "response": "ArrowLeft",
        "congruent": false,
        "gazeTowards": false,
        "gazeCondition": "away",
        "faceOnLeft": true,
        "impliedDirection": 0,
        "testDirection": 180,
        "avgFps": 60,
        "minFps": 56,
        "maxFps": 64,
        "totalFrames": 58,
        "frameRates": 60
      },
      {
        "trial_number": 60,
        "trial_index": 365,
        "rt": 890,
        "correct": true,
        "response": "ArrowLeft",
        "congruent": true,
        "gazeTowards": false,
        "gazeCondition": "away",
        "faceOnLeft": false,
        "impliedDirection": 180,
        "testDirection": 180,
        "avgFps": 59,
        "minFps": 29,
        "maxFps": 63,
        "totalFrames": 52,
        "frameRates": 59
      },
      {
        "trial_number": 61,
        "trial_index": 374,
        "rt": 1040,
        "correct": true,
        "response": "ArrowLeft",
        "congruent": true,
        "gazeTowards": false,
        "gazeCondition": "away",
        "faceOnLeft": false,
        "impliedDirection": 180,
        "testDirection": 180,
        "avgFps": 60,
        "minFps": 56,
        "maxFps": 64,
        "totalFrames": 62,
        "frameRates": 60
      },
      {
        "trial_number": 62,
        "trial_index": 379,
        "rt": 1081,
        "correct": true,
        "response": "ArrowRight",
        "congruent": false,
        "gazeTowards": true,
        "gazeCondition": "towards",
        "faceOnLeft": false,
        "impliedDirection": 180,
        "testDirection": 0,
        "avgFps": 59,
        "minFps": 37,
        "maxFps": 63,
        "totalFrames": 64,
        "frameRates": 59
      },
      {
        "trial_number": 63,
        "trial_index": 384,
        "rt": 835,
        "correct": true,
        "response": "ArrowLeft",
        "congruent": true,
        "gazeTowards": true,
        "gazeCondition": "towards",
        "faceOnLeft": false,
        "impliedDirection": 180,
        "testDirection": 180,
        "avgFps": 60,
        "minFps": 57,
        "maxFps": 62,
        "totalFrames": 50,
        "frameRates": 60
      },
      {
        "trial_number": 64,
        "trial_index": 389,
        "rt": 669,
        "correct": true,
        "response": "ArrowLeft",
        "congruent": false,
        "gazeTowards": false,
        "gazeCondition": "away",
        "faceOnLeft": true,
        "impliedDirection": 0,
        "testDirection": 180,
        "avgFps": 60,
        "minFps": 57,
        "maxFps": 63,
        "totalFrames": 40,
        "frameRates": 60
      },
      {
        "trial_number": 65,
        "trial_index": 394,
        "rt": 858,
        "correct": true,
        "response": "ArrowLeft",
        "congruent": false,
        "gazeTowards": false,
        "gazeCondition": "away",
        "faceOnLeft": true,
        "impliedDirection": 0,
        "testDirection": 180,
        "avgFps": 60,
        "minFps": 56,
        "maxFps": 64,
        "totalFrames": 51,
        "frameRates": 60
      },
      {
        "trial_number": 66,
        "trial_index": 399,
        "rt": 1002,
        "correct": true,
        "response": "ArrowLeft",
        "congruent": true,
        "gazeTowards": true,
        "gazeCondition": "towards",
        "faceOnLeft": false,
        "impliedDirection": 180,
        "testDirection": 180,
        "avgFps": 60,
        "minFps": 57,
        "maxFps": 64,
        "totalFrames": 60,
        "frameRates": 60
      },
      {
        "trial_number": 67,
        "trial_index": 404,
        "rt": 1321,
        "correct": true,
        "response": "ArrowLeft",
        "congruent": true,
        "gazeTowards": true,
        "gazeCondition": "towards",
        "faceOnLeft": false,
        "impliedDirection": 180,
        "testDirection": 180,
        "avgFps": 60,
        "minFps": 57,
        "maxFps": 65,
        "totalFrames": 79,
        "frameRates": 60
      },
      {
        "trial_number": 68,
        "trial_index": 409,
        "rt": 1059,
        "correct": true,
        "response": "ArrowRight",
        "congruent": false,
        "gazeTowards": false,
        "gazeCondition": "away",
        "faceOnLeft": false,
        "impliedDirection": 180,
        "testDirection": 0,
        "avgFps": 60,
        "minFps": 56,
        "maxFps": 63,
        "totalFrames": 63,
        "frameRates": 60
      },
      {
        "trial_number": 69,
        "trial_index": 414,
        "rt": 872,
        "correct": true,
        "response": "ArrowLeft",
        "congruent": true,
        "gazeTowards": true,
        "gazeCondition": "towards",
        "faceOnLeft": false,
        "impliedDirection": 180,
        "testDirection": 180,
        "avgFps": 59,
        "minFps": 30,
        "maxFps": 63,
        "totalFrames": 51,
        "frameRates": 59
      },
      {
        "trial_number": 70,
        "trial_index": 419,
        "rt": 842,
        "correct": true,
        "response": "ArrowRight",
        "congruent": true,
        "gazeTowards": true,
        "gazeCondition": "towards",
        "faceOnLeft": true,
        "impliedDirection": 0,
        "testDirection": 0,
        "avgFps": 59,
        "minFps": 36,
        "maxFps": 64,
        "totalFrames": 50,
        "frameRates": 59
      },
      {
        "trial_number": 71,
        "trial_index": 424,
        "rt": 780,
        "correct": true,
        "response": "ArrowRight",
        "congruent": false,
        "gazeTowards": true,
        "gazeCondition": "towards",
        "faceOnLeft": false,
        "impliedDirection": 180,
        "testDirection": 0,
        "avgFps": 59,
        "minFps": 31,
        "maxFps": 63,
        "totalFrames": 46,
        "frameRates": 59
      },
      {
        "trial_number": 72,
        "trial_index": 429,
        "rt": 813,
        "correct": true,
        "response": "ArrowLeft",
        "congruent": true,
        "gazeTowards": true,
        "gazeCondition": "towards",
        "faceOnLeft": false,
        "impliedDirection": 180,
        "testDirection": 180,
        "avgFps": 60,
        "minFps": 56,
        "maxFps": 64,
        "totalFrames": 48,
        "frameRates": 60
      },
      {
        "trial_number": 73,
        "trial_index": 434,
        "rt": 956,
        "correct": true,
        "response": "ArrowRight",
        "congruent": true,
        "gazeTowards": true,
        "gazeCondition": "towards",
        "faceOnLeft": true,
        "impliedDirection": 0,
        "testDirection": 0,
        "avgFps": 59,
        "minFps": 37,
        "maxFps": 64,
        "totalFrames": 56,
        "frameRates": 59
      },
      {
        "trial_number": 74,
        "trial_index": 439,
        "rt": 796,
        "correct": true,
        "response": "ArrowRight",
        "congruent": true,
        "gazeTowards": true,
        "gazeCondition": "towards",
        "faceOnLeft": true,
        "impliedDirection": 0,
        "testDirection": 0,
        "avgFps": 60,
        "minFps": 57,
        "maxFps": 63,
        "totalFrames": 47,
        "frameRates": 60
      },
      {
        "trial_number": 75,
        "trial_index": 444,
        "rt": 865,
        "correct": true,
        "response": "ArrowLeft",
        "congruent": false,
        "gazeTowards": false,
        "gazeCondition": "away",
        "faceOnLeft": true,
        "impliedDirection": 0,
        "testDirection": 180,
        "avgFps": 59,
        "minFps": 29,
        "maxFps": 63,
        "totalFrames": 51,
        "frameRates": 59
      },
      {
        "trial_number": 76,
        "trial_index": 449,
        "rt": 1018,
        "correct": true,
        "response": "ArrowLeft",
        "congruent": false,
        "gazeTowards": false,
        "gazeCondition": "away",
        "faceOnLeft": true,
        "impliedDirection": 0,
        "testDirection": 180,
        "avgFps": 59,
        "minFps": 30,
        "maxFps": 64,
        "totalFrames": 60,
        "frameRates": 59
      },
      {
        "trial_number": 77,
        "trial_index": 454,
        "rt": 775,
        "correct": true,
        "response": "ArrowRight",
        "congruent": true,
        "gazeTowards": false,
        "gazeCondition": "away",
        "faceOnLeft": true,
        "impliedDirection": 0,
        "testDirection": 0,
        "avgFps": 60,
        "minFps": 56,
        "maxFps": 69,
        "totalFrames": 46,
        "frameRates": 60
      },
      {
        "trial_number": 78,
        "trial_index": 465,
        "rt": 905,
        "correct": true,
        "response": "ArrowLeft",
        "congruent": false,
        "gazeTowards": false,
        "gazeCondition": "away",
        "faceOnLeft": true,
        "impliedDirection": 0,
        "testDirection": 180,
        "avgFps": 60,
        "minFps": 54,
        "maxFps": 64,
        "totalFrames": 54,
        "frameRates": 60
      },
      {
        "trial_number": 79,
        "trial_index": 470,
        "rt": 985,
        "correct": true,
        "response": "ArrowLeft",
        "congruent": false,
        "gazeTowards": true,
        "gazeCondition": "towards",
        "faceOnLeft": true,
        "impliedDirection": 0,
        "testDirection": 180,
        "avgFps": 59,
        "minFps": 37,
        "maxFps": 63,
        "totalFrames": 58,
        "frameRates": 59
      },
      {
        "trial_number": 80,
        "trial_index": 475,
        "rt": 1046,
        "correct": true,
        "response": "ArrowLeft",
        "congruent": false,
        "gazeTowards": true,
        "gazeCondition": "towards",
        "faceOnLeft": true,
        "impliedDirection": 0,
        "testDirection": 180,
        "avgFps": 59,
        "minFps": 43,
        "maxFps": 64,
        "totalFrames": 62,
        "frameRates": 59
      },
      {
        "trial_number": 81,
        "trial_index": 483,
        "rt": 1727,
        "correct": false,
        "response": "ArrowLeft",
        "congruent": false,
        "gazeTowards": false,
        "gazeCondition": "away",
        "faceOnLeft": false,
        "impliedDirection": 180,
        "testDirection": 0,
        "avgFps": 60,
        "minFps": 47,
        "maxFps": 64,
        "totalFrames": 103,
        "frameRates": 60
      },
      {
        "trial_number": 82,
        "trial_index": 488,
        "rt": 1064,
        "correct": true,
        "response": "ArrowRight",
        "congruent": true,
        "gazeTowards": true,
        "gazeCondition": "towards",
        "faceOnLeft": true,
        "impliedDirection": 0,
        "testDirection": 0,
        "avgFps": 60,
        "minFps": 56,
        "maxFps": 63,
        "totalFrames": 63,
        "frameRates": 60
      },
      {
        "trial_number": 83,
        "trial_index": 493,
        "rt": 1255,
        "correct": true,
        "response": "ArrowRight",
        "congruent": false,
        "gazeTowards": true,
        "gazeCondition": "towards",
        "faceOnLeft": false,
        "impliedDirection": 180,
        "testDirection": 0,
        "avgFps": 59,
        "minFps": 29,
        "maxFps": 64,
        "totalFrames": 74,
        "frameRates": 59
      },
      {
        "trial_number": 84,
        "trial_index": 498,
        "rt": 850,
        "correct": true,
        "response": "ArrowLeft",
        "congruent": false,
        "gazeTowards": true,
        "gazeCondition": "towards",
        "faceOnLeft": true,
        "impliedDirection": 0,
        "testDirection": 180,
        "avgFps": 60,
        "minFps": 56,
        "maxFps": 64,
        "totalFrames": 50,
        "frameRates": 60
      },
      {
        "trial_number": 85,
        "trial_index": 503,
        "rt": 1048,
        "correct": true,
        "response": "ArrowLeft",
        "congruent": false,
        "gazeTowards": true,
        "gazeCondition": "towards",
        "faceOnLeft": true,
        "impliedDirection": 0,
        "testDirection": 180,
        "avgFps": 59,
        "minFps": 44,
        "maxFps": 64,
        "totalFrames": 62,
        "frameRates": 59
      },
      {
        "trial_number": 86,
        "trial_index": 508,
        "rt": 1031,
        "correct": true,
        "response": "ArrowLeft",
        "congruent": false,
        "gazeTowards": false,
        "gazeCondition": "away",
        "faceOnLeft": true,
        "impliedDirection": 0,
        "testDirection": 180,
        "avgFps": 60,
        "minFps": 48,
        "maxFps": 63,
        "totalFrames": 61,
        "frameRates": 60
      },
      {
        "trial_number": 87,
        "trial_index": 513,
        "rt": 840,
        "correct": true,
        "response": "ArrowLeft",
        "congruent": true,
        "gazeTowards": true,
        "gazeCondition": "towards",
        "faceOnLeft": false,
        "impliedDirection": 180,
        "testDirection": 180,
        "avgFps": 60,
        "minFps": 57,
        "maxFps": 63,
        "totalFrames": 50,
        "frameRates": 60
      },
      {
        "trial_number": 88,
        "trial_index": 518,
        "rt": 949,
        "correct": true,
        "response": "ArrowLeft",
        "congruent": false,
        "gazeTowards": false,
        "gazeCondition": "away",
        "faceOnLeft": true,
        "impliedDirection": 0,
        "testDirection": 180,
        "avgFps": 59,
        "minFps": 31,
        "maxFps": 64,
        "totalFrames": 56,
        "frameRates": 59
      },
      {
        "trial_number": 89,
        "trial_index": 523,
        "rt": 768,
        "correct": true,
        "response": "ArrowLeft",
        "congruent": true,
        "gazeTowards": false,
        "gazeCondition": "away",
        "faceOnLeft": false,
        "impliedDirection": 180,
        "testDirection": 180,
        "avgFps": 59,
        "minFps": 37,
        "maxFps": 63,
        "totalFrames": 45,
        "frameRates": 59
      },
      {
        "trial_number": 90,
        "trial_index": 529,
        "rt": 1075,
        "correct": true,
        "response": "ArrowRight",
        "congruent": true,
        "gazeTowards": false,
        "gazeCondition": "away",
        "faceOnLeft": true,
        "impliedDirection": 0,
        "testDirection": 0,
        "avgFps": 59,
        "minFps": 30,
        "maxFps": 64,
        "totalFrames": 63,
        "frameRates": 59
      },
      {
        "trial_number": 91,
        "trial_index": 534,
        "rt": 1039,
        "correct": true,
        "response": "ArrowRight",
        "congruent": true,
        "gazeTowards": true,
        "gazeCondition": "towards",
        "faceOnLeft": true,
        "impliedDirection": 0,
        "testDirection": 0,
        "avgFps": 59,
        "minFps": 32,
        "maxFps": 64,
        "totalFrames": 61,
        "frameRates": 59
      },
      {
        "trial_number": 92,
        "trial_index": 539,
        "rt": 779,
        "correct": true,
        "response": "ArrowLeft",
        "congruent": false,
        "gazeTowards": false,
        "gazeCondition": "away",
        "faceOnLeft": true,
        "impliedDirection": 0,
        "testDirection": 180,
        "avgFps": 60,
        "minFps": 56,
        "maxFps": 63,
        "totalFrames": 46,
        "frameRates": 60
      },
      {
        "trial_number": 93,
        "trial_index": 544,
        "rt": 984,
        "correct": true,
        "response": "ArrowRight",
        "congruent": false,
        "gazeTowards": true,
        "gazeCondition": "towards",
        "faceOnLeft": false,
        "impliedDirection": 180,
        "testDirection": 0,
        "avgFps": 59,
        "minFps": 30,
        "maxFps": 63,
        "totalFrames": 58,
        "frameRates": 59
      },
      {
        "trial_number": 94,
        "trial_index": 549,
        "rt": 1208,
        "correct": true,
        "response": "ArrowLeft",
        "congruent": true,
        "gazeTowards": true,
        "gazeCondition": "towards",
        "faceOnLeft": false,
        "impliedDirection": 180,
        "testDirection": 180,
        "avgFps": 60,
        "minFps": 56,
        "maxFps": 63,
        "totalFrames": 72,
        "frameRates": 60
      },
      {
        "trial_number": 95,
        "trial_index": 557,
        "rt": 1241,
        "correct": true,
        "response": "ArrowLeft",
        "congruent": true,
        "gazeTowards": false,
        "gazeCondition": "away",
        "faceOnLeft": false,
        "impliedDirection": 180,
        "testDirection": 180,
        "avgFps": 60,
        "minFps": 57,
        "maxFps": 63,
        "totalFrames": 74,
        "frameRates": 60
      },
      {
        "trial_number": 96,
        "trial_index": 562,
        "rt": 1224,
        "correct": true,
        "response": "ArrowRight",
        "congruent": true,
        "gazeTowards": false,
        "gazeCondition": "away",
        "faceOnLeft": true,
        "impliedDirection": 0,
        "testDirection": 0,
        "avgFps": 60,
        "minFps": 57,
        "maxFps": 64,
        "totalFrames": 73,
        "frameRates": 60
      },
      {
        "trial_number": 97,
        "trial_index": 567,
        "rt": 1342,
        "correct": false,
        "response": "ArrowLeft",
        "congruent": false,
        "gazeTowards": true,
        "gazeCondition": "towards",
        "faceOnLeft": false,
        "impliedDirection": 180,
        "testDirection": 0,
        "avgFps": 60,
        "minFps": 55,
        "maxFps": 64,
        "totalFrames": 80,
        "frameRates": 60
      },
      {
        "trial_number": 98,
        "trial_index": 572,
        "rt": 1509,
        "correct": true,
        "response": "ArrowLeft",
        "congruent": true,
        "gazeTowards": false,
        "gazeCondition": "away",
        "faceOnLeft": false,
        "impliedDirection": 180,
        "testDirection": 180,
        "avgFps": 60,
        "minFps": 56,
        "maxFps": 63,
        "totalFrames": 90,
        "frameRates": 60
      },
      {
        "trial_number": 99,
        "trial_index": 577,
        "rt": 1420,
        "correct": true,
        "response": "ArrowLeft",
        "congruent": false,
        "gazeTowards": true,
        "gazeCondition": "towards",
        "faceOnLeft": true,
        "impliedDirection": 0,
        "testDirection": 180,
        "avgFps": 60,
        "minFps": 57,
        "maxFps": 63,
        "totalFrames": 85,
        "frameRates": 60
      },
      {
        "trial_number": 100,
        "trial_index": 582,
        "rt": 898,
        "correct": true,
        "response": "ArrowRight",
        "congruent": false,
        "gazeTowards": false,
        "gazeCondition": "away",
        "faceOnLeft": false,
        "impliedDirection": 180,
        "testDirection": 0,
        "avgFps": 59,
        "minFps": 35,
        "maxFps": 64,
        "totalFrames": 53,
        "frameRates": 59
      },
      {
        "trial_number": 101,
        "trial_index": 587,
        "rt": 1111,
        "correct": true,
        "response": "ArrowLeft",
        "congruent": true,
        "gazeTowards": false,
        "gazeCondition": "away",
        "faceOnLeft": false,
        "impliedDirection": 180,
        "testDirection": 180,
        "avgFps": 60,
        "minFps": 57,
        "maxFps": 62,
        "totalFrames": 66,
        "frameRates": 60
      },
      {
        "trial_number": 102,
        "trial_index": 592,
        "rt": 1326,
        "correct": true,
        "response": "ArrowRight",
        "congruent": false,
        "gazeTowards": true,
        "gazeCondition": "towards",
        "faceOnLeft": false,
        "impliedDirection": 180,
        "testDirection": 0,
        "avgFps": 60,
        "minFps": 46,
        "maxFps": 64,
        "totalFrames": 79,
        "frameRates": 60
      },
      {
        "trial_number": 103,
        "trial_index": 597,
        "rt": 1446,
        "correct": true,
        "response": "ArrowLeft",
        "congruent": false,
        "gazeTowards": false,
        "gazeCondition": "away",
        "faceOnLeft": true,
        "impliedDirection": 0,
        "testDirection": 180,
        "avgFps": 60,
        "minFps": 56,
        "maxFps": 64,
        "totalFrames": 86,
        "frameRates": 60
      },
      {
        "trial_number": 104,
        "trial_index": 602,
        "rt": 1236,
        "correct": true,
        "response": "ArrowRight",
        "congruent": false,
        "gazeTowards": false,
        "gazeCondition": "away",
        "faceOnLeft": false,
        "impliedDirection": 180,
        "testDirection": 0,
        "avgFps": 60,
        "minFps": 56,
        "maxFps": 69,
        "totalFrames": 74,
        "frameRates": 60
      },
      {
        "trial_number": 105,
        "trial_index": 607,
        "rt": 1236,
        "correct": true,
        "response": "ArrowRight",
        "congruent": false,
        "gazeTowards": false,
        "gazeCondition": "away",
        "faceOnLeft": false,
        "impliedDirection": 180,
        "testDirection": 0,
        "avgFps": 60,
        "minFps": 57,
        "maxFps": 62,
        "totalFrames": 73,
        "frameRates": 60
      },
      {
        "trial_number": 106,
        "trial_index": 612,
        "rt": 1409,
        "correct": true,
        "response": "ArrowLeft",
        "congruent": true,
        "gazeTowards": false,
        "gazeCondition": "away",
        "faceOnLeft": false,
        "impliedDirection": 180,
        "testDirection": 180,
        "avgFps": 60,
        "minFps": 56,
        "maxFps": 64,
        "totalFrames": 84,
        "frameRates": 60
      },
      {
        "trial_number": 107,
        "trial_index": 617,
        "rt": 736,
        "correct": true,
        "response": "ArrowRight",
        "congruent": true,
        "gazeTowards": true,
        "gazeCondition": "towards",
        "faceOnLeft": true,
        "impliedDirection": 0,
        "testDirection": 0,
        "avgFps": 59,
        "minFps": 42,
        "maxFps": 64,
        "totalFrames": 43,
        "frameRates": 59
      },
      {
        "trial_number": 108,
        "trial_index": 622,
        "rt": 1050,
        "correct": true,
        "response": "ArrowRight",
        "congruent": true,
        "gazeTowards": true,
        "gazeCondition": "towards",
        "faceOnLeft": true,
        "impliedDirection": 0,
        "testDirection": 0,
        "avgFps": 60,
        "minFps": 57,
        "maxFps": 63,
        "totalFrames": 62,
        "frameRates": 60
      },
      {
        "trial_number": 109,
        "trial_index": 627,
        "rt": 838,
        "correct": true,
        "response": "ArrowRight",
        "congruent": true,
        "gazeTowards": true,
        "gazeCondition": "towards",
        "faceOnLeft": true,
        "impliedDirection": 0,
        "testDirection": 0,
        "avgFps": 59,
        "minFps": 32,
        "maxFps": 64,
        "totalFrames": 49,
        "frameRates": 59
      },
      {
        "trial_number": 110,
        "trial_index": 632,
        "rt": 966,
        "correct": true,
        "response": "ArrowLeft",
        "congruent": true,
        "gazeTowards": true,
        "gazeCondition": "towards",
        "faceOnLeft": false,
        "impliedDirection": 180,
        "testDirection": 180,
        "avgFps": 60,
        "minFps": 56,
        "maxFps": 64,
        "totalFrames": 57,
        "frameRates": 60
      },
      {
        "trial_number": 111,
        "trial_index": 637,
        "rt": 676,
        "correct": true,
        "response": "ArrowRight",
        "congruent": false,
        "gazeTowards": false,
        "gazeCondition": "away",
        "faceOnLeft": false,
        "impliedDirection": 180,
        "testDirection": 0,
        "avgFps": 60,
        "minFps": 57,
        "maxFps": 63,
        "totalFrames": 40,
        "frameRates": 60
      },
      {
        "trial_number": 112,
        "trial_index": 642,
        "rt": 1185,
        "correct": true,
        "response": "ArrowLeft",
        "congruent": true,
        "gazeTowards": true,
        "gazeCondition": "towards",
        "faceOnLeft": false,
        "impliedDirection": 180,
        "testDirection": 180,
        "avgFps": 59,
        "minFps": 30,
        "maxFps": 63,
        "totalFrames": 70,
        "frameRates": 59
      },
      {
        "trial_number": 113,
        "trial_index": 650,
        "rt": 1978,
        "correct": true,
        "response": "ArrowLeft",
        "congruent": false,
        "gazeTowards": true,
        "gazeCondition": "towards",
        "faceOnLeft": true,
        "impliedDirection": 0,
        "testDirection": 180,
        "avgFps": 60,
        "minFps": 56,
        "maxFps": 64,
        "totalFrames": 118,
        "frameRates": 60
      },
      {
        "trial_number": 114,
        "trial_index": 655,
        "rt": 1190,
        "correct": true,
        "response": "ArrowLeft",
        "congruent": false,
        "gazeTowards": true,
        "gazeCondition": "towards",
        "faceOnLeft": true,
        "impliedDirection": 0,
        "testDirection": 180,
        "avgFps": 60,
        "minFps": 56,
        "maxFps": 65,
        "totalFrames": 71,
        "frameRates": 60
      },
      {
        "trial_number": 115,
        "trial_index": 660,
        "rt": 1263,
        "correct": true,
        "response": "ArrowLeft",
        "congruent": true,
        "gazeTowards": false,
        "gazeCondition": "away",
        "faceOnLeft": false,
        "impliedDirection": 180,
        "testDirection": 180,
        "avgFps": 60,
        "minFps": 43,
        "maxFps": 64,
        "totalFrames": 75,
        "frameRates": 60
      },
      {
        "trial_number": 116,
        "trial_index": 665,
        "rt": 1167,
        "correct": true,
        "response": "ArrowLeft",
        "congruent": false,
        "gazeTowards": true,
        "gazeCondition": "towards",
        "faceOnLeft": true,
        "impliedDirection": 0,
        "testDirection": 180,
        "avgFps": 60,
        "minFps": 55,
        "maxFps": 64,
        "totalFrames": 69,
        "frameRates": 60
      },
      {
        "trial_number": 117,
        "trial_index": 670,
        "rt": 1344,
        "correct": true,
        "response": "ArrowLeft",
        "congruent": true,
        "gazeTowards": false,
        "gazeCondition": "away",
        "faceOnLeft": false,
        "impliedDirection": 180,
        "testDirection": 180,
        "avgFps": 59,
        "minFps": 38,
        "maxFps": 64,
        "totalFrames": 80,
        "frameRates": 59
      },
      {
        "trial_number": 118,
        "trial_index": 675,
        "rt": 1497,
        "correct": true,
        "response": "ArrowLeft",
        "congruent": true,
        "gazeTowards": false,
        "gazeCondition": "away",
        "faceOnLeft": false,
        "impliedDirection": 180,
        "testDirection": 180,
        "avgFps": 59,
        "minFps": 37,
        "maxFps": 63,
        "totalFrames": 89,
        "frameRates": 59
      },
      {
        "trial_number": 119,
        "trial_index": 683,
        "rt": 1366,
        "correct": true,
        "response": "ArrowRight",
        "congruent": true,
        "gazeTowards": false,
        "gazeCondition": "away",
        "faceOnLeft": true,
        "impliedDirection": 0,
        "testDirection": 0,
        "avgFps": 59,
        "minFps": 29,
        "maxFps": 64,
        "totalFrames": 81,
        "frameRates": 59
      }
    ],
    "catch": {
      "total": 12,
      "correct": 6,
      "accuracy": 50,
      "meanRT": 701,
      "trials": [
        {
          "trial_number": 0,
          "trial_index": 63,
          "rt": 650,
          "correct": true,
          "colorTarget": "tree",
          "gazeTowards": true,
          "gazeCondition": "towards",
          "faceOnLeft": true
        },
        {
          "trial_number": 1,
          "trial_index": 81,
          "rt": 588,
          "correct": true,
          "colorTarget": "tree",
          "gazeTowards": true,
          "gazeCondition": "towards",
          "faceOnLeft": true
        },
        {
          "trial_number": 2,
          "trial_index": 89,
          "rt": null,
          "correct": false,
          "colorTarget": "face",
          "gazeTowards": true,
          "gazeCondition": "towards",
          "faceOnLeft": false
        },
        {
          "trial_number": 3,
          "trial_index": 112,
          "rt": null,
          "correct": false,
          "colorTarget": "face",
          "gazeTowards": true,
          "gazeCondition": "towards",
          "faceOnLeft": false
        },
        {
          "trial_number": 4,
          "trial_index": 336,
          "rt": null,
          "correct": false,
          "colorTarget": "face",
          "gazeTowards": true,
          "gazeCondition": "towards",
          "faceOnLeft": true
        },
        {
          "trial_number": 5,
          "trial_index": 370,
          "rt": 679,
          "correct": true,
          "colorTarget": "tree",
          "gazeTowards": true,
          "gazeCondition": "towards",
          "faceOnLeft": false
        },
        {
          "trial_number": 6,
          "trial_index": 458,
          "rt": null,
          "correct": false,
          "colorTarget": "face",
          "gazeTowards": false,
          "gazeCondition": "away",
          "faceOnLeft": false
        },
        {
          "trial_number": 7,
          "trial_index": 461,
          "rt": 768,
          "correct": true,
          "colorTarget": "tree",
          "gazeTowards": false,
          "gazeCondition": "away",
          "faceOnLeft": false
        },
        {
          "trial_number": 8,
          "trial_index": 479,
          "rt": null,
          "correct": false,
          "colorTarget": "face",
          "gazeTowards": false,
          "gazeCondition": "away",
          "faceOnLeft": true
        },
        {
          "trial_number": 9,
          "trial_index": 553,
          "rt": 804,
          "correct": true,
          "colorTarget": "tree",
          "gazeTowards": false,
          "gazeCondition": "away",
          "faceOnLeft": true
        },
        {
          "trial_number": 10,
          "trial_index": 646,
          "rt": null,
          "correct": false,
          "colorTarget": "face",
          "gazeTowards": false,
          "gazeCondition": "away",
          "faceOnLeft": true
        },
        {
          "trial_number": 11,
          "trial_index": 679,
          "rt": 714,
          "correct": true,
          "colorTarget": "tree",
          "gazeTowards": true,
          "gazeCondition": "towards",
          "faceOnLeft": true
        }
      ]
    },
    "practice": {
      "trials": [
        {
          "trial_number": 0,
          "rt": null,
          "correct": false,
          "direction": 180
        },
        {
          "trial_number": 1,
          "rt": 826,
          "correct": true,
          "direction": 180
        },
        {
          "trial_number": 2,
          "rt": 1186,
          "correct": true,
          "direction": 0
        },
        {
          "trial_number": 3,
          "rt": 1072,
          "correct": true,
          "direction": 180
        },
        {
          "trial_number": 4,
          "rt": 1136,
          "correct": false,
          "direction": 180
        },
        {
          "trial_number": 5,
          "rt": 1072,
          "correct": true,
          "direction": 0
        },
        {
          "trial_number": 6,
          "rt": 1242,
          "correct": true,
          "direction": 180
        },
        {
          "trial_number": 7,
          "rt": 1221,
          "correct": true,
          "direction": 180
        },
        {
          "trial_number": 8,
          "rt": 1552,
          "correct": true,
          "direction": 0
        },
        {
          "trial_number": 9,
          "rt": 1124,
          "correct": true,
          "direction": 180
        }
      ],
      "meanRT": 1159,
      "accuracy": 80
    }
  }
}