{
  "experiment": "rdk-face-1",
  "UUID": "8f572112-163f-4891-a74a-46bdee32ce11",
  "data": {
    "session": {
      "experiment_version": "1.8.6",
      "treatment": "faces_towards_away_catch",
      "file_version": "1.8.6",
      "totalTrials": 120,
      "totalTrialsIncludingCatch": 132,
      "conditions": {
        "gazeTowardsCount": 60,
        "gazeAwayCount": 60,
        "gazeTowardsAccuracy": 88,
        "gazeAwayAccuracy": 98
      },
      "session_group": "default",
      "browserData": {
        "os": "Mac",
        "browser": "Chrome",
        "screenResolution": "1440x900",
        "browserViewport": "1440x900",
        "devicePixelRatio": 2,
        "colorDepth": 30,
        "hardwareConcurrency": 8,
        "deviceMemory": 8,
        "gpuRenderer": "ANGLE (Apple, ANGLE Metal Renderer: Apple M1, Unspecified Version)",
        "measuredRefreshRateHz": 29
      },
      "attention": {
        "visibilityEvents": [
          {
            "event": "blur",
            "state": "blurred",
            "timestamp": 1772770595558
          },
          {
            "event": "visibilitychange",
            "state": "hidden",
            "timestamp": 1772770595560
          },
          {
            "event": "focus",
            "state": "focused",
            "timestamp": 1772770815456
          },
          {
            "event": "visibilitychange",
            "state": "visible",
            "timestamp": 1772770815456
          }
        ]
      },
      "calibration": {
        "monitorWidthCm": 38,
        "viewingDistanceCm": 54,
        "pixelsPerDegree": 50
      },
      "parameters": {
        "coherence": 0.4,
        "apertureDeg": 5,
        "densityDotsPerDeg2": 40,
        "dotDiameterDeg": 0.035,
        "dotSpeedDegPerSec": 3,
        "lifetimeMs": 200,
        "fixationDurationMs": 1500,
        "faceDurationMs": 1500,
        "testDurationMs": 2000,
        "catchResponseMs": 3000
      },
      "prolific": {
        "prolificPid": "691cd74b81042199a5384f6c",
        "studyId": "",
        "sessionId": ""
      },
      "timing": {
        "startTime": "2026-03-06T04:16:27.522Z",
        "endTime": "2026-03-06T04:38:09.408Z",
        "totalElapsedTimeMs": 1301886
      }
    },
    "trials": [
      {
        "trial_number": 0,
        "trial_index": 90,
        "rt": 993,
        "correct": true,
        "response": "ArrowRight",
        "congruent": false,
        "gazeTowards": false,
        "gazeCondition": "away",
        "faceOnLeft": false,
        "impliedDirection": 180,
        "testDirection": 0,
        "avgFps": 30,
        "minFps": 30,
        "maxFps": 30,
        "totalFrames": 29,
        "frameRates": 30
      },
      {
        "trial_number": 1,
        "trial_index": 95,
        "rt": 1503,
        "correct": true,
        "response": "ArrowRight",
        "congruent": true,
        "gazeTowards": true,
        "gazeCondition": "towards",
        "faceOnLeft": true,
        "impliedDirection": 0,
        "testDirection": 0,
        "avgFps": 30,
        "minFps": 29,
        "maxFps": 31,
        "totalFrames": 45,
        "frameRates": 30
      },
      {
        "trial_number": 2,
        "trial_index": 100,
        "rt": 799,
        "correct": true,
        "response": "ArrowLeft",
        "congruent": false,
        "gazeTowards": true,
        "gazeCondition": "towards",
        "faceOnLeft": true,
        "impliedDirection": 0,
        "testDirection": 180,
        "avgFps": 30,
        "minFps": 29,
        "maxFps": 31,
        "totalFrames": 24,
        "frameRates": 30
      },
      {
        "trial_number": 3,
        "trial_index": 105,
        "rt": 810,
        "correct": true,
        "response": "ArrowLeft",
        "congruent": false,
        "gazeTowards": false,
        "gazeCondition": "away",
        "faceOnLeft": true,
        "impliedDirection": 0,
        "testDirection": 180,
        "avgFps": 30,
        "minFps": 29,
        "maxFps": 31,
        "totalFrames": 24,
        "frameRates": 30
      },
      {
        "trial_number": 4,
        "trial_index": 110,
        "rt": 863,
        "correct": true,
        "response": "ArrowLeft",
        "congruent": false,
        "gazeTowards": false,
        "gazeCondition": "away",
        "faceOnLeft": true,
        "impliedDirection": 0,
        "testDirection": 180,
        "avgFps": 30,
        "minFps": 29,
        "maxFps": 31,
        "totalFrames": 26,
        "frameRates": 30
      },
      {
        "trial_number": 5,
        "trial_index": 115,
        "rt": 851,
        "correct": true,
        "response": "ArrowRight",
        "congruent": true,
        "gazeTowards": true,
        "gazeCondition": "towards",
        "faceOnLeft": true,
        "impliedDirection": 0,
        "testDirection": 0,
        "avgFps": 30,
        "minFps": 30,
        "maxFps": 30,
        "totalFrames": 25,
        "frameRates": 30
      },
      {
        "trial_number": 6,
        "trial_index": 120,
        "rt": 615,
        "correct": true,
        "response": "ArrowLeft",
        "congruent": false,
        "gazeTowards": true,
        "gazeCondition": "towards",
        "faceOnLeft": true,
        "impliedDirection": 0,
        "testDirection": 180,
        "avgFps": 30,
        "minFps": 29,
        "maxFps": 31,
        "totalFrames": 18,
        "frameRates": 30
      },
      {
        "trial_number": 7,
        "trial_index": 125,
        "rt": 770,
        "correct": true,
        "response": "ArrowLeft",
        "congruent": true,
        "gazeTowards": false,
        "gazeCondition": "away",
        "faceOnLeft": false,
        "impliedDirection": 180,
        "testDirection": 180,
        "avgFps": 30,
        "minFps": 29,
        "maxFps": 31,
        "totalFrames": 23,
        "frameRates": 30
      },
      {
        "trial_number": 8,
        "trial_index": 130,
        "rt": 672,
        "correct": true,
        "response": "ArrowRight",
        "congruent": false,
        "gazeTowards": false,
        "gazeCondition": "away",
        "faceOnLeft": false,
        "impliedDirection": 180,
        "testDirection": 0,
        "avgFps": 30,
        "minFps": 29,
        "maxFps": 31,
        "totalFrames": 20,
        "frameRates": 30
      },
      {
        "trial_number": 9,
        "trial_index": 135,
        "rt": 604,
        "correct": true,
        "response": "ArrowRight",
        "congruent": true,
        "gazeTowards": false,
        "gazeCondition": "away",
        "faceOnLeft": true,
        "impliedDirection": 0,
        "testDirection": 0,
        "avgFps": 30,
        "minFps": 30,
        "maxFps": 30,
        "totalFrames": 18,
        "frameRates": 30
      },
      {
        "trial_number": 10,
        "trial_index": 140,
        "rt": 677,
        "correct": true,
        "response": "ArrowLeft",
        "congruent": false,
        "gazeTowards": true,
        "gazeCondition": "towards",
        "faceOnLeft": true,
        "impliedDirection": 0,
        "testDirection": 180,
        "avgFps": 30,
        "minFps": 29,
        "maxFps": 31,
        "totalFrames": 20,
        "frameRates": 30
      },
      {
        "trial_number": 11,
        "trial_index": 145,
        "rt": 800,
        "correct": true,
        "response": "ArrowLeft",
        "congruent": false,
        "gazeTowards": false,
        "gazeCondition": "away",
        "faceOnLeft": true,
        "impliedDirection": 0,
        "testDirection": 180,
        "avgFps": 30,
        "minFps": 30,
        "maxFps": 30,
        "totalFrames": 24,
        "frameRates": 30
      },
      {
        "trial_number": 12,
        "trial_index": 150,
        "rt": 629,
        "correct": true,
        "response": "ArrowRight",
        "congruent": true,
        "gazeTowards": false,
        "gazeCondition": "away",
        "faceOnLeft": true,
        "impliedDirection": 0,
        "testDirection": 0,
        "avgFps": 31,
        "minFps": 29,
        "maxFps": 59,
        "totalFrames": 19,
        "frameRates": 31
      },
      {
        "trial_number": 13,
        "trial_index": 155,
        "rt": 711,
        "correct": true,
        "response": "ArrowRight",
        "congruent": false,
        "gazeTowards": false,
        "gazeCondition": "away",
        "faceOnLeft": false,
        "impliedDirection": 180,
        "testDirection": 0,
        "avgFps": 31,
        "minFps": 29,
        "maxFps": 56,
        "totalFrames": 21,
        "frameRates": 31
      },
      {
        "trial_number": 14,
        "trial_index": 160,
        "rt": 590,
        "correct": true,
        "response": "ArrowRight",
        "congruent": true,
        "gazeTowards": true,
        "gazeCondition": "towards",
        "faceOnLeft": true,
        "impliedDirection": 0,
        "testDirection": 0,
        "avgFps": 30,
        "minFps": 30,
        "maxFps": 30,
        "totalFrames": 17,
        "frameRates": 30
      },
      {
        "trial_number": 15,
        "trial_index": 165,
        "rt": 620,
        "correct": true,
        "response": "ArrowLeft",
        "congruent": true,
        "gazeTowards": true,
        "gazeCondition": "towards",
        "faceOnLeft": false,
        "impliedDirection": 180,
        "testDirection": 180,
        "avgFps": 30,
        "minFps": 30,
        "maxFps": 30,
        "totalFrames": 18,
        "frameRates": 30
      },
      {
        "trial_number": 16,
        "trial_index": 170,
        "rt": 703,
        "correct": true,
        "response": "ArrowRight",
        "congruent": true,
        "gazeTowards": true,
        "gazeCondition": "towards",
        "faceOnLeft": true,
        "impliedDirection": 0,
        "testDirection": 0,
        "avgFps": 30,
        "minFps": 29,
        "maxFps": 31,
        "totalFrames": 21,
        "frameRates": 30
      },
      {
        "trial_number": 17,
        "trial_index": 175,
        "rt": 599,
        "correct": true,
        "response": "ArrowLeft",
        "congruent": false,
        "gazeTowards": false,
        "gazeCondition": "away",
        "faceOnLeft": true,
        "impliedDirection": 0,
        "testDirection": 180,
        "avgFps": 30,
        "minFps": 29,
        "maxFps": 31,
        "totalFrames": 18,
        "frameRates": 30
      },
      {
        "trial_number": 18,
        "trial_index": 180,
        "rt": 811,
        "correct": true,
        "response": "ArrowLeft",
        "congruent": false,
        "gazeTowards": false,
        "gazeCondition": "away",
        "faceOnLeft": true,
        "impliedDirection": 0,
        "testDirection": 180,
        "avgFps": 30,
        "minFps": 30,
        "maxFps": 30,
        "totalFrames": 24,
        "frameRates": 30
      },
      {
        "trial_number": 19,
        "trial_index": 185,
        "rt": 664,
        "correct": false,
        "response": "ArrowRight",
        "congruent": false,
        "gazeTowards": true,
        "gazeCondition": "towards",
        "faceOnLeft": true,
        "impliedDirection": 0,
        "testDirection": 180,
        "avgFps": 30,
        "minFps": 29,
        "maxFps": 30,
        "totalFrames": 20,
        "frameRates": 30
      },
      {
        "trial_number": 20,
        "trial_index": 190,
        "rt": 1637,
        "correct": true,
        "response": "ArrowLeft",
        "congruent": false,
        "gazeTowards": false,
        "gazeCondition": "away",
        "faceOnLeft": true,
        "impliedDirection": 0,
        "testDirection": 180,
        "avgFps": 30,
        "minFps": 30,
        "maxFps": 56,
        "totalFrames": 49,
        "frameRates": 30
      },
      {
        "trial_number": 21,
        "trial_index": 195,
        "rt": 734,
        "correct": true,
        "response": "ArrowLeft",
        "congruent": true,
        "gazeTowards": false,
        "gazeCondition": "away",
        "faceOnLeft": false,
        "impliedDirection": 180,
        "testDirection": 180,
        "avgFps": 30,
        "minFps": 30,
        "maxFps": 30,
        "totalFrames": 22,
        "frameRates": 30
      },
      {
        "trial_number": 22,
        "trial_index": 200,
        "rt": 1294,
        "correct": true,
        "response": "ArrowRight",
        "congruent": true,
        "gazeTowards": false,
        "gazeCondition": "away",
        "faceOnLeft": true,
        "impliedDirection": 0,
        "testDirection": 0,
        "avgFps": 30,
        "minFps": 30,
        "maxFps": 30,
        "totalFrames": 39,
        "frameRates": 30
      },
      {
        "trial_number": 23,
        "trial_index": 205,
        "rt": 1223,
        "correct": true,
        "response": "ArrowRight",
        "congruent": true,
        "gazeTowards": true,
        "gazeCondition": "towards",
        "faceOnLeft": true,
        "impliedDirection": 0,
        "testDirection": 0,
        "avgFps": 30,
        "minFps": 30,
        "maxFps": 30,
        "totalFrames": 36,
        "frameRates": 30
      },
      {
        "trial_number": 24,
        "trial_index": 210,
        "rt": 771,
        "correct": true,
        "response": "ArrowRight",
        "congruent": true,
        "gazeTowards": true,
        "gazeCondition": "towards",
        "faceOnLeft": true,
        "impliedDirection": 0,
        "testDirection": 0,
        "avgFps": 30,
        "minFps": 30,
        "maxFps": 30,
        "totalFrames": 23,
        "frameRates": 30
      },
      {
        "trial_number": 25,
        "trial_index": 215,
        "rt": 818,
        "correct": true,
        "response": "ArrowRight",
        "congruent": false,
        "gazeTowards": true,
        "gazeCondition": "towards",
        "faceOnLeft": false,
        "impliedDirection": 180,
        "testDirection": 0,
        "avgFps": 30,
        "minFps": 30,
        "maxFps": 30,
        "totalFrames": 24,
        "frameRates": 30
      },
      {
        "trial_number": 26,
        "trial_index": 223,
        "rt": 776,
        "correct": true,
        "response": "ArrowLeft",
        "congruent": true,
        "gazeTowards": false,
        "gazeCondition": "away",
        "faceOnLeft": false,
        "impliedDirection": 180,
        "testDirection": 180,
        "avgFps": 30,
        "minFps": 30,
        "maxFps": 30,
        "totalFrames": 23,
        "frameRates": 30
      },
      {
        "trial_number": 27,
        "trial_index": 228,
        "rt": 1055,
        "correct": false,
        "response": "ArrowLeft",
        "congruent": true,
        "gazeTowards": true,
        "gazeCondition": "towards",
        "faceOnLeft": true,
        "impliedDirection": 0,
        "testDirection": 0,
        "avgFps": 30,
        "minFps": 30,
        "maxFps": 30,
        "totalFrames": 31,
        "frameRates": 30
      },
      {
        "trial_number": 28,
        "trial_index": 233,
        "rt": 1262,
        "correct": true,
        "response": "ArrowLeft",
        "congruent": false,
        "gazeTowards": false,
        "gazeCondition": "away",
        "faceOnLeft": true,
        "impliedDirection": 0,
        "testDirection": 180,
        "avgFps": 30,
        "minFps": 29,
        "maxFps": 31,
        "totalFrames": 38,
        "frameRates": 30
      },
      {
        "trial_number": 29,
        "trial_index": 238,
        "rt": 810,
        "correct": true,
        "response": "ArrowRight",
        "congruent": true,
        "gazeTowards": true,
        "gazeCondition": "towards",
        "faceOnLeft": true,
        "impliedDirection": 0,
        "testDirection": 0,
        "avgFps": 30,
        "minFps": 29,
        "maxFps": 31,
        "totalFrames": 24,
        "frameRates": 30
      },
      {
        "trial_number": 30,
        "trial_index": 246,
        "rt": 1097,
        "correct": true,
        "response": "ArrowRight",
        "congruent": false,
        "gazeTowards": true,
        "gazeCondition": "towards",
        "faceOnLeft": false,
        "impliedDirection": 180,
        "testDirection": 0,
        "avgFps": 30,
        "minFps": 30,
        "maxFps": 30,
        "totalFrames": 33,
        "frameRates": 30
      },
      {
        "trial_number": 31,
        "trial_index": 252,
        "rt": 793,
        "correct": true,
        "response": "ArrowRight",
        "congruent": false,
        "gazeTowards": false,
        "gazeCondition": "away",
        "faceOnLeft": false,
        "impliedDirection": 180,
        "testDirection": 0,
        "avgFps": 30,
        "minFps": 30,
        "maxFps": 30,
        "totalFrames": 23,
        "frameRates": 30
      },
      {
        "trial_number": 32,
        "trial_index": 257,
        "rt": 807,
        "correct": true,
        "response": "ArrowLeft",
        "congruent": true,
        "gazeTowards": true,
        "gazeCondition": "towards",
        "faceOnLeft": false,
        "impliedDirection": 180,
        "testDirection": 180,
        "avgFps": 30,
        "minFps": 30,
        "maxFps": 30,
        "totalFrames": 24,
        "frameRates": 30
      },
      {
        "trial_number": 33,
        "trial_index": 262,
        "rt": 1203,
        "correct": true,
        "response": "ArrowLeft",
        "congruent": false,
        "gazeTowards": false,
        "gazeCondition": "away",
        "faceOnLeft": true,
        "impliedDirection": 0,
        "testDirection": 180,
        "avgFps": 30,
        "minFps": 29,
        "maxFps": 31,
        "totalFrames": 36,
        "frameRates": 30
      },
      {
        "trial_number": 34,
        "trial_index": 267,
        "rt": 619,
        "correct": true,
        "response": "ArrowRight",
        "congruent": true,
        "gazeTowards": true,
        "gazeCondition": "towards",
        "faceOnLeft": true,
        "impliedDirection": 0,
        "testDirection": 0,
        "avgFps": 30,
        "minFps": 29,
        "maxFps": 31,
        "totalFrames": 18,
        "frameRates": 30
      },
      {
        "trial_number": 35,
        "trial_index": 275,
        "rt": 729,
        "correct": true,
        "response": "ArrowRight",
        "congruent": false,
        "gazeTowards": true,
        "gazeCondition": "towards",
        "faceOnLeft": false,
        "impliedDirection": 180,
        "testDirection": 0,
        "avgFps": 30,
        "minFps": 29,
        "maxFps": 31,
        "totalFrames": 22,
        "frameRates": 30
      },
      {
        "trial_number": 36,
        "trial_index": 280,
        "rt": 723,
        "correct": true,
        "response": "ArrowRight",
        "congruent": false,
        "gazeTowards": true,
        "gazeCondition": "towards",
        "faceOnLeft": false,
        "impliedDirection": 180,
        "testDirection": 0,
        "avgFps": 30,
        "minFps": 29,
        "maxFps": 31,
        "totalFrames": 21,
        "frameRates": 30
      },
      {
        "trial_number": 37,
        "trial_index": 285,
        "rt": 513,
        "correct": false,
        "response": "ArrowRight",
        "congruent": true,
        "gazeTowards": true,
        "gazeCondition": "towards",
        "faceOnLeft": false,
        "impliedDirection": 180,
        "testDirection": 180,
        "avgFps": 30,
        "minFps": 29,
        "maxFps": 31,
        "totalFrames": 15,
        "frameRates": 30
      },
      {
        "trial_number": 38,
        "trial_index": 290,
        "rt": 1037,
        "correct": true,
        "response": "ArrowLeft",
        "congruent": true,
        "gazeTowards": false,
        "gazeCondition": "away",
        "faceOnLeft": false,
        "impliedDirection": 180,
        "testDirection": 180,
        "avgFps": 30,
        "minFps": 29,
        "maxFps": 31,
        "totalFrames": 31,
        "frameRates": 30
      },
      {
        "trial_number": 39,
        "trial_index": 295,
        "rt": 602,
        "correct": true,
        "response": "ArrowRight",
        "congruent": false,
        "gazeTowards": true,
        "gazeCondition": "towards",
        "faceOnLeft": false,
        "impliedDirection": 180,
        "testDirection": 0,
        "avgFps": 30,
        "minFps": 29,
        "maxFps": 31,
        "totalFrames": 18,
        "frameRates": 30
      },
      {
        "trial_number": 40,
        "trial_index": 300,
        "rt": 823,
        "correct": true,
        "response": "ArrowRight",
        "congruent": true,
        "gazeTowards": true,
        "gazeCondition": "towards",
        "faceOnLeft": true,
        "impliedDirection": 0,
        "testDirection": 0,
        "avgFps": 31,
        "minFps": 29,
        "maxFps": 60,
        "totalFrames": 25,
        "frameRates": 31
      },
      {
        "trial_number": 41,
        "trial_index": 305,
        "rt": 790,
        "correct": true,
        "response": "ArrowRight",
        "congruent": true,
        "gazeTowards": false,
        "gazeCondition": "away",
        "faceOnLeft": true,
        "impliedDirection": 0,
        "testDirection": 0,
        "avgFps": 30,
        "minFps": 29,
        "maxFps": 31,
        "totalFrames": 23,
        "frameRates": 30
      },
      {
        "trial_number": 42,
        "trial_index": 316,
        "rt": 920,
        "correct": true,
        "response": "ArrowLeft",
        "congruent": false,
        "gazeTowards": false,
        "gazeCondition": "away",
        "faceOnLeft": true,
        "impliedDirection": 0,
        "testDirection": 180,
        "avgFps": 30,
        "minFps": 29,
        "maxFps": 31,
        "totalFrames": 27,
        "frameRates": 30
      },
      {
        "trial_number": 43,
        "trial_index": 321,
        "rt": 567,
        "correct": true,
        "response": "ArrowRight",
        "congruent": true,
        "gazeTowards": false,
        "gazeCondition": "away",
        "faceOnLeft": true,
        "impliedDirection": 0,
        "testDirection": 0,
        "avgFps": 30,
        "minFps": 29,
        "maxFps": 31,
        "totalFrames": 17,
        "frameRates": 30
      },
      {
        "trial_number": 44,
        "trial_index": 326,
        "rt": 717,
        "correct": true,
        "response": "ArrowLeft",
        "congruent": false,
        "gazeTowards": false,
        "gazeCondition": "away",
        "faceOnLeft": true,
        "impliedDirection": 0,
        "testDirection": 180,
        "avgFps": 31,
        "minFps": 29,
        "maxFps": 60,
        "totalFrames": 21,
        "frameRates": 31
      },
      {
        "trial_number": 45,
        "trial_index": 331,
        "rt": 603,
        "correct": false,
        "response": "ArrowRight",
        "congruent": true,
        "gazeTowards": true,
        "gazeCondition": "towards",
        "faceOnLeft": false,
        "impliedDirection": 180,
        "testDirection": 180,
        "avgFps": 30,
        "minFps": 30,
        "maxFps": 30,
        "totalFrames": 18,
        "frameRates": 30
      },
      {
        "trial_number": 46,
        "trial_index": 336,
        "rt": 598,
        "correct": true,
        "response": "ArrowRight",
        "congruent": false,
        "gazeTowards": false,
        "gazeCondition": "away",
        "faceOnLeft": false,
        "impliedDirection": 180,
        "testDirection": 0,
        "avgFps": 30,
        "minFps": 29,
        "maxFps": 31,
        "totalFrames": 18,
        "frameRates": 30
      },
      {
        "trial_number": 47,
        "trial_index": 341,
        "rt": 601,
        "correct": true,
        "response": "ArrowRight",
        "congruent": true,
        "gazeTowards": true,
        "gazeCondition": "towards",
        "faceOnLeft": true,
        "impliedDirection": 0,
        "testDirection": 0,
        "avgFps": 30,
        "minFps": 29,
        "maxFps": 31,
        "totalFrames": 18,
        "frameRates": 30
      },
      {
        "trial_number": 48,
        "trial_index": 346,
        "rt": 637,
        "correct": true,
        "response": "ArrowRight",
        "congruent": false,
        "gazeTowards": true,
        "gazeCondition": "towards",
        "faceOnLeft": false,
        "impliedDirection": 180,
        "testDirection": 0,
        "avgFps": 31,
        "minFps": 29,
        "maxFps": 63,
        "totalFrames": 19,
        "frameRates": 31
      },
      {
        "trial_number": 49,
        "trial_index": 351,
        "rt": 775,
        "correct": true,
        "response": "ArrowLeft",
        "congruent": true,
        "gazeTowards": false,
        "gazeCondition": "away",
        "faceOnLeft": false,
        "impliedDirection": 180,
        "testDirection": 180,
        "avgFps": 30,
        "minFps": 29,
        "maxFps": 31,
        "totalFrames": 23,
        "frameRates": 30
      },
      {
        "trial_number": 50,
        "trial_index": 356,
        "rt": 701,
        "correct": true,
        "response": "ArrowLeft",
        "congruent": false,
        "gazeTowards": true,
        "gazeCondition": "towards",
        "faceOnLeft": true,
        "impliedDirection": 0,
        "testDirection": 180,
        "avgFps": 30,
        "minFps": 29,
        "maxFps": 31,
        "totalFrames": 21,
        "frameRates": 30
      },
      {
        "trial_number": 51,
        "trial_index": 361,
        "rt": 768,
        "correct": true,
        "response": "ArrowLeft",
        "congruent": true,
        "gazeTowards": true,
        "gazeCondition": "towards",
        "faceOnLeft": false,
        "impliedDirection": 180,
        "testDirection": 180,
        "avgFps": 30,
        "minFps": 29,
        "maxFps": 31,
        "totalFrames": 23,
        "frameRates": 30
      },
      {
        "trial_number": 52,
        "trial_index": 366,
        "rt": 844,
        "correct": false,
        "response": "ArrowRight",
        "congruent": true,
        "gazeTowards": true,
        "gazeCondition": "towards",
        "faceOnLeft": false,
        "impliedDirection": 180,
        "testDirection": 180,
        "avgFps": 30,
        "minFps": 30,
        "maxFps": 30,
        "totalFrames": 25,
        "frameRates": 30
      },
      {
        "trial_number": 53,
        "trial_index": 371,
        "rt": 644,
        "correct": false,
        "response": "ArrowRight",
        "congruent": true,
        "gazeTowards": false,
        "gazeCondition": "away",
        "faceOnLeft": false,
        "impliedDirection": 180,
        "testDirection": 180,
        "avgFps": 30,
        "minFps": 29,
        "maxFps": 31,
        "totalFrames": 19,
        "frameRates": 30
      },
      {
        "trial_number": 54,
        "trial_index": 376,
        "rt": 787,
        "correct": true,
        "response": "ArrowLeft",
        "congruent": true,
        "gazeTowards": false,
        "gazeCondition": "away",
        "faceOnLeft": false,
        "impliedDirection": 180,
        "testDirection": 180,
        "avgFps": 30,
        "minFps": 30,
        "maxFps": 30,
        "totalFrames": 23,
        "frameRates": 30
      },
      {
        "trial_number": 55,
        "trial_index": 381,
        "rt": 572,
        "correct": true,
        "response": "ArrowRight",
        "congruent": true,
        "gazeTowards": false,
        "gazeCondition": "away",
        "faceOnLeft": true,
        "impliedDirection": 0,
        "testDirection": 0,
        "avgFps": 30,
        "minFps": 30,
        "maxFps": 30,
        "totalFrames": 17,
        "frameRates": 30
      },
      {
        "trial_number": 56,
        "trial_index": 386,
        "rt": 782,
        "correct": true,
        "response": "ArrowLeft",
        "congruent": true,
        "gazeTowards": false,
        "gazeCondition": "away",
        "faceOnLeft": false,
        "impliedDirection": 180,
        "testDirection": 180,
        "avgFps": 30,
        "minFps": 30,
        "maxFps": 30,
        "totalFrames": 23,
        "frameRates": 30
      },
      {
        "trial_number": 57,
        "trial_index": 391,
        "rt": 745,
        "correct": true,
        "response": "ArrowRight",
        "congruent": false,
        "gazeTowards": true,
        "gazeCondition": "towards",
        "faceOnLeft": false,
        "impliedDirection": 180,
        "testDirection": 0,
        "avgFps": 30,
        "minFps": 29,
        "maxFps": 31,
        "totalFrames": 22,
        "frameRates": 30
      },
      {
        "trial_number": 58,
        "trial_index": 399,
        "rt": 705,
        "correct": true,
        "response": "ArrowRight",
        "congruent": true,
        "gazeTowards": false,
        "gazeCondition": "away",
        "faceOnLeft": true,
        "impliedDirection": 0,
        "testDirection": 0,
        "avgFps": 30,
        "minFps": 30,
        "maxFps": 30,
        "totalFrames": 21,
        "frameRates": 30
      },
      {
        "trial_number": 59,
        "trial_index": 404,
        "rt": 1121,
        "correct": true,
        "response": "ArrowLeft",
        "congruent": false,
        "gazeTowards": true,
        "gazeCondition": "towards",
        "faceOnLeft": true,
        "impliedDirection": 0,
        "testDirection": 180,
        "avgFps": 30,
        "minFps": 29,
        "maxFps": 31,
        "totalFrames": 33,
        "frameRates": 30
      },
      {
        "trial_number": 60,
        "trial_index": 410,
        "rt": 743,
        "correct": true,
        "response": "ArrowRight",
        "congruent": false,
        "gazeTowards": true,
        "gazeCondition": "towards",
        "faceOnLeft": false,
        "impliedDirection": 180,
        "testDirection": 0,
        "avgFps": 30,
        "minFps": 30,
        "maxFps": 30,
        "totalFrames": 22,
        "frameRates": 30
      },
      {
        "trial_number": 61,
        "trial_index": 415,
        "rt": 923,
        "correct": true,
        "response": "ArrowRight",
        "congruent": false,
        "gazeTowards": false,
        "gazeCondition": "away",
        "faceOnLeft": false,
        "impliedDirection": 180,
        "testDirection": 0,
        "avgFps": 30,
        "minFps": 29,
        "maxFps": 31,
        "totalFrames": 27,
        "frameRates": 30
      },
      {
        "trial_number": 62,
        "trial_index": 420,
        "rt": 692,
        "correct": true,
        "response": "ArrowLeft",
        "congruent": true,
        "gazeTowards": false,
        "gazeCondition": "away",
        "faceOnLeft": false,
        "impliedDirection": 180,
        "testDirection": 180,
        "avgFps": 30,
        "minFps": 29,
        "maxFps": 31,
        "totalFrames": 21,
        "frameRates": 30
      },
      {
        "trial_number": 63,
        "trial_index": 425,
        "rt": 989,
        "correct": true,
        "response": "ArrowRight",
        "congruent": true,
        "gazeTowards": false,
        "gazeCondition": "away",
        "faceOnLeft": true,
        "impliedDirection": 0,
        "testDirection": 0,
        "avgFps": 30,
        "minFps": 30,
        "maxFps": 30,
        "totalFrames": 29,
        "frameRates": 30
      },
      {
        "trial_number": 64,
        "trial_index": 430,
        "rt": 698,
        "correct": true,
        "response": "ArrowRight",
        "congruent": false,
        "gazeTowards": false,
        "gazeCondition": "away",
        "faceOnLeft": false,
        "impliedDirection": 180,
        "testDirection": 0,
        "avgFps": 30,
        "minFps": 30,
        "maxFps": 30,
        "totalFrames": 21,
        "frameRates": 30
      },
      {
        "trial_number": 65,
        "trial_index": 441,
        "rt": 687,
        "correct": true,
        "response": "ArrowRight",
        "congruent": false,
        "gazeTowards": false,
        "gazeCondition": "away",
        "faceOnLeft": false,
        "impliedDirection": 180,
        "testDirection": 0,
        "avgFps": 31,
        "minFps": 29,
        "maxFps": 61,
        "totalFrames": 21,
        "frameRates": 31
      },
      {
        "trial_number": 66,
        "trial_index": 446,
        "rt": 664,
        "correct": true,
        "response": "ArrowRight",
        "congruent": false,
        "gazeTowards": true,
        "gazeCondition": "towards",
        "faceOnLeft": false,
        "impliedDirection": 180,
        "testDirection": 0,
        "avgFps": 30,
        "minFps": 30,
        "maxFps": 30,
        "totalFrames": 20,
        "frameRates": 30
      },
      {
        "trial_number": 67,
        "trial_index": 451,
        "rt": 661,
        "correct": true,
        "response": "ArrowLeft",
        "congruent": false,
        "gazeTowards": false,
        "gazeCondition": "away",
        "faceOnLeft": true,
        "impliedDirection": 0,
        "testDirection": 180,
        "avgFps": 30,
        "minFps": 29,
        "maxFps": 31,
        "totalFrames": 20,
        "frameRates": 30
      },
      {
        "trial_number": 68,
        "trial_index": 456,
        "rt": 563,
        "correct": true,
        "response": "ArrowRight",
        "congruent": false,
        "gazeTowards": false,
        "gazeCondition": "away",
        "faceOnLeft": false,
        "impliedDirection": 180,
        "testDirection": 0,
        "avgFps": 30,
        "minFps": 29,
        "maxFps": 31,
        "totalFrames": 16,
        "frameRates": 30
      },
      {
        "trial_number": 69,
        "trial_index": 461,
        "rt": 659,
        "correct": true,
        "response": "ArrowLeft",
        "congruent": true,
        "gazeTowards": true,
        "gazeCondition": "towards",
        "faceOnLeft": false,
        "impliedDirection": 180,
        "testDirection": 180,
        "avgFps": 30,
        "minFps": 30,
        "maxFps": 30,
        "totalFrames": 19,
        "frameRates": 30
      },
      {
        "trial_number": 70,
        "trial_index": 466,
        "rt": 1037,
        "correct": true,
        "response": "ArrowLeft",
        "congruent": false,
        "gazeTowards": false,
        "gazeCondition": "away",
        "faceOnLeft": true,
        "impliedDirection": 0,
        "testDirection": 180,
        "avgFps": 30,
        "minFps": 29,
        "maxFps": 59,
        "totalFrames": 31,
        "frameRates": 30
      },
      {
        "trial_number": 71,
        "trial_index": 471,
        "rt": 639,
        "correct": true,
        "response": "ArrowLeft",
        "congruent": false,
        "gazeTowards": true,
        "gazeCondition": "towards",
        "faceOnLeft": true,
        "impliedDirection": 0,
        "testDirection": 180,
        "avgFps": 31,
        "minFps": 30,
        "maxFps": 60,
        "totalFrames": 19,
        "frameRates": 31
      },
      {
        "trial_number": 72,
        "trial_index": 476,
        "rt": 936,
        "correct": true,
        "response": "ArrowLeft",
        "congruent": false,
        "gazeTowards": true,
        "gazeCondition": "towards",
        "faceOnLeft": true,
        "impliedDirection": 0,
        "testDirection": 180,
        "avgFps": 30,
        "minFps": 29,
        "maxFps": 31,
        "totalFrames": 28,
        "frameRates": 30
      },
      {
        "trial_number": 73,
        "trial_index": 481,
        "rt": 782,
        "correct": true,
        "response": "ArrowLeft",
        "congruent": false,
        "gazeTowards": false,
        "gazeCondition": "away",
        "faceOnLeft": true,
        "impliedDirection": 0,
        "testDirection": 180,
        "avgFps": 30,
        "minFps": 29,
        "maxFps": 31,
        "totalFrames": 23,
        "frameRates": 30
      },
      {
        "trial_number": 74,
        "trial_index": 486,
        "rt": 646,
        "correct": true,
        "response": "ArrowRight",
        "congruent": false,
        "gazeTowards": true,
        "gazeCondition": "towards",
        "faceOnLeft": false,
        "impliedDirection": 180,
        "testDirection": 0,
        "avgFps": 31,
        "minFps": 29,
        "maxFps": 60,
        "totalFrames": 19,
        "frameRates": 31
      },
      {
        "trial_number": 75,
        "trial_index": 491,
        "rt": 695,
        "correct": true,
        "response": "ArrowRight",
        "congruent": true,
        "gazeTowards": true,
        "gazeCondition": "towards",
        "faceOnLeft": true,
        "impliedDirection": 0,
        "testDirection": 0,
        "avgFps": 30,
        "minFps": 29,
        "maxFps": 31,
        "totalFrames": 21,
        "frameRates": 30
      },
      {
        "trial_number": 76,
        "trial_index": 496,
        "rt": 800,
        "correct": true,
        "response": "ArrowLeft",
        "congruent": false,
        "gazeTowards": false,
        "gazeCondition": "away",
        "faceOnLeft": true,
        "impliedDirection": 0,
        "testDirection": 180,
        "avgFps": 30,
        "minFps": 30,
        "maxFps": 30,
        "totalFrames": 24,
        "frameRates": 30
      },
      {
        "trial_number": 77,
        "trial_index": 501,
        "rt": 619,
        "correct": true,
        "response": "ArrowRight",
        "congruent": false,
        "gazeTowards": false,
        "gazeCondition": "away",
        "faceOnLeft": false,
        "impliedDirection": 180,
        "testDirection": 0,
        "avgFps": 30,
        "minFps": 30,
        "maxFps": 30,
        "totalFrames": 18,
        "frameRates": 30
      },
      {
        "trial_number": 78,
        "trial_index": 506,
        "rt": 766,
        "correct": true,
        "response": "ArrowLeft",
        "congruent": true,
        "gazeTowards": false,
        "gazeCondition": "away",
        "faceOnLeft": false,
        "impliedDirection": 180,
        "testDirection": 180,
        "avgFps": 30,
        "minFps": 30,
        "maxFps": 30,
        "totalFrames": 23,
        "frameRates": 30
      },
      {
        "trial_number": 79,
        "trial_index": 511,
        "rt": 818,
        "correct": true,
        "response": "ArrowRight",
        "congruent": true,
        "gazeTowards": true,
        "gazeCondition": "towards",
        "faceOnLeft": true,
        "impliedDirection": 0,
        "testDirection": 0,
        "avgFps": 30,
        "minFps": 30,
        "maxFps": 30,
        "totalFrames": 24,
        "frameRates": 30
      },
      {
        "trial_number": 80,
        "trial_index": 519,
        "rt": 865,
        "correct": true,
        "response": "ArrowRight",
        "congruent": false,
        "gazeTowards": true,
        "gazeCondition": "towards",
        "faceOnLeft": false,
        "impliedDirection": 180,
        "testDirection": 0,
        "avgFps": 30,
        "minFps": 29,
        "maxFps": 31,
        "totalFrames": 26,
        "frameRates": 30
      },
      {
        "trial_number": 81,
        "trial_index": 524,
        "rt": 764,
        "correct": true,
        "response": "ArrowLeft",
        "congruent": false,
        "gazeTowards": true,
        "gazeCondition": "towards",
        "faceOnLeft": true,
        "impliedDirection": 0,
        "testDirection": 180,
        "avgFps": 30,
        "minFps": 30,
        "maxFps": 30,
        "totalFrames": 23,
        "frameRates": 30
      },
      {
        "trial_number": 82,
        "trial_index": 529,
        "rt": 839,
        "correct": true,
        "response": "ArrowRight",
        "congruent": true,
        "gazeTowards": false,
        "gazeCondition": "away",
        "faceOnLeft": true,
        "impliedDirection": 0,
        "testDirection": 0,
        "avgFps": 30,
        "minFps": 30,
        "maxFps": 30,
        "totalFrames": 25,
        "frameRates": 30
      },
      {
        "trial_number": 83,
        "trial_index": 534,
        "rt": 962,
        "correct": true,
        "response": "ArrowRight",
        "congruent": true,
        "gazeTowards": true,
        "gazeCondition": "towards",
        "faceOnLeft": true,
        "impliedDirection": 0,
        "testDirection": 0,
        "avgFps": 30,
        "minFps": 30,
        "maxFps": 30,
        "totalFrames": 28,
        "frameRates": 30
      },
      {
        "trial_number": 84,
        "trial_index": 539,
        "rt": 1189,
        "correct": true,
        "response": "ArrowRight",
        "congruent": true,
        "gazeTowards": true,
        "gazeCondition": "towards",
        "faceOnLeft": true,
        "impliedDirection": 0,
        "testDirection": 0,
        "avgFps": 30,
        "minFps": 29,
        "maxFps": 31,
        "totalFrames": 35,
        "frameRates": 30
      },
      {
        "trial_number": 85,
        "trial_index": 547,
        "rt": 873,
        "correct": true,
        "response": "ArrowRight",
        "congruent": true,
        "gazeTowards": true,
        "gazeCondition": "towards",
        "faceOnLeft": true,
        "impliedDirection": 0,
        "testDirection": 0,
        "avgFps": 31,
        "minFps": 29,
        "maxFps": 63,
        "totalFrames": 26,
        "frameRates": 31
      },
      {
        "trial_number": 86,
        "trial_index": 552,
        "rt": 857,
        "correct": true,
        "response": "ArrowLeft",
        "congruent": true,
        "gazeTowards": false,
        "gazeCondition": "away",
        "faceOnLeft": false,
        "impliedDirection": 180,
        "testDirection": 180,
        "avgFps": 30,
        "minFps": 29,
        "maxFps": 31,
        "totalFrames": 26,
        "frameRates": 30
      },
      {
        "trial_number": 87,
        "trial_index": 560,
        "rt": 1463,
        "correct": true,
        "response": "ArrowLeft",
        "congruent": true,
        "gazeTowards": true,
        "gazeCondition": "towards",
        "faceOnLeft": false,
        "impliedDirection": 180,
        "testDirection": 180,
        "avgFps": 30,
        "minFps": 29,
        "maxFps": 31,
        "totalFrames": 44,
        "frameRates": 30
      },
      {
        "trial_number": 88,
        "trial_index": 566,
        "rt": 749,
        "correct": true,
        "response": "ArrowLeft",
        "congruent": true,
        "gazeTowards": false,
        "gazeCondition": "away",
        "faceOnLeft": false,
        "impliedDirection": 180,
        "testDirection": 180,
        "avgFps": 30,
        "minFps": 30,
        "maxFps": 30,
        "totalFrames": 22,
        "frameRates": 30
      },
      {
        "trial_number": 89,
        "trial_index": 571,
        "rt": 761,
        "correct": true,
        "response": "ArrowRight",
        "congruent": true,
        "gazeTowards": false,
        "gazeCondition": "away",
        "faceOnLeft": true,
        "impliedDirection": 0,
        "testDirection": 0,
        "avgFps": 30,
        "minFps": 29,
        "maxFps": 31,
        "totalFrames": 22,
        "frameRates": 30
      },
      {
        "trial_number": 90,
        "trial_index": 576,
        "rt": 779,
        "correct": true,
        "response": "ArrowRight",
        "congruent": true,
        "gazeTowards": false,
        "gazeCondition": "away",
        "faceOnLeft": true,
        "impliedDirection": 0,
        "testDirection": 0,
        "avgFps": 30,
        "minFps": 30,
        "maxFps": 30,
        "totalFrames": 23,
        "frameRates": 30
      },
      {
        "trial_number": 91,
        "trial_index": 581,
        "rt": 842,
        "correct": true,
        "response": "ArrowLeft",
        "congruent": false,
        "gazeTowards": true,
        "gazeCondition": "towards",
        "faceOnLeft": true,
        "impliedDirection": 0,
        "testDirection": 180,
        "avgFps": 30,
        "minFps": 29,
        "maxFps": 31,
        "totalFrames": 25,
        "frameRates": 30
      },
      {
        "trial_number": 92,
        "trial_index": 586,
        "rt": 676,
        "correct": true,
        "response": "ArrowRight",
        "congruent": false,
        "gazeTowards": true,
        "gazeCondition": "towards",
        "faceOnLeft": false,
        "impliedDirection": 180,
        "testDirection": 0,
        "avgFps": 30,
        "minFps": 30,
        "maxFps": 30,
        "totalFrames": 20,
        "frameRates": 30
      },
      {
        "trial_number": 93,
        "trial_index": 591,
        "rt": 797,
        "correct": true,
        "response": "ArrowRight",
        "congruent": true,
        "gazeTowards": false,
        "gazeCondition": "away",
        "faceOnLeft": true,
        "impliedDirection": 0,
        "testDirection": 0,
        "avgFps": 30,
        "minFps": 30,
        "maxFps": 30,
        "totalFrames": 24,
        "frameRates": 30
      },
      {
        "trial_number": 94,
        "trial_index": 599,
        "rt": 753,
        "correct": true,
        "response": "ArrowLeft",
        "congruent": true,
        "gazeTowards": false,
        "gazeCondition": "away",
        "faceOnLeft": false,
        "impliedDirection": 180,
        "testDirection": 180,
        "avgFps": 31,
        "minFps": 30,
        "maxFps": 60,
        "totalFrames": 23,
        "frameRates": 31
      },
      {
        "trial_number": 95,
        "trial_index": 604,
        "rt": 764,
        "correct": true,
        "response": "ArrowLeft",
        "congruent": true,
        "gazeTowards": true,
        "gazeCondition": "towards",
        "faceOnLeft": false,
        "impliedDirection": 180,
        "testDirection": 180,
        "avgFps": 30,
        "minFps": 30,
        "maxFps": 30,
        "totalFrames": 23,
        "frameRates": 30
      },
      {
        "trial_number": 96,
        "trial_index": 609,
        "rt": 664,
        "correct": true,
        "response": "ArrowRight",
        "congruent": false,
        "gazeTowards": false,
        "gazeCondition": "away",
        "faceOnLeft": false,
        "impliedDirection": 180,
        "testDirection": 0,
        "avgFps": 30,
        "minFps": 30,
        "maxFps": 30,
        "totalFrames": 20,
        "frameRates": 30
      },
      {
        "trial_number": 97,
        "trial_index": 614,
        "rt": 787,
        "correct": true,
        "response": "ArrowRight",
        "congruent": false,
        "gazeTowards": true,
        "gazeCondition": "towards",
        "faceOnLeft": false,
        "impliedDirection": 180,
        "testDirection": 0,
        "avgFps": 30,
        "minFps": 30,
        "maxFps": 30,
        "totalFrames": 23,
        "frameRates": 30
      },
      {
        "trial_number": 98,
        "trial_index": 619,
        "rt": 778,
        "correct": true,
        "response": "ArrowRight",
        "congruent": true,
        "gazeTowards": false,
        "gazeCondition": "away",
        "faceOnLeft": true,
        "impliedDirection": 0,
        "testDirection": 0,
        "avgFps": 30,
        "minFps": 30,
        "maxFps": 30,
        "totalFrames": 23,
        "frameRates": 30
      },
      {
        "trial_number": 99,
        "trial_index": 624,
        "rt": 1139,
        "correct": false,
        "response": "ArrowRight",
        "congruent": false,
        "gazeTowards": true,
        "gazeCondition": "towards",
        "faceOnLeft": true,
        "impliedDirection": 0,
        "testDirection": 180,
        "avgFps": 30,
        "minFps": 30,
        "maxFps": 60,
        "totalFrames": 34,
        "frameRates": 30
      },
      {
        "trial_number": 100,
        "trial_index": 629,
        "rt": 757,
        "correct": true,
        "response": "ArrowRight",
        "congruent": false,
        "gazeTowards": true,
        "gazeCondition": "towards",
        "faceOnLeft": false,
        "impliedDirection": 180,
        "testDirection": 0,
        "avgFps": 30,
        "minFps": 29,
        "maxFps": 31,
        "totalFrames": 22,
        "frameRates": 30
      },
      {
        "trial_number": 101,
        "trial_index": 634,
        "rt": 698,
        "correct": true,
        "response": "ArrowLeft",
        "congruent": false,
        "gazeTowards": true,
        "gazeCondition": "towards",
        "faceOnLeft": true,
        "impliedDirection": 0,
        "testDirection": 180,
        "avgFps": 30,
        "minFps": 30,
        "maxFps": 30,
        "totalFrames": 21,
        "frameRates": 30
      },
      {
        "trial_number": 102,
        "trial_index": 639,
        "rt": 960,
        "correct": true,
        "response": "ArrowLeft",
        "congruent": false,
        "gazeTowards": false,
        "gazeCondition": "away",
        "faceOnLeft": true,
        "impliedDirection": 0,
        "testDirection": 180,
        "avgFps": 30,
        "minFps": 29,
        "maxFps": 31,
        "totalFrames": 29,
        "frameRates": 30
      },
      {
        "trial_number": 103,
        "trial_index": 644,
        "rt": 699,
        "correct": true,
        "response": "ArrowRight",
        "congruent": false,
        "gazeTowards": false,
        "gazeCondition": "away",
        "faceOnLeft": false,
        "impliedDirection": 180,
        "testDirection": 0,
        "avgFps": 30,
        "minFps": 29,
        "maxFps": 31,
        "totalFrames": 21,
        "frameRates": 30
      },
      {
        "trial_number": 104,
        "trial_index": 649,
        "rt": 653,
        "correct": true,
        "response": "ArrowLeft",
        "congruent": false,
        "gazeTowards": true,
        "gazeCondition": "towards",
        "faceOnLeft": true,
        "impliedDirection": 0,
        "testDirection": 180,
        "avgFps": 30,
        "minFps": 30,
        "maxFps": 31,
        "totalFrames": 19,
        "frameRates": 30
      },
      {
        "trial_number": 105,
        "trial_index": 654,
        "rt": 735,
        "correct": true,
        "response": "ArrowRight",
        "congruent": false,
        "gazeTowards": true,
        "gazeCondition": "towards",
        "faceOnLeft": false,
        "impliedDirection": 180,
        "testDirection": 0,
        "avgFps": 30,
        "minFps": 29,
        "maxFps": 31,
        "totalFrames": 22,
        "frameRates": 30
      },
      {
        "trial_number": 106,
        "trial_index": 659,
        "rt": 729,
        "correct": true,
        "response": "ArrowLeft",
        "congruent": false,
        "gazeTowards": false,
        "gazeCondition": "away",
        "faceOnLeft": true,
        "impliedDirection": 0,
        "testDirection": 180,
        "avgFps": 30,
        "minFps": 30,
        "maxFps": 30,
        "totalFrames": 22,
        "frameRates": 30
      },
      {
        "trial_number": 107,
        "trial_index": 664,
        "rt": 816,
        "correct": true,
        "response": "ArrowRight",
        "congruent": true,
        "gazeTowards": true,
        "gazeCondition": "towards",
        "faceOnLeft": true,
        "impliedDirection": 0,
        "testDirection": 0,
        "avgFps": 30,
        "minFps": 29,
        "maxFps": 31,
        "totalFrames": 24,
        "frameRates": 30
      },
      {
        "trial_number": 108,
        "trial_index": 669,
        "rt": 831,
        "correct": true,
        "response": "ArrowLeft",
        "congruent": true,
        "gazeTowards": false,
        "gazeCondition": "away",
        "faceOnLeft": false,
        "impliedDirection": 180,
        "testDirection": 180,
        "avgFps": 30,
        "minFps": 29,
        "maxFps": 31,
        "totalFrames": 25,
        "frameRates": 30
      },
      {
        "trial_number": 109,
        "trial_index": 674,
        "rt": 837,
        "correct": true,
        "response": "ArrowLeft",
        "congruent": false,
        "gazeTowards": true,
        "gazeCondition": "towards",
        "faceOnLeft": true,
        "impliedDirection": 0,
        "testDirection": 180,
        "avgFps": 30,
        "minFps": 30,
        "maxFps": 30,
        "totalFrames": 25,
        "frameRates": 30
      },
      {
        "trial_number": 110,
        "trial_index": 679,
        "rt": 659,
        "correct": true,
        "response": "ArrowRight",
        "congruent": true,
        "gazeTowards": true,
        "gazeCondition": "towards",
        "faceOnLeft": true,
        "impliedDirection": 0,
        "testDirection": 0,
        "avgFps": 30,
        "minFps": 30,
        "maxFps": 30,
        "totalFrames": 20,
        "frameRates": 30
      },
      {
        "trial_number": 111,
        "trial_index": 684,
        "rt": 901,
        "correct": false,
        "response": "ArrowLeft",
        "congruent": true,
        "gazeTowards": true,
        "gazeCondition": "towards",
        "faceOnLeft": true,
        "impliedDirection": 0,
        "testDirection": 0,
        "avgFps": 30,
        "minFps": 30,
        "maxFps": 30,
        "totalFrames": 27,
        "frameRates": 30
      },
      {
        "trial_number": 112,
        "trial_index": 689,
        "rt": 805,
        "correct": true,
        "response": "ArrowLeft",
        "congruent": true,
        "gazeTowards": true,
        "gazeCondition": "towards",
        "faceOnLeft": false,
        "impliedDirection": 180,
        "testDirection": 180,
        "avgFps": 31,
        "minFps": 29,
        "maxFps": 59,
        "totalFrames": 24,
        "frameRates": 31
      },
      {
        "trial_number": 113,
        "trial_index": 694,
        "rt": 969,
        "correct": true,
        "response": "ArrowLeft",
        "congruent": true,
        "gazeTowards": true,
        "gazeCondition": "towards",
        "faceOnLeft": false,
        "impliedDirection": 180,
        "testDirection": 180,
        "avgFps": 30,
        "minFps": 29,
        "maxFps": 31,
        "totalFrames": 29,
        "frameRates": 30
      },
      {
        "trial_number": 114,
        "trial_index": 699,
        "rt": 817,
        "correct": true,
        "response": "ArrowLeft",
        "congruent": false,
        "gazeTowards": false,
        "gazeCondition": "away",
        "faceOnLeft": true,
        "impliedDirection": 0,
        "testDirection": 180,
        "avgFps": 30,
        "minFps": 29,
        "maxFps": 31,
        "totalFrames": 24,
        "frameRates": 30
      },
      {
        "trial_number": 115,
        "trial_index": 704,
        "rt": 1193,
        "correct": true,
        "response": "ArrowLeft",
        "congruent": false,
        "gazeTowards": true,
        "gazeCondition": "towards",
        "faceOnLeft": true,
        "impliedDirection": 0,
        "testDirection": 180,
        "avgFps": 30,
        "minFps": 29,
        "maxFps": 31,
        "totalFrames": 35,
        "frameRates": 30
      },
      {
        "trial_number": 116,
        "trial_index": 709,
        "rt": 612,
        "correct": true,
        "response": "ArrowRight",
        "congruent": true,
        "gazeTowards": false,
        "gazeCondition": "away",
        "faceOnLeft": true,
        "impliedDirection": 0,
        "testDirection": 0,
        "avgFps": 30,
        "minFps": 29,
        "maxFps": 31,
        "totalFrames": 18,
        "frameRates": 30
      },
      {
        "trial_number": 117,
        "trial_index": 714,
        "rt": 1985,
        "correct": true,
        "response": "ArrowRight",
        "congruent": true,
        "gazeTowards": false,
        "gazeCondition": "away",
        "faceOnLeft": true,
        "impliedDirection": 0,
        "testDirection": 0,
        "avgFps": 30,
        "minFps": 29,
        "maxFps": 31,
        "totalFrames": 59,
        "frameRates": 30
      },
      {
        "trial_number": 118,
        "trial_index": 719,
        "rt": 657,
        "correct": true,
        "response": "ArrowLeft",
        "congruent": false,
        "gazeTowards": false,
        "gazeCondition": "away",
        "faceOnLeft": true,
        "impliedDirection": 0,
        "testDirection": 180,
        "avgFps": 30,
        "minFps": 30,
        "maxFps": 30,
        "totalFrames": 20,
        "frameRates": 30
      },
      {
        "trial_number": 119,
        "trial_index": 724,
        "rt": 1132,
        "correct": true,
        "response": "ArrowLeft",
        "congruent": true,
        "gazeTowards": false,
        "gazeCondition": "away",
        "faceOnLeft": false,
        "impliedDirection": 180,
        "testDirection": 180,
        "avgFps": 30,
        "minFps": 29,
        "maxFps": 30,
        "totalFrames": 34,
        "frameRates": 30
      }
    ],
    "catch": {
      "total": 12,
      "correct": 12,
      "accuracy": 100,
      "meanRT": 687,
      "trials": [
        {
          "trial_number": 0,
          "trial_index": 219,
          "rt": 915,
          "correct": true,
          "colorTarget": "face",
          "gazeTowards": false,
          "gazeCondition": "away",
          "faceOnLeft": false
        },
        {
          "trial_number": 1,
          "trial_index": 242,
          "rt": 753,
          "correct": true,
          "colorTarget": "tree",
          "gazeTowards": false,
          "gazeCondition": "away",
          "faceOnLeft": true
        },
        {
          "trial_number": 2,
          "trial_index": 271,
          "rt": 628,
          "correct": true,
          "colorTarget": "face",
          "gazeTowards": true,
          "gazeCondition": "towards",
          "faceOnLeft": true
        },
        {
          "trial_number": 3,
          "trial_index": 309,
          "rt": 641,
          "correct": true,
          "colorTarget": "tree",
          "gazeTowards": false,
          "gazeCondition": "away",
          "faceOnLeft": true
        },
        {
          "trial_number": 4,
          "trial_index": 312,
          "rt": 610,
          "correct": true,
          "colorTarget": "face",
          "gazeTowards": false,
          "gazeCondition": "away",
          "faceOnLeft": true
        },
        {
          "trial_number": 5,
          "trial_index": 395,
          "rt": 708,
          "correct": true,
          "colorTarget": "face",
          "gazeTowards": false,
          "gazeCondition": "away",
          "faceOnLeft": false
        },
        {
          "trial_number": 6,
          "trial_index": 434,
          "rt": 664,
          "correct": true,
          "colorTarget": "tree",
          "gazeTowards": true,
          "gazeCondition": "towards",
          "faceOnLeft": false
        },
        {
          "trial_number": 7,
          "trial_index": 437,
          "rt": 782,
          "correct": true,
          "colorTarget": "face",
          "gazeTowards": true,
          "gazeCondition": "towards",
          "faceOnLeft": false
        },
        {
          "trial_number": 8,
          "trial_index": 515,
          "rt": 706,
          "correct": true,
          "colorTarget": "tree",
          "gazeTowards": true,
          "gazeCondition": "towards",
          "faceOnLeft": true
        },
        {
          "trial_number": 9,
          "trial_index": 543,
          "rt": 625,
          "correct": true,
          "colorTarget": "tree",
          "gazeTowards": true,
          "gazeCondition": "towards",
          "faceOnLeft": false
        },
        {
          "trial_number": 10,
          "trial_index": 556,
          "rt": 617,
          "correct": true,
          "colorTarget": "face",
          "gazeTowards": false,
          "gazeCondition": "away",
          "faceOnLeft": true
        },
        {
          "trial_number": 11,
          "trial_index": 595,
          "rt": 597,
          "correct": true,
          "colorTarget": "tree",
          "gazeTowards": true,
          "gazeCondition": "towards",
          "faceOnLeft": false
        }
      ]
    },
    "practice": {
      "trials": [
        {
          "trial_number": 0,
          "rt": null,
          "correct": false,
          "direction": 180
        },
        {
          "trial_number": 1,
          "rt": 763,
          "correct": true,
          "direction": 0
        },
        {
          "trial_number": 2,
          "rt": 577,
          "correct": true,
          "direction": 180
        },
        {
          "trial_number": 3,
          "rt": 595,
          "correct": true,
          "direction": 0
        },
        {
          "trial_number": 4,
          "rt": 454,
          "correct": false,
          "direction": 0
        },
        {
          "trial_number": 5,
          "rt": 1161,
          "correct": true,
          "direction": 180
        },
        {
          "trial_number": 6,
          "rt": 556,
          "correct": true,
          "direction": 0
        },
        {
          "trial_number": 7,
          "rt": 613,
          "correct": false,
          "direction": 180
        },
        {
          "trial_number": 8,
          "rt": 681,
          "correct": true,
          "direction": 180
        },
        {
          "trial_number": 9,
          "rt": 701,
          "correct": true,
          "direction": 0
        },
        {
          "trial_number": 10,
          "rt": 636,
          "correct": true,
          "direction": 180
        },
        {
          "trial_number": 11,
          "rt": 428,
          "correct": true,
          "direction": 0
        },
        {
          "trial_number": 12,
          "rt": 463,
          "correct": true,
          "direction": 180
        },
        {
          "trial_number": 13,
          "rt": 300,
          "correct": true,
          "direction": 0
        },
        {
          "trial_number": 14,
          "rt": 849,
          "correct": true,
          "direction": 0
        },
        {
          "trial_number": 15,
          "rt": 650,
          "correct": true,
          "direction": 180
        },
        {
          "trial_number": 16,
          "rt": 559,
          "correct": true,
          "direction": 0
        },
        {
          "trial_number": 17,
          "rt": 452,
          "correct": true,
          "direction": 180
        },
        {
          "trial_number": 18,
          "rt": 585,
          "correct": true,
          "direction": 180
        },
        {
          "trial_number": 19,
          "rt": 578,
          "correct": true,
          "direction": 0
        }
      ],
      "meanRT": 611,
      "accuracy": 85
    }
  }
}