{
  "experiment": "rdk-face-1",
  "UUID": "ac36a3e4-015f-4b6e-b4fb-6716cf73144c",
  "data": {
    "session": {
      "experiment_version": "1.8.6",
      "treatment": "faces_towards_away_catch",
      "file_version": "1.8.6",
      "totalTrials": 120,
      "totalTrialsIncludingCatch": 132,
      "conditions": {
        "gazeTowardsCount": 60,
        "gazeAwayCount": 60,
        "gazeTowardsAccuracy": 100,
        "gazeAwayAccuracy": 100
      },
      "session_group": "default",
      "browserData": {
        "os": "Windows",
        "browser": "Chrome",
        "screenResolution": "2560x1440",
        "browserViewport": "2560x1440",
        "devicePixelRatio": 1,
        "colorDepth": 32,
        "hardwareConcurrency": 24,
        "deviceMemory": 8,
        "gpuRenderer": "ANGLE (NVIDIA, NVIDIA GeForce RTX 4070 Laptop GPU (0x00002860) Direct3D11 vs_5_0 ps_5_0, D3D11)",
        "measuredRefreshRateHz": 137
      },
      "attention": {
        "visibilityEvents": []
      },
      "calibration": {
        "monitorWidthCm": 38,
        "viewingDistanceCm": 54,
        "pixelsPerDegree": 50
      },
      "parameters": {
        "coherence": 0.4,
        "apertureDeg": 5,
        "densityDotsPerDeg2": 40,
        "dotDiameterDeg": 0.035,
        "dotSpeedDegPerSec": 3,
        "lifetimeMs": 200,
        "fixationDurationMs": 1500,
        "faceDurationMs": 1500,
        "testDurationMs": 2000,
        "catchResponseMs": 3000
      },
      "prolific": {
        "prolificPid": "5f48e8c79603e33b8f3a3518",
        "studyId": "",
        "sessionId": ""
      },
      "timing": {
        "startTime": "2026-03-06T04:26:31.649Z",
        "endTime": "2026-03-06T04:41:04.546Z",
        "totalElapsedTimeMs": 872897
      }
    },
    "trials": [
      {
        "trial_number": 0,
        "trial_index": 49,
        "rt": 1114,
        "correct": true,
        "response": "ArrowRight",
        "congruent": false,
        "gazeTowards": false,
        "gazeCondition": "away",
        "faceOnLeft": false,
        "impliedDirection": 180,
        "testDirection": 0,
        "avgFps": 144,
        "minFps": 94,
        "maxFps": 323,
        "totalFrames": 160,
        "frameRates": 144
      },
      {
        "trial_number": 1,
        "trial_index": 54,
        "rt": 1024,
        "correct": true,
        "response": "ArrowRight",
        "congruent": false,
        "gazeTowards": true,
        "gazeCondition": "towards",
        "faceOnLeft": false,
        "impliedDirection": 180,
        "testDirection": 0,
        "avgFps": 144,
        "minFps": 122,
        "maxFps": 175,
        "totalFrames": 147,
        "frameRates": 144
      },
      {
        "trial_number": 2,
        "trial_index": 59,
        "rt": 703,
        "correct": true,
        "response": "ArrowLeft",
        "congruent": true,
        "gazeTowards": true,
        "gazeCondition": "towards",
        "faceOnLeft": false,
        "impliedDirection": 180,
        "testDirection": 180,
        "avgFps": 144,
        "minFps": 89,
        "maxFps": 357,
        "totalFrames": 101,
        "frameRates": 144
      },
      {
        "trial_number": 3,
        "trial_index": 64,
        "rt": 802,
        "correct": true,
        "response": "ArrowRight",
        "congruent": true,
        "gazeTowards": true,
        "gazeCondition": "towards",
        "faceOnLeft": true,
        "impliedDirection": 0,
        "testDirection": 0,
        "avgFps": 144,
        "minFps": 85,
        "maxFps": 476,
        "totalFrames": 115,
        "frameRates": 144
      },
      {
        "trial_number": 4,
        "trial_index": 69,
        "rt": 720,
        "correct": true,
        "response": "ArrowLeft",
        "congruent": true,
        "gazeTowards": true,
        "gazeCondition": "towards",
        "faceOnLeft": false,
        "impliedDirection": 180,
        "testDirection": 180,
        "avgFps": 144,
        "minFps": 62,
        "maxFps": 3333,
        "totalFrames": 103,
        "frameRates": 144
      },
      {
        "trial_number": 5,
        "trial_index": 74,
        "rt": 892,
        "correct": true,
        "response": "ArrowRight",
        "congruent": false,
        "gazeTowards": true,
        "gazeCondition": "towards",
        "faceOnLeft": false,
        "impliedDirection": 180,
        "testDirection": 0,
        "avgFps": 143,
        "minFps": 72,
        "maxFps": 625,
        "totalFrames": 127,
        "frameRates": 143
      },
      {
        "trial_number": 6,
        "trial_index": 79,
        "rt": 784,
        "correct": true,
        "response": "ArrowLeft",
        "congruent": true,
        "gazeTowards": false,
        "gazeCondition": "away",
        "faceOnLeft": false,
        "impliedDirection": 180,
        "testDirection": 180,
        "avgFps": 141,
        "minFps": 73,
        "maxFps": 333,
        "totalFrames": 111,
        "frameRates": 141
      },
      {
        "trial_number": 7,
        "trial_index": 84,
        "rt": 1055,
        "correct": true,
        "response": "ArrowLeft",
        "congruent": true,
        "gazeTowards": false,
        "gazeCondition": "away",
        "faceOnLeft": false,
        "impliedDirection": 180,
        "testDirection": 180,
        "avgFps": 143,
        "minFps": 57,
        "maxFps": 323,
        "totalFrames": 151,
        "frameRates": 143
      },
      {
        "trial_number": 8,
        "trial_index": 89,
        "rt": 682,
        "correct": true,
        "response": "ArrowRight",
        "congruent": false,
        "gazeTowards": true,
        "gazeCondition": "towards",
        "faceOnLeft": false,
        "impliedDirection": 180,
        "testDirection": 0,
        "avgFps": 142,
        "minFps": 66,
        "maxFps": 323,
        "totalFrames": 97,
        "frameRates": 142
      },
      {
        "trial_number": 9,
        "trial_index": 94,
        "rt": 921,
        "correct": true,
        "response": "ArrowRight",
        "congruent": true,
        "gazeTowards": true,
        "gazeCondition": "towards",
        "faceOnLeft": true,
        "impliedDirection": 0,
        "testDirection": 0,
        "avgFps": 141,
        "minFps": 70,
        "maxFps": 556,
        "totalFrames": 129,
        "frameRates": 141
      },
      {
        "trial_number": 10,
        "trial_index": 99,
        "rt": 902,
        "correct": true,
        "response": "ArrowRight",
        "congruent": true,
        "gazeTowards": false,
        "gazeCondition": "away",
        "faceOnLeft": true,
        "impliedDirection": 0,
        "testDirection": 0,
        "avgFps": 144,
        "minFps": 90,
        "maxFps": 370,
        "totalFrames": 129,
        "frameRates": 144
      },
      {
        "trial_number": 11,
        "trial_index": 104,
        "rt": 655,
        "correct": true,
        "response": "ArrowLeft",
        "congruent": true,
        "gazeTowards": true,
        "gazeCondition": "towards",
        "faceOnLeft": false,
        "impliedDirection": 180,
        "testDirection": 180,
        "avgFps": 144,
        "minFps": 123,
        "maxFps": 172,
        "totalFrames": 94,
        "frameRates": 144
      },
      {
        "trial_number": 12,
        "trial_index": 109,
        "rt": 556,
        "correct": true,
        "response": "ArrowRight",
        "congruent": true,
        "gazeTowards": false,
        "gazeCondition": "away",
        "faceOnLeft": true,
        "impliedDirection": 0,
        "testDirection": 0,
        "avgFps": 142,
        "minFps": 64,
        "maxFps": 625,
        "totalFrames": 79,
        "frameRates": 142
      },
      {
        "trial_number": 13,
        "trial_index": 114,
        "rt": 848,
        "correct": true,
        "response": "ArrowLeft",
        "congruent": false,
        "gazeTowards": false,
        "gazeCondition": "away",
        "faceOnLeft": true,
        "impliedDirection": 0,
        "testDirection": 180,
        "avgFps": 142,
        "minFps": 66,
        "maxFps": 323,
        "totalFrames": 120,
        "frameRates": 142
      },
      {
        "trial_number": 14,
        "trial_index": 119,
        "rt": 777,
        "correct": true,
        "response": "ArrowLeft",
        "congruent": true,
        "gazeTowards": true,
        "gazeCondition": "towards",
        "faceOnLeft": false,
        "impliedDirection": 180,
        "testDirection": 180,
        "avgFps": 143,
        "minFps": 70,
        "maxFps": 769,
        "totalFrames": 111,
        "frameRates": 143
      },
      {
        "trial_number": 15,
        "trial_index": 124,
        "rt": 605,
        "correct": true,
        "response": "ArrowRight",
        "congruent": true,
        "gazeTowards": false,
        "gazeCondition": "away",
        "faceOnLeft": true,
        "impliedDirection": 0,
        "testDirection": 0,
        "avgFps": 144,
        "minFps": 127,
        "maxFps": 167,
        "totalFrames": 87,
        "frameRates": 144
      },
      {
        "trial_number": 16,
        "trial_index": 129,
        "rt": 988,
        "correct": true,
        "response": "ArrowRight",
        "congruent": false,
        "gazeTowards": true,
        "gazeCondition": "towards",
        "faceOnLeft": false,
        "impliedDirection": 180,
        "testDirection": 0,
        "avgFps": 141,
        "minFps": 60,
        "maxFps": 357,
        "totalFrames": 139,
        "frameRates": 141
      },
      {
        "trial_number": 17,
        "trial_index": 134,
        "rt": 1198,
        "correct": true,
        "response": "ArrowLeft",
        "congruent": true,
        "gazeTowards": true,
        "gazeCondition": "towards",
        "faceOnLeft": false,
        "impliedDirection": 180,
        "testDirection": 180,
        "avgFps": 144,
        "minFps": 82,
        "maxFps": 667,
        "totalFrames": 172,
        "frameRates": 144
      },
      {
        "trial_number": 18,
        "trial_index": 139,
        "rt": 1318,
        "correct": true,
        "response": "ArrowLeft",
        "congruent": true,
        "gazeTowards": true,
        "gazeCondition": "towards",
        "faceOnLeft": false,
        "impliedDirection": 180,
        "testDirection": 180,
        "avgFps": 144,
        "minFps": 85,
        "maxFps": 500,
        "totalFrames": 190,
        "frameRates": 144
      },
      {
        "trial_number": 19,
        "trial_index": 144,
        "rt": 815,
        "correct": true,
        "response": "ArrowLeft",
        "congruent": false,
        "gazeTowards": true,
        "gazeCondition": "towards",
        "faceOnLeft": true,
        "impliedDirection": 0,
        "testDirection": 180,
        "avgFps": 144,
        "minFps": 81,
        "maxFps": 667,
        "totalFrames": 117,
        "frameRates": 144
      },
      {
        "trial_number": 20,
        "trial_index": 149,
        "rt": 1128,
        "correct": true,
        "response": "ArrowLeft",
        "congruent": true,
        "gazeTowards": false,
        "gazeCondition": "away",
        "faceOnLeft": false,
        "impliedDirection": 180,
        "testDirection": 180,
        "avgFps": 142,
        "minFps": 70,
        "maxFps": 625,
        "totalFrames": 161,
        "frameRates": 142
      },
      {
        "trial_number": 21,
        "trial_index": 154,
        "rt": 942,
        "correct": true,
        "response": "ArrowLeft",
        "congruent": true,
        "gazeTowards": false,
        "gazeCondition": "away",
        "faceOnLeft": false,
        "impliedDirection": 180,
        "testDirection": 180,
        "avgFps": 140,
        "minFps": 64,
        "maxFps": 588,
        "totalFrames": 132,
        "frameRates": 140
      },
      {
        "trial_number": 22,
        "trial_index": 159,
        "rt": 1175,
        "correct": true,
        "response": "ArrowLeft",
        "congruent": false,
        "gazeTowards": true,
        "gazeCondition": "towards",
        "faceOnLeft": true,
        "impliedDirection": 0,
        "testDirection": 180,
        "avgFps": 142,
        "minFps": 50,
        "maxFps": 435,
        "totalFrames": 167,
        "frameRates": 142
      },
      {
        "trial_number": 23,
        "trial_index": 167,
        "rt": 1260,
        "correct": true,
        "response": "ArrowRight",
        "congruent": true,
        "gazeTowards": true,
        "gazeCondition": "towards",
        "faceOnLeft": true,
        "impliedDirection": 0,
        "testDirection": 0,
        "avgFps": 142,
        "minFps": 55,
        "maxFps": 476,
        "totalFrames": 179,
        "frameRates": 142
      },
      {
        "trial_number": 24,
        "trial_index": 172,
        "rt": 1309,
        "correct": true,
        "response": "ArrowRight",
        "congruent": false,
        "gazeTowards": false,
        "gazeCondition": "away",
        "faceOnLeft": false,
        "impliedDirection": 180,
        "testDirection": 0,
        "avgFps": 144,
        "minFps": 94,
        "maxFps": 303,
        "totalFrames": 188,
        "frameRates": 144
      },
      {
        "trial_number": 25,
        "trial_index": 177,
        "rt": 1261,
        "correct": true,
        "response": "ArrowRight",
        "congruent": true,
        "gazeTowards": false,
        "gazeCondition": "away",
        "faceOnLeft": true,
        "impliedDirection": 0,
        "testDirection": 0,
        "avgFps": 141,
        "minFps": 63,
        "maxFps": 400,
        "totalFrames": 177,
        "frameRates": 141
      },
      {
        "trial_number": 26,
        "trial_index": 182,
        "rt": 726,
        "correct": true,
        "response": "ArrowLeft",
        "congruent": true,
        "gazeTowards": true,
        "gazeCondition": "towards",
        "faceOnLeft": false,
        "impliedDirection": 180,
        "testDirection": 180,
        "avgFps": 143,
        "minFps": 80,
        "maxFps": 200,
        "totalFrames": 104,
        "frameRates": 143
      },
      {
        "trial_number": 27,
        "trial_index": 187,
        "rt": 981,
        "correct": true,
        "response": "ArrowLeft",
        "congruent": false,
        "gazeTowards": false,
        "gazeCondition": "away",
        "faceOnLeft": true,
        "impliedDirection": 0,
        "testDirection": 180,
        "avgFps": 143,
        "minFps": 98,
        "maxFps": 256,
        "totalFrames": 140,
        "frameRates": 143
      },
      {
        "trial_number": 28,
        "trial_index": 192,
        "rt": 1104,
        "correct": true,
        "response": "ArrowRight",
        "congruent": false,
        "gazeTowards": false,
        "gazeCondition": "away",
        "faceOnLeft": false,
        "impliedDirection": 180,
        "testDirection": 0,
        "avgFps": 144,
        "minFps": 98,
        "maxFps": 556,
        "totalFrames": 159,
        "frameRates": 144
      },
      {
        "trial_number": 29,
        "trial_index": 197,
        "rt": 1559,
        "correct": true,
        "response": "ArrowRight",
        "congruent": false,
        "gazeTowards": false,
        "gazeCondition": "away",
        "faceOnLeft": false,
        "impliedDirection": 180,
        "testDirection": 0,
        "avgFps": 144,
        "minFps": 94,
        "maxFps": 286,
        "totalFrames": 224,
        "frameRates": 144
      },
      {
        "trial_number": 30,
        "trial_index": 202,
        "rt": 1186,
        "correct": true,
        "response": "ArrowLeft",
        "congruent": true,
        "gazeTowards": true,
        "gazeCondition": "towards",
        "faceOnLeft": false,
        "impliedDirection": 180,
        "testDirection": 180,
        "avgFps": 144,
        "minFps": 96,
        "maxFps": 278,
        "totalFrames": 171,
        "frameRates": 144
      },
      {
        "trial_number": 31,
        "trial_index": 207,
        "rt": 1616,
        "correct": true,
        "response": "ArrowRight",
        "congruent": true,
        "gazeTowards": false,
        "gazeCondition": "away",
        "faceOnLeft": true,
        "impliedDirection": 0,
        "testDirection": 0,
        "avgFps": 144,
        "minFps": 85,
        "maxFps": 556,
        "totalFrames": 233,
        "frameRates": 144
      },
      {
        "trial_number": 32,
        "trial_index": 213,
        "rt": 827,
        "correct": true,
        "response": "ArrowRight",
        "congruent": false,
        "gazeTowards": false,
        "gazeCondition": "away",
        "faceOnLeft": false,
        "impliedDirection": 180,
        "testDirection": 0,
        "avgFps": 140,
        "minFps": 61,
        "maxFps": 769,
        "totalFrames": 116,
        "frameRates": 140
      },
      {
        "trial_number": 33,
        "trial_index": 218,
        "rt": 1185,
        "correct": true,
        "response": "ArrowRight",
        "congruent": false,
        "gazeTowards": true,
        "gazeCondition": "towards",
        "faceOnLeft": false,
        "impliedDirection": 180,
        "testDirection": 0,
        "avgFps": 144,
        "minFps": 125,
        "maxFps": 167,
        "totalFrames": 170,
        "frameRates": 144
      },
      {
        "trial_number": 34,
        "trial_index": 223,
        "rt": 555,
        "correct": true,
        "response": "ArrowLeft",
        "congruent": false,
        "gazeTowards": false,
        "gazeCondition": "away",
        "faceOnLeft": true,
        "impliedDirection": 0,
        "testDirection": 180,
        "avgFps": 140,
        "minFps": 64,
        "maxFps": 200,
        "totalFrames": 77,
        "frameRates": 140
      },
      {
        "trial_number": 35,
        "trial_index": 228,
        "rt": 867,
        "correct": true,
        "response": "ArrowLeft",
        "congruent": false,
        "gazeTowards": false,
        "gazeCondition": "away",
        "faceOnLeft": true,
        "impliedDirection": 0,
        "testDirection": 180,
        "avgFps": 144,
        "minFps": 72,
        "maxFps": 943,
        "totalFrames": 124,
        "frameRates": 144
      },
      {
        "trial_number": 36,
        "trial_index": 233,
        "rt": 695,
        "correct": true,
        "response": "ArrowRight",
        "congruent": false,
        "gazeTowards": true,
        "gazeCondition": "towards",
        "faceOnLeft": false,
        "impliedDirection": 180,
        "testDirection": 0,
        "avgFps": 144,
        "minFps": 91,
        "maxFps": 357,
        "totalFrames": 100,
        "frameRates": 144
      },
      {
        "trial_number": 37,
        "trial_index": 238,
        "rt": 848,
        "correct": true,
        "response": "ArrowRight",
        "congruent": false,
        "gazeTowards": true,
        "gazeCondition": "towards",
        "faceOnLeft": false,
        "impliedDirection": 180,
        "testDirection": 0,
        "avgFps": 140,
        "minFps": 50,
        "maxFps": 714,
        "totalFrames": 119,
        "frameRates": 140
      },
      {
        "trial_number": 38,
        "trial_index": 246,
        "rt": 1052,
        "correct": true,
        "response": "ArrowRight",
        "congruent": true,
        "gazeTowards": false,
        "gazeCondition": "away",
        "faceOnLeft": true,
        "impliedDirection": 0,
        "testDirection": 0,
        "avgFps": 142,
        "minFps": 63,
        "maxFps": 303,
        "totalFrames": 150,
        "frameRates": 142
      },
      {
        "trial_number": 39,
        "trial_index": 251,
        "rt": 767,
        "correct": true,
        "response": "ArrowLeft",
        "congruent": true,
        "gazeTowards": false,
        "gazeCondition": "away",
        "faceOnLeft": false,
        "impliedDirection": 180,
        "testDirection": 180,
        "avgFps": 144,
        "minFps": 87,
        "maxFps": 435,
        "totalFrames": 111,
        "frameRates": 144
      },
      {
        "trial_number": 40,
        "trial_index": 256,
        "rt": 767,
        "correct": true,
        "response": "ArrowLeft",
        "congruent": true,
        "gazeTowards": true,
        "gazeCondition": "towards",
        "faceOnLeft": false,
        "impliedDirection": 180,
        "testDirection": 180,
        "avgFps": 143,
        "minFps": 98,
        "maxFps": 370,
        "totalFrames": 110,
        "frameRates": 143
      },
      {
        "trial_number": 41,
        "trial_index": 261,
        "rt": 1102,
        "correct": true,
        "response": "ArrowRight",
        "congruent": true,
        "gazeTowards": true,
        "gazeCondition": "towards",
        "faceOnLeft": true,
        "impliedDirection": 0,
        "testDirection": 0,
        "avgFps": 144,
        "minFps": 91,
        "maxFps": 357,
        "totalFrames": 158,
        "frameRates": 144
      },
      {
        "trial_number": 42,
        "trial_index": 269,
        "rt": 1064,
        "correct": true,
        "response": "ArrowLeft",
        "congruent": true,
        "gazeTowards": true,
        "gazeCondition": "towards",
        "faceOnLeft": false,
        "impliedDirection": 180,
        "testDirection": 180,
        "avgFps": 142,
        "minFps": 65,
        "maxFps": 667,
        "totalFrames": 151,
        "frameRates": 142
      },
      {
        "trial_number": 43,
        "trial_index": 274,
        "rt": 784,
        "correct": true,
        "response": "ArrowRight",
        "congruent": false,
        "gazeTowards": true,
        "gazeCondition": "towards",
        "faceOnLeft": false,
        "impliedDirection": 180,
        "testDirection": 0,
        "avgFps": 139,
        "minFps": 77,
        "maxFps": 357,
        "totalFrames": 109,
        "frameRates": 139
      },
      {
        "trial_number": 44,
        "trial_index": 279,
        "rt": 763,
        "correct": true,
        "response": "ArrowLeft",
        "congruent": false,
        "gazeTowards": false,
        "gazeCondition": "away",
        "faceOnLeft": true,
        "impliedDirection": 0,
        "testDirection": 180,
        "avgFps": 145,
        "minFps": 96,
        "maxFps": 1042,
        "totalFrames": 110,
        "frameRates": 145
      },
      {
        "trial_number": 45,
        "trial_index": 284,
        "rt": 715,
        "correct": true,
        "response": "ArrowRight",
        "congruent": true,
        "gazeTowards": true,
        "gazeCondition": "towards",
        "faceOnLeft": true,
        "impliedDirection": 0,
        "testDirection": 0,
        "avgFps": 143,
        "minFps": 93,
        "maxFps": 270,
        "totalFrames": 102,
        "frameRates": 143
      },
      {
        "trial_number": 46,
        "trial_index": 289,
        "rt": 784,
        "correct": true,
        "response": "ArrowRight",
        "congruent": false,
        "gazeTowards": false,
        "gazeCondition": "away",
        "faceOnLeft": false,
        "impliedDirection": 180,
        "testDirection": 0,
        "avgFps": 144,
        "minFps": 102,
        "maxFps": 256,
        "totalFrames": 113,
        "frameRates": 144
      },
      {
        "trial_number": 47,
        "trial_index": 294,
        "rt": 631,
        "correct": true,
        "response": "ArrowRight",
        "congruent": false,
        "gazeTowards": true,
        "gazeCondition": "towards",
        "faceOnLeft": false,
        "impliedDirection": 180,
        "testDirection": 0,
        "avgFps": 141,
        "minFps": 60,
        "maxFps": 417,
        "totalFrames": 89,
        "frameRates": 141
      },
      {
        "trial_number": 48,
        "trial_index": 299,
        "rt": 786,
        "correct": true,
        "response": "ArrowRight",
        "congruent": false,
        "gazeTowards": true,
        "gazeCondition": "towards",
        "faceOnLeft": false,
        "impliedDirection": 180,
        "testDirection": 0,
        "avgFps": 144,
        "minFps": 103,
        "maxFps": 238,
        "totalFrames": 113,
        "frameRates": 144
      },
      {
        "trial_number": 49,
        "trial_index": 304,
        "rt": 994,
        "correct": true,
        "response": "ArrowRight",
        "congruent": false,
        "gazeTowards": false,
        "gazeCondition": "away",
        "faceOnLeft": false,
        "impliedDirection": 180,
        "testDirection": 0,
        "avgFps": 144,
        "minFps": 87,
        "maxFps": 417,
        "totalFrames": 143,
        "frameRates": 144
      },
      {
        "trial_number": 50,
        "trial_index": 309,
        "rt": 549,
        "correct": true,
        "response": "ArrowLeft",
        "congruent": true,
        "gazeTowards": false,
        "gazeCondition": "away",
        "faceOnLeft": false,
        "impliedDirection": 180,
        "testDirection": 180,
        "avgFps": 138,
        "minFps": 63,
        "maxFps": 222,
        "totalFrames": 76,
        "frameRates": 138
      },
      {
        "trial_number": 51,
        "trial_index": 314,
        "rt": 791,
        "correct": true,
        "response": "ArrowRight",
        "congruent": true,
        "gazeTowards": true,
        "gazeCondition": "towards",
        "faceOnLeft": true,
        "impliedDirection": 0,
        "testDirection": 0,
        "avgFps": 144,
        "minFps": 112,
        "maxFps": 179,
        "totalFrames": 113,
        "frameRates": 144
      },
      {
        "trial_number": 52,
        "trial_index": 319,
        "rt": 781,
        "correct": true,
        "response": "ArrowRight",
        "congruent": true,
        "gazeTowards": false,
        "gazeCondition": "away",
        "faceOnLeft": true,
        "impliedDirection": 0,
        "testDirection": 0,
        "avgFps": 144,
        "minFps": 79,
        "maxFps": 909,
        "totalFrames": 112,
        "frameRates": 144
      },
      {
        "trial_number": 53,
        "trial_index": 324,
        "rt": 878,
        "correct": true,
        "response": "ArrowLeft",
        "congruent": false,
        "gazeTowards": false,
        "gazeCondition": "away",
        "faceOnLeft": true,
        "impliedDirection": 0,
        "testDirection": 180,
        "avgFps": 145,
        "minFps": 115,
        "maxFps": 1042,
        "totalFrames": 127,
        "frameRates": 145
      },
      {
        "trial_number": 54,
        "trial_index": 329,
        "rt": 710,
        "correct": true,
        "response": "ArrowRight",
        "congruent": false,
        "gazeTowards": true,
        "gazeCondition": "towards",
        "faceOnLeft": false,
        "impliedDirection": 180,
        "testDirection": 0,
        "avgFps": 141,
        "minFps": 80,
        "maxFps": 714,
        "totalFrames": 100,
        "frameRates": 141
      },
      {
        "trial_number": 55,
        "trial_index": 334,
        "rt": 802,
        "correct": true,
        "response": "ArrowRight",
        "congruent": false,
        "gazeTowards": false,
        "gazeCondition": "away",
        "faceOnLeft": false,
        "impliedDirection": 180,
        "testDirection": 0,
        "avgFps": 144,
        "minFps": 139,
        "maxFps": 149,
        "totalFrames": 115,
        "frameRates": 144
      },
      {
        "trial_number": 56,
        "trial_index": 339,
        "rt": 745,
        "correct": true,
        "response": "ArrowLeft",
        "congruent": true,
        "gazeTowards": true,
        "gazeCondition": "towards",
        "faceOnLeft": false,
        "impliedDirection": 180,
        "testDirection": 180,
        "avgFps": 144,
        "minFps": 102,
        "maxFps": 244,
        "totalFrames": 107,
        "frameRates": 144
      },
      {
        "trial_number": 57,
        "trial_index": 344,
        "rt": 787,
        "correct": true,
        "response": "ArrowLeft",
        "congruent": false,
        "gazeTowards": true,
        "gazeCondition": "towards",
        "faceOnLeft": true,
        "impliedDirection": 0,
        "testDirection": 180,
        "avgFps": 145,
        "minFps": 96,
        "maxFps": 16667,
        "totalFrames": 114,
        "frameRates": 145
      },
      {
        "trial_number": 58,
        "trial_index": 349,
        "rt": 779,
        "correct": true,
        "response": "ArrowLeft",
        "congruent": false,
        "gazeTowards": true,
        "gazeCondition": "towards",
        "faceOnLeft": true,
        "impliedDirection": 0,
        "testDirection": 180,
        "avgFps": 143,
        "minFps": 73,
        "maxFps": 200,
        "totalFrames": 111,
        "frameRates": 143
      },
      {
        "trial_number": 59,
        "trial_index": 354,
        "rt": 894,
        "correct": true,
        "response": "ArrowRight",
        "congruent": false,
        "gazeTowards": false,
        "gazeCondition": "away",
        "faceOnLeft": false,
        "impliedDirection": 180,
        "testDirection": 0,
        "avgFps": 144,
        "minFps": 81,
        "maxFps": 625,
        "totalFrames": 128,
        "frameRates": 144
      },
      {
        "trial_number": 60,
        "trial_index": 359,
        "rt": 722,
        "correct": true,
        "response": "ArrowLeft",
        "congruent": false,
        "gazeTowards": false,
        "gazeCondition": "away",
        "faceOnLeft": true,
        "impliedDirection": 0,
        "testDirection": 180,
        "avgFps": 143,
        "minFps": 68,
        "maxFps": 333,
        "totalFrames": 103,
        "frameRates": 143
      },
      {
        "trial_number": 61,
        "trial_index": 364,
        "rt": 909,
        "correct": true,
        "response": "ArrowRight",
        "congruent": true,
        "gazeTowards": true,
        "gazeCondition": "towards",
        "faceOnLeft": true,
        "impliedDirection": 0,
        "testDirection": 0,
        "avgFps": 144,
        "minFps": 141,
        "maxFps": 149,
        "totalFrames": 130,
        "frameRates": 144
      },
      {
        "trial_number": 62,
        "trial_index": 373,
        "rt": 865,
        "correct": true,
        "response": "ArrowLeft",
        "congruent": true,
        "gazeTowards": false,
        "gazeCondition": "away",
        "faceOnLeft": false,
        "impliedDirection": 180,
        "testDirection": 180,
        "avgFps": 143,
        "minFps": 68,
        "maxFps": 278,
        "totalFrames": 123,
        "frameRates": 143
      },
      {
        "trial_number": 63,
        "trial_index": 378,
        "rt": 574,
        "correct": true,
        "response": "ArrowRight",
        "congruent": true,
        "gazeTowards": false,
        "gazeCondition": "away",
        "faceOnLeft": true,
        "impliedDirection": 0,
        "testDirection": 0,
        "avgFps": 144,
        "minFps": 103,
        "maxFps": 227,
        "totalFrames": 83,
        "frameRates": 144
      },
      {
        "trial_number": 64,
        "trial_index": 383,
        "rt": 762,
        "correct": true,
        "response": "ArrowLeft",
        "congruent": true,
        "gazeTowards": false,
        "gazeCondition": "away",
        "faceOnLeft": false,
        "impliedDirection": 180,
        "testDirection": 180,
        "avgFps": 144,
        "minFps": 90,
        "maxFps": 357,
        "totalFrames": 109,
        "frameRates": 144
      },
      {
        "trial_number": 65,
        "trial_index": 388,
        "rt": 902,
        "correct": true,
        "response": "ArrowLeft",
        "congruent": false,
        "gazeTowards": false,
        "gazeCondition": "away",
        "faceOnLeft": true,
        "impliedDirection": 0,
        "testDirection": 180,
        "avgFps": 144,
        "minFps": 83,
        "maxFps": 588,
        "totalFrames": 129,
        "frameRates": 144
      },
      {
        "trial_number": 66,
        "trial_index": 393,
        "rt": 547,
        "correct": true,
        "response": "ArrowRight",
        "congruent": false,
        "gazeTowards": false,
        "gazeCondition": "away",
        "faceOnLeft": false,
        "impliedDirection": 180,
        "testDirection": 0,
        "avgFps": 144,
        "minFps": 82,
        "maxFps": 526,
        "totalFrames": 78,
        "frameRates": 144
      },
      {
        "trial_number": 67,
        "trial_index": 398,
        "rt": 892,
        "correct": true,
        "response": "ArrowRight",
        "congruent": true,
        "gazeTowards": false,
        "gazeCondition": "away",
        "faceOnLeft": true,
        "impliedDirection": 0,
        "testDirection": 0,
        "avgFps": 144,
        "minFps": 116,
        "maxFps": 185,
        "totalFrames": 128,
        "frameRates": 144
      },
      {
        "trial_number": 68,
        "trial_index": 403,
        "rt": 637,
        "correct": true,
        "response": "ArrowLeft",
        "congruent": true,
        "gazeTowards": true,
        "gazeCondition": "towards",
        "faceOnLeft": false,
        "impliedDirection": 180,
        "testDirection": 180,
        "avgFps": 144,
        "minFps": 130,
        "maxFps": 159,
        "totalFrames": 92,
        "frameRates": 144
      },
      {
        "trial_number": 69,
        "trial_index": 411,
        "rt": 754,
        "correct": true,
        "response": "ArrowLeft",
        "congruent": false,
        "gazeTowards": true,
        "gazeCondition": "towards",
        "faceOnLeft": true,
        "impliedDirection": 0,
        "testDirection": 180,
        "avgFps": 145,
        "minFps": 99,
        "maxFps": 1163,
        "totalFrames": 109,
        "frameRates": 145
      },
      {
        "trial_number": 70,
        "trial_index": 416,
        "rt": 552,
        "correct": true,
        "response": "ArrowLeft",
        "congruent": false,
        "gazeTowards": false,
        "gazeCondition": "away",
        "faceOnLeft": true,
        "impliedDirection": 0,
        "testDirection": 180,
        "avgFps": 144,
        "minFps": 79,
        "maxFps": 333,
        "totalFrames": 79,
        "frameRates": 144
      },
      {
        "trial_number": 71,
        "trial_index": 421,
        "rt": 1019,
        "correct": true,
        "response": "ArrowLeft",
        "congruent": true,
        "gazeTowards": true,
        "gazeCondition": "towards",
        "faceOnLeft": false,
        "impliedDirection": 180,
        "testDirection": 180,
        "avgFps": 144,
        "minFps": 85,
        "maxFps": 323,
        "totalFrames": 146,
        "frameRates": 144
      },
      {
        "trial_number": 72,
        "trial_index": 426,
        "rt": 775,
        "correct": true,
        "response": "ArrowRight",
        "congruent": true,
        "gazeTowards": false,
        "gazeCondition": "away",
        "faceOnLeft": true,
        "impliedDirection": 0,
        "testDirection": 0,
        "avgFps": 144,
        "minFps": 133,
        "maxFps": 154,
        "totalFrames": 112,
        "frameRates": 144
      },
      {
        "trial_number": 73,
        "trial_index": 431,
        "rt": 532,
        "correct": true,
        "response": "ArrowLeft",
        "congruent": true,
        "gazeTowards": true,
        "gazeCondition": "towards",
        "faceOnLeft": false,
        "impliedDirection": 180,
        "testDirection": 180,
        "avgFps": 144,
        "minFps": 79,
        "maxFps": 417,
        "totalFrames": 76,
        "frameRates": 144
      },
      {
        "trial_number": 74,
        "trial_index": 436,
        "rt": 883,
        "correct": true,
        "response": "ArrowRight",
        "congruent": false,
        "gazeTowards": true,
        "gazeCondition": "towards",
        "faceOnLeft": false,
        "impliedDirection": 180,
        "testDirection": 0,
        "avgFps": 144,
        "minFps": 83,
        "maxFps": 588,
        "totalFrames": 127,
        "frameRates": 144
      },
      {
        "trial_number": 75,
        "trial_index": 441,
        "rt": 1107,
        "correct": true,
        "response": "ArrowRight",
        "congruent": true,
        "gazeTowards": true,
        "gazeCondition": "towards",
        "faceOnLeft": true,
        "impliedDirection": 0,
        "testDirection": 0,
        "avgFps": 144,
        "minFps": 133,
        "maxFps": 159,
        "totalFrames": 159,
        "frameRates": 144
      },
      {
        "trial_number": 76,
        "trial_index": 446,
        "rt": 755,
        "correct": true,
        "response": "ArrowLeft",
        "congruent": true,
        "gazeTowards": true,
        "gazeCondition": "towards",
        "faceOnLeft": false,
        "impliedDirection": 180,
        "testDirection": 180,
        "avgFps": 144,
        "minFps": 87,
        "maxFps": 417,
        "totalFrames": 108,
        "frameRates": 144
      },
      {
        "trial_number": 77,
        "trial_index": 451,
        "rt": 1024,
        "correct": true,
        "response": "ArrowRight",
        "congruent": true,
        "gazeTowards": false,
        "gazeCondition": "away",
        "faceOnLeft": true,
        "impliedDirection": 0,
        "testDirection": 0,
        "avgFps": 141,
        "minFps": 60,
        "maxFps": 238,
        "totalFrames": 145,
        "frameRates": 141
      },
      {
        "trial_number": 78,
        "trial_index": 456,
        "rt": 778,
        "correct": true,
        "response": "ArrowRight",
        "congruent": true,
        "gazeTowards": false,
        "gazeCondition": "away",
        "faceOnLeft": true,
        "impliedDirection": 0,
        "testDirection": 0,
        "avgFps": 144,
        "minFps": 85,
        "maxFps": 400,
        "totalFrames": 111,
        "frameRates": 144
      },
      {
        "trial_number": 79,
        "trial_index": 461,
        "rt": 885,
        "correct": true,
        "response": "ArrowLeft",
        "congruent": false,
        "gazeTowards": true,
        "gazeCondition": "towards",
        "faceOnLeft": true,
        "impliedDirection": 0,
        "testDirection": 180,
        "avgFps": 143,
        "minFps": 85,
        "maxFps": 172,
        "totalFrames": 126,
        "frameRates": 143
      },
      {
        "trial_number": 80,
        "trial_index": 466,
        "rt": 886,
        "correct": true,
        "response": "ArrowLeft",
        "congruent": false,
        "gazeTowards": true,
        "gazeCondition": "towards",
        "faceOnLeft": true,
        "impliedDirection": 0,
        "testDirection": 180,
        "avgFps": 144,
        "minFps": 100,
        "maxFps": 278,
        "totalFrames": 127,
        "frameRates": 144
      },
      {
        "trial_number": 81,
        "trial_index": 471,
        "rt": 840,
        "correct": true,
        "response": "ArrowRight",
        "congruent": false,
        "gazeTowards": true,
        "gazeCondition": "towards",
        "faceOnLeft": false,
        "impliedDirection": 180,
        "testDirection": 0,
        "avgFps": 144,
        "minFps": 80,
        "maxFps": 625,
        "totalFrames": 121,
        "frameRates": 144
      },
      {
        "trial_number": 82,
        "trial_index": 476,
        "rt": 821,
        "correct": true,
        "response": "ArrowLeft",
        "congruent": false,
        "gazeTowards": true,
        "gazeCondition": "towards",
        "faceOnLeft": true,
        "impliedDirection": 0,
        "testDirection": 180,
        "avgFps": 144,
        "minFps": 82,
        "maxFps": 588,
        "totalFrames": 118,
        "frameRates": 144
      },
      {
        "trial_number": 83,
        "trial_index": 481,
        "rt": 929,
        "correct": true,
        "response": "ArrowRight",
        "congruent": true,
        "gazeTowards": true,
        "gazeCondition": "towards",
        "faceOnLeft": true,
        "impliedDirection": 0,
        "testDirection": 0,
        "avgFps": 144,
        "minFps": 100,
        "maxFps": 278,
        "totalFrames": 134,
        "frameRates": 144
      },
      {
        "trial_number": 84,
        "trial_index": 486,
        "rt": 779,
        "correct": true,
        "response": "ArrowRight",
        "congruent": true,
        "gazeTowards": false,
        "gazeCondition": "away",
        "faceOnLeft": true,
        "impliedDirection": 0,
        "testDirection": 0,
        "avgFps": 143,
        "minFps": 67,
        "maxFps": 476,
        "totalFrames": 111,
        "frameRates": 143
      },
      {
        "trial_number": 85,
        "trial_index": 491,
        "rt": 742,
        "correct": true,
        "response": "ArrowLeft",
        "congruent": false,
        "gazeTowards": false,
        "gazeCondition": "away",
        "faceOnLeft": true,
        "impliedDirection": 0,
        "testDirection": 180,
        "avgFps": 143,
        "minFps": 69,
        "maxFps": 164,
        "totalFrames": 105,
        "frameRates": 143
      },
      {
        "trial_number": 86,
        "trial_index": 499,
        "rt": 610,
        "correct": true,
        "response": "ArrowRight",
        "congruent": true,
        "gazeTowards": true,
        "gazeCondition": "towards",
        "faceOnLeft": true,
        "impliedDirection": 0,
        "testDirection": 0,
        "avgFps": 142,
        "minFps": 75,
        "maxFps": 333,
        "totalFrames": 87,
        "frameRates": 142
      },
      {
        "trial_number": 87,
        "trial_index": 504,
        "rt": 776,
        "correct": true,
        "response": "ArrowRight",
        "congruent": true,
        "gazeTowards": false,
        "gazeCondition": "away",
        "faceOnLeft": true,
        "impliedDirection": 0,
        "testDirection": 0,
        "avgFps": 139,
        "minFps": 70,
        "maxFps": 556,
        "totalFrames": 107,
        "frameRates": 139
      },
      {
        "trial_number": 88,
        "trial_index": 509,
        "rt": 960,
        "correct": true,
        "response": "ArrowRight",
        "congruent": false,
        "gazeTowards": false,
        "gazeCondition": "away",
        "faceOnLeft": false,
        "impliedDirection": 180,
        "testDirection": 0,
        "avgFps": 141,
        "minFps": 60,
        "maxFps": 250,
        "totalFrames": 135,
        "frameRates": 141
      },
      {
        "trial_number": 89,
        "trial_index": 514,
        "rt": 863,
        "correct": true,
        "response": "ArrowRight",
        "congruent": true,
        "gazeTowards": false,
        "gazeCondition": "away",
        "faceOnLeft": true,
        "impliedDirection": 0,
        "testDirection": 0,
        "avgFps": 143,
        "minFps": 66,
        "maxFps": 208,
        "totalFrames": 123,
        "frameRates": 143
      },
      {
        "trial_number": 90,
        "trial_index": 519,
        "rt": 747,
        "correct": true,
        "response": "ArrowLeft",
        "congruent": false,
        "gazeTowards": true,
        "gazeCondition": "towards",
        "faceOnLeft": true,
        "impliedDirection": 0,
        "testDirection": 180,
        "avgFps": 145,
        "minFps": 96,
        "maxFps": 1042,
        "totalFrames": 108,
        "frameRates": 145
      },
      {
        "trial_number": 91,
        "trial_index": 524,
        "rt": 915,
        "correct": true,
        "response": "ArrowRight",
        "congruent": true,
        "gazeTowards": false,
        "gazeCondition": "away",
        "faceOnLeft": true,
        "impliedDirection": 0,
        "testDirection": 0,
        "avgFps": 145,
        "minFps": 97,
        "maxFps": 943,
        "totalFrames": 132,
        "frameRates": 145
      },
      {
        "trial_number": 92,
        "trial_index": 529,
        "rt": 1124,
        "correct": true,
        "response": "ArrowRight",
        "congruent": true,
        "gazeTowards": true,
        "gazeCondition": "towards",
        "faceOnLeft": true,
        "impliedDirection": 0,
        "testDirection": 0,
        "avgFps": 144,
        "minFps": 104,
        "maxFps": 233,
        "totalFrames": 161,
        "frameRates": 144
      },
      {
        "trial_number": 93,
        "trial_index": 535,
        "rt": 1058,
        "correct": true,
        "response": "ArrowLeft",
        "congruent": true,
        "gazeTowards": false,
        "gazeCondition": "away",
        "faceOnLeft": false,
        "impliedDirection": 180,
        "testDirection": 180,
        "avgFps": 142,
        "minFps": 60,
        "maxFps": 370,
        "totalFrames": 150,
        "frameRates": 142
      },
      {
        "trial_number": 94,
        "trial_index": 540,
        "rt": 1051,
        "correct": true,
        "response": "ArrowRight",
        "congruent": false,
        "gazeTowards": true,
        "gazeCondition": "towards",
        "faceOnLeft": false,
        "impliedDirection": 180,
        "testDirection": 0,
        "avgFps": 143,
        "minFps": 65,
        "maxFps": 625,
        "totalFrames": 151,
        "frameRates": 143
      },
      {
        "trial_number": 95,
        "trial_index": 545,
        "rt": 940,
        "correct": true,
        "response": "ArrowLeft",
        "congruent": false,
        "gazeTowards": true,
        "gazeCondition": "towards",
        "faceOnLeft": true,
        "impliedDirection": 0,
        "testDirection": 180,
        "avgFps": 143,
        "minFps": 85,
        "maxFps": 250,
        "totalFrames": 134,
        "frameRates": 143
      },
      {
        "trial_number": 96,
        "trial_index": 550,
        "rt": 652,
        "correct": true,
        "response": "ArrowLeft",
        "congruent": false,
        "gazeTowards": true,
        "gazeCondition": "towards",
        "faceOnLeft": true,
        "impliedDirection": 0,
        "testDirection": 180,
        "avgFps": 144,
        "minFps": 104,
        "maxFps": 244,
        "totalFrames": 94,
        "frameRates": 144
      },
      {
        "trial_number": 97,
        "trial_index": 555,
        "rt": 669,
        "correct": true,
        "response": "ArrowLeft",
        "congruent": false,
        "gazeTowards": true,
        "gazeCondition": "towards",
        "faceOnLeft": true,
        "impliedDirection": 0,
        "testDirection": 180,
        "avgFps": 144,
        "minFps": 110,
        "maxFps": 200,
        "totalFrames": 96,
        "frameRates": 144
      },
      {
        "trial_number": 98,
        "trial_index": 563,
        "rt": 644,
        "correct": true,
        "response": "ArrowLeft",
        "congruent": true,
        "gazeTowards": false,
        "gazeCondition": "away",
        "faceOnLeft": false,
        "impliedDirection": 180,
        "testDirection": 180,
        "avgFps": 143,
        "minFps": 79,
        "maxFps": 769,
        "totalFrames": 92,
        "frameRates": 143
      },
      {
        "trial_number": 99,
        "trial_index": 568,
        "rt": 844,
        "correct": true,
        "response": "ArrowRight",
        "congruent": true,
        "gazeTowards": true,
        "gazeCondition": "towards",
        "faceOnLeft": true,
        "impliedDirection": 0,
        "testDirection": 0,
        "avgFps": 144,
        "minFps": 135,
        "maxFps": 154,
        "totalFrames": 121,
        "frameRates": 144
      },
      {
        "trial_number": 100,
        "trial_index": 573,
        "rt": 776,
        "correct": true,
        "response": "ArrowLeft",
        "congruent": false,
        "gazeTowards": false,
        "gazeCondition": "away",
        "faceOnLeft": true,
        "impliedDirection": 0,
        "testDirection": 180,
        "avgFps": 144,
        "minFps": 109,
        "maxFps": 204,
        "totalFrames": 112,
        "frameRates": 144
      },
      {
        "trial_number": 101,
        "trial_index": 578,
        "rt": 788,
        "correct": true,
        "response": "ArrowRight",
        "congruent": false,
        "gazeTowards": true,
        "gazeCondition": "towards",
        "faceOnLeft": false,
        "impliedDirection": 180,
        "testDirection": 0,
        "avgFps": 145,
        "minFps": 101,
        "maxFps": 1163,
        "totalFrames": 114,
        "frameRates": 145
      },
      {
        "trial_number": 102,
        "trial_index": 586,
        "rt": 832,
        "correct": true,
        "response": "ArrowLeft",
        "congruent": false,
        "gazeTowards": false,
        "gazeCondition": "away",
        "faceOnLeft": true,
        "impliedDirection": 0,
        "testDirection": 180,
        "avgFps": 143,
        "minFps": 74,
        "maxFps": 149,
        "totalFrames": 119,
        "frameRates": 143
      },
      {
        "trial_number": 103,
        "trial_index": 591,
        "rt": 1178,
        "correct": true,
        "response": "ArrowLeft",
        "congruent": true,
        "gazeTowards": false,
        "gazeCondition": "away",
        "faceOnLeft": false,
        "impliedDirection": 180,
        "testDirection": 180,
        "avgFps": 144,
        "minFps": 104,
        "maxFps": 227,
        "totalFrames": 169,
        "frameRates": 144
      },
      {
        "trial_number": 104,
        "trial_index": 596,
        "rt": 1280,
        "correct": true,
        "response": "ArrowLeft",
        "congruent": false,
        "gazeTowards": false,
        "gazeCondition": "away",
        "faceOnLeft": true,
        "impliedDirection": 0,
        "testDirection": 180,
        "avgFps": 144,
        "minFps": 114,
        "maxFps": 200,
        "totalFrames": 184,
        "frameRates": 144
      },
      {
        "trial_number": 105,
        "trial_index": 601,
        "rt": 1290,
        "correct": true,
        "response": "ArrowLeft",
        "congruent": true,
        "gazeTowards": false,
        "gazeCondition": "away",
        "faceOnLeft": false,
        "impliedDirection": 180,
        "testDirection": 180,
        "avgFps": 144,
        "minFps": 85,
        "maxFps": 500,
        "totalFrames": 186,
        "frameRates": 144
      },
      {
        "trial_number": 106,
        "trial_index": 606,
        "rt": 1185,
        "correct": true,
        "response": "ArrowLeft",
        "congruent": true,
        "gazeTowards": true,
        "gazeCondition": "towards",
        "faceOnLeft": false,
        "impliedDirection": 180,
        "testDirection": 180,
        "avgFps": 143,
        "minFps": 76,
        "maxFps": 400,
        "totalFrames": 169,
        "frameRates": 143
      },
      {
        "trial_number": 107,
        "trial_index": 611,
        "rt": 1237,
        "correct": true,
        "response": "ArrowLeft",
        "congruent": false,
        "gazeTowards": false,
        "gazeCondition": "away",
        "faceOnLeft": true,
        "impliedDirection": 0,
        "testDirection": 180,
        "avgFps": 143,
        "minFps": 72,
        "maxFps": 556,
        "totalFrames": 177,
        "frameRates": 143
      },
      {
        "trial_number": 108,
        "trial_index": 616,
        "rt": 1078,
        "correct": true,
        "response": "ArrowLeft",
        "congruent": false,
        "gazeTowards": false,
        "gazeCondition": "away",
        "faceOnLeft": true,
        "impliedDirection": 0,
        "testDirection": 180,
        "avgFps": 144,
        "minFps": 103,
        "maxFps": 250,
        "totalFrames": 155,
        "frameRates": 144
      },
      {
        "trial_number": 109,
        "trial_index": 621,
        "rt": 796,
        "correct": true,
        "response": "ArrowRight",
        "congruent": true,
        "gazeTowards": false,
        "gazeCondition": "away",
        "faceOnLeft": true,
        "impliedDirection": 0,
        "testDirection": 0,
        "avgFps": 144,
        "minFps": 79,
        "maxFps": 714,
        "totalFrames": 114,
        "frameRates": 144
      },
      {
        "trial_number": 110,
        "trial_index": 626,
        "rt": 895,
        "correct": true,
        "response": "ArrowLeft",
        "congruent": true,
        "gazeTowards": true,
        "gazeCondition": "towards",
        "faceOnLeft": false,
        "impliedDirection": 180,
        "testDirection": 180,
        "avgFps": 141,
        "minFps": 64,
        "maxFps": 263,
        "totalFrames": 126,
        "frameRates": 141
      },
      {
        "trial_number": 111,
        "trial_index": 631,
        "rt": 809,
        "correct": true,
        "response": "ArrowLeft",
        "congruent": false,
        "gazeTowards": false,
        "gazeCondition": "away",
        "faceOnLeft": true,
        "impliedDirection": 0,
        "testDirection": 180,
        "avgFps": 143,
        "minFps": 69,
        "maxFps": 455,
        "totalFrames": 116,
        "frameRates": 143
      },
      {
        "trial_number": 112,
        "trial_index": 639,
        "rt": 1446,
        "correct": true,
        "response": "ArrowRight",
        "congruent": false,
        "gazeTowards": true,
        "gazeCondition": "towards",
        "faceOnLeft": false,
        "impliedDirection": 180,
        "testDirection": 0,
        "avgFps": 144,
        "minFps": 88,
        "maxFps": 370,
        "totalFrames": 208,
        "frameRates": 144
      },
      {
        "trial_number": 113,
        "trial_index": 644,
        "rt": 939,
        "correct": true,
        "response": "ArrowRight",
        "congruent": false,
        "gazeTowards": false,
        "gazeCondition": "away",
        "faceOnLeft": false,
        "impliedDirection": 180,
        "testDirection": 0,
        "avgFps": 144,
        "minFps": 118,
        "maxFps": 182,
        "totalFrames": 135,
        "frameRates": 144
      },
      {
        "trial_number": 114,
        "trial_index": 652,
        "rt": 681,
        "correct": true,
        "response": "ArrowLeft",
        "congruent": false,
        "gazeTowards": false,
        "gazeCondition": "away",
        "faceOnLeft": true,
        "impliedDirection": 0,
        "testDirection": 180,
        "avgFps": 139,
        "minFps": 68,
        "maxFps": 370,
        "totalFrames": 95,
        "frameRates": 139
      },
      {
        "trial_number": 115,
        "trial_index": 657,
        "rt": 1079,
        "correct": true,
        "response": "ArrowLeft",
        "congruent": true,
        "gazeTowards": true,
        "gazeCondition": "towards",
        "faceOnLeft": false,
        "impliedDirection": 180,
        "testDirection": 180,
        "avgFps": 144,
        "minFps": 112,
        "maxFps": 200,
        "totalFrames": 155,
        "frameRates": 144
      },
      {
        "trial_number": 116,
        "trial_index": 662,
        "rt": 670,
        "correct": true,
        "response": "ArrowRight",
        "congruent": false,
        "gazeTowards": true,
        "gazeCondition": "towards",
        "faceOnLeft": false,
        "impliedDirection": 180,
        "testDirection": 0,
        "avgFps": 144,
        "minFps": 106,
        "maxFps": 222,
        "totalFrames": 97,
        "frameRates": 144
      },
      {
        "trial_number": 117,
        "trial_index": 667,
        "rt": 819,
        "correct": true,
        "response": "ArrowLeft",
        "congruent": false,
        "gazeTowards": false,
        "gazeCondition": "away",
        "faceOnLeft": true,
        "impliedDirection": 0,
        "testDirection": 180,
        "avgFps": 144,
        "minFps": 79,
        "maxFps": 769,
        "totalFrames": 118,
        "frameRates": 144
      },
      {
        "trial_number": 118,
        "trial_index": 672,
        "rt": 1022,
        "correct": true,
        "response": "ArrowLeft",
        "congruent": false,
        "gazeTowards": true,
        "gazeCondition": "towards",
        "faceOnLeft": true,
        "impliedDirection": 0,
        "testDirection": 180,
        "avgFps": 144,
        "minFps": 112,
        "maxFps": 200,
        "totalFrames": 147,
        "frameRates": 144
      },
      {
        "trial_number": 119,
        "trial_index": 677,
        "rt": 857,
        "correct": true,
        "response": "ArrowLeft",
        "congruent": true,
        "gazeTowards": false,
        "gazeCondition": "away",
        "faceOnLeft": false,
        "impliedDirection": 180,
        "testDirection": 180,
        "avgFps": 144,
        "minFps": 92,
        "maxFps": 333,
        "totalFrames": 123,
        "frameRates": 144
      }
    ],
    "catch": {
      "total": 12,
      "correct": 12,
      "accuracy": 100,
      "meanRT": 802,
      "trials": [
        {
          "trial_number": 0,
          "trial_index": 163,
          "rt": 739,
          "correct": true,
          "colorTarget": "face",
          "gazeTowards": false,
          "gazeCondition": "away",
          "faceOnLeft": true
        },
        {
          "trial_number": 1,
          "trial_index": 242,
          "rt": 931,
          "correct": true,
          "colorTarget": "tree",
          "gazeTowards": false,
          "gazeCondition": "away",
          "faceOnLeft": false
        },
        {
          "trial_number": 2,
          "trial_index": 265,
          "rt": 606,
          "correct": true,
          "colorTarget": "tree",
          "gazeTowards": false,
          "gazeCondition": "away",
          "faceOnLeft": false
        },
        {
          "trial_number": 3,
          "trial_index": 368,
          "rt": 610,
          "correct": true,
          "colorTarget": "tree",
          "gazeTowards": false,
          "gazeCondition": "away",
          "faceOnLeft": false
        },
        {
          "trial_number": 4,
          "trial_index": 407,
          "rt": 925,
          "correct": true,
          "colorTarget": "face",
          "gazeTowards": false,
          "gazeCondition": "away",
          "faceOnLeft": true
        },
        {
          "trial_number": 5,
          "trial_index": 495,
          "rt": 675,
          "correct": true,
          "colorTarget": "face",
          "gazeTowards": false,
          "gazeCondition": "away",
          "faceOnLeft": true
        },
        {
          "trial_number": 6,
          "trial_index": 559,
          "rt": 1020,
          "correct": true,
          "colorTarget": "face",
          "gazeTowards": true,
          "gazeCondition": "towards",
          "faceOnLeft": false
        },
        {
          "trial_number": 7,
          "trial_index": 582,
          "rt": 867,
          "correct": true,
          "colorTarget": "tree",
          "gazeTowards": true,
          "gazeCondition": "towards",
          "faceOnLeft": true
        },
        {
          "trial_number": 8,
          "trial_index": 635,
          "rt": 956,
          "correct": true,
          "colorTarget": "tree",
          "gazeTowards": false,
          "gazeCondition": "away",
          "faceOnLeft": false
        },
        {
          "trial_number": 9,
          "trial_index": 648,
          "rt": 1129,
          "correct": true,
          "colorTarget": "face",
          "gazeTowards": false,
          "gazeCondition": "away",
          "faceOnLeft": true
        },
        {
          "trial_number": 10,
          "trial_index": 681,
          "rt": 566,
          "correct": true,
          "colorTarget": "face",
          "gazeTowards": true,
          "gazeCondition": "towards",
          "faceOnLeft": false
        },
        {
          "trial_number": 11,
          "trial_index": 684,
          "rt": 604,
          "correct": true,
          "colorTarget": "tree",
          "gazeTowards": false,
          "gazeCondition": "away",
          "faceOnLeft": false
        }
      ]
    },
    "practice": {
      "trials": [
        {
          "trial_number": 0,
          "rt": null,
          "correct": false,
          "direction": 0
        },
        {
          "trial_number": 1,
          "rt": 1038,
          "correct": true,
          "direction": 180
        },
        {
          "trial_number": 2,
          "rt": 873,
          "correct": true,
          "direction": 180
        },
        {
          "trial_number": 3,
          "rt": 1230,
          "correct": true,
          "direction": 180
        },
        {
          "trial_number": 4,
          "rt": 921,
          "correct": true,
          "direction": 180
        },
        {
          "trial_number": 5,
          "rt": 600,
          "correct": true,
          "direction": 0
        },
        {
          "trial_number": 6,
          "rt": 948,
          "correct": true,
          "direction": 0
        },
        {
          "trial_number": 7,
          "rt": 945,
          "correct": true,
          "direction": 0
        },
        {
          "trial_number": 8,
          "rt": 1090,
          "correct": true,
          "direction": 180
        },
        {
          "trial_number": 9,
          "rt": 633,
          "correct": true,
          "direction": 180
        }
      ],
      "meanRT": 920,
      "accuracy": 90
    }
  }
}