{
  "experiment": "rdk-face-1",
  "UUID": "67339683-5f46-4c5d-a5f2-1a3237f9e53e",
  "data": {
    "session": {
      "experiment_version": "1.8.6",
      "treatment": "faces_towards_away_catch",
      "file_version": "1.8.6",
      "totalTrials": 120,
      "totalTrialsIncludingCatch": 132,
      "conditions": {
        "gazeTowardsCount": 60,
        "gazeAwayCount": 60,
        "gazeTowardsAccuracy": 87,
        "gazeAwayAccuracy": 77
      },
      "session_group": "default",
      "browserData": {
        "os": "Windows",
        "browser": "Chrome",
        "screenResolution": "1920x1080",
        "browserViewport": "1920x1080",
        "devicePixelRatio": 1,
        "colorDepth": 32,
        "hardwareConcurrency": 16,
        "deviceMemory": 8,
        "gpuRenderer": "ANGLE (Microsoft, Microsoft Basic Render Driver (0x0000008C) Direct3D11 vs_5_0 ps_5_0, D3D11)",
        "measuredRefreshRateHz": 137
      },
      "attention": {
        "visibilityEvents": []
      },
      "calibration": {
        "monitorWidthCm": 38,
        "viewingDistanceCm": 54,
        "pixelsPerDegree": 50
      },
      "parameters": {
        "coherence": 0.4,
        "apertureDeg": 5,
        "densityDotsPerDeg2": 40,
        "dotDiameterDeg": 0.035,
        "dotSpeedDegPerSec": 3,
        "lifetimeMs": 200,
        "fixationDurationMs": 1500,
        "faceDurationMs": 1500,
        "testDurationMs": 2000,
        "catchResponseMs": 3000
      },
      "prolific": {
        "prolificPid": "5ee5a7a87e2f6d2e11a172b4",
        "studyId": "",
        "sessionId": ""
      },
      "timing": {
        "startTime": "2026-03-06T03:28:05.989Z",
        "endTime": "2026-03-06T03:40:35.167Z",
        "totalElapsedTimeMs": 749178
      }
    },
    "trials": [
      {
        "trial_number": 0,
        "trial_index": 49,
        "rt": 712,
        "correct": true,
        "response": "ArrowRight",
        "congruent": true,
        "gazeTowards": true,
        "gazeCondition": "towards",
        "faceOnLeft": true,
        "impliedDirection": 0,
        "testDirection": 0,
        "avgFps": 144,
        "minFps": 141,
        "maxFps": 149,
        "totalFrames": 102,
        "frameRates": 144
      },
      {
        "trial_number": 1,
        "trial_index": 54,
        "rt": 675,
        "correct": true,
        "response": "ArrowRight",
        "congruent": true,
        "gazeTowards": false,
        "gazeCondition": "away",
        "faceOnLeft": true,
        "impliedDirection": 0,
        "testDirection": 0,
        "avgFps": 144,
        "minFps": 114,
        "maxFps": 189,
        "totalFrames": 97,
        "frameRates": 144
      },
      {
        "trial_number": 2,
        "trial_index": 59,
        "rt": 758,
        "correct": true,
        "response": "ArrowRight",
        "congruent": true,
        "gazeTowards": false,
        "gazeCondition": "away",
        "faceOnLeft": true,
        "impliedDirection": 0,
        "testDirection": 0,
        "avgFps": 144,
        "minFps": 137,
        "maxFps": 149,
        "totalFrames": 109,
        "frameRates": 144
      },
      {
        "trial_number": 3,
        "trial_index": 64,
        "rt": 1048,
        "correct": true,
        "response": "ArrowLeft",
        "congruent": true,
        "gazeTowards": true,
        "gazeCondition": "towards",
        "faceOnLeft": false,
        "impliedDirection": 180,
        "testDirection": 180,
        "avgFps": 144,
        "minFps": 137,
        "maxFps": 152,
        "totalFrames": 151,
        "frameRates": 144
      },
      {
        "trial_number": 4,
        "trial_index": 69,
        "rt": 812,
        "correct": true,
        "response": "ArrowLeft",
        "congruent": false,
        "gazeTowards": false,
        "gazeCondition": "away",
        "faceOnLeft": true,
        "impliedDirection": 0,
        "testDirection": 180,
        "avgFps": 144,
        "minFps": 133,
        "maxFps": 152,
        "totalFrames": 116,
        "frameRates": 144
      },
      {
        "trial_number": 5,
        "trial_index": 77,
        "rt": 591,
        "correct": true,
        "response": "ArrowRight",
        "congruent": false,
        "gazeTowards": false,
        "gazeCondition": "away",
        "faceOnLeft": false,
        "impliedDirection": 180,
        "testDirection": 0,
        "avgFps": 144,
        "minFps": 137,
        "maxFps": 149,
        "totalFrames": 85,
        "frameRates": 144
      },
      {
        "trial_number": 6,
        "trial_index": 82,
        "rt": 635,
        "correct": true,
        "response": "ArrowRight",
        "congruent": true,
        "gazeTowards": true,
        "gazeCondition": "towards",
        "faceOnLeft": true,
        "impliedDirection": 0,
        "testDirection": 0,
        "avgFps": 144,
        "minFps": 137,
        "maxFps": 149,
        "totalFrames": 91,
        "frameRates": 144
      },
      {
        "trial_number": 7,
        "trial_index": 87,
        "rt": 691,
        "correct": true,
        "response": "ArrowRight",
        "congruent": true,
        "gazeTowards": true,
        "gazeCondition": "towards",
        "faceOnLeft": true,
        "impliedDirection": 0,
        "testDirection": 0,
        "avgFps": 144,
        "minFps": 141,
        "maxFps": 147,
        "totalFrames": 100,
        "frameRates": 144
      },
      {
        "trial_number": 8,
        "trial_index": 92,
        "rt": 739,
        "correct": true,
        "response": "ArrowRight",
        "congruent": true,
        "gazeTowards": true,
        "gazeCondition": "towards",
        "faceOnLeft": true,
        "impliedDirection": 0,
        "testDirection": 0,
        "avgFps": 144,
        "minFps": 137,
        "maxFps": 154,
        "totalFrames": 106,
        "frameRates": 144
      },
      {
        "trial_number": 9,
        "trial_index": 97,
        "rt": 709,
        "correct": true,
        "response": "ArrowLeft",
        "congruent": false,
        "gazeTowards": false,
        "gazeCondition": "away",
        "faceOnLeft": true,
        "impliedDirection": 0,
        "testDirection": 180,
        "avgFps": 144,
        "minFps": 135,
        "maxFps": 152,
        "totalFrames": 102,
        "frameRates": 144
      },
      {
        "trial_number": 10,
        "trial_index": 105,
        "rt": 709,
        "correct": false,
        "response": "ArrowRight",
        "congruent": false,
        "gazeTowards": true,
        "gazeCondition": "towards",
        "faceOnLeft": true,
        "impliedDirection": 0,
        "testDirection": 180,
        "avgFps": 144,
        "minFps": 137,
        "maxFps": 149,
        "totalFrames": 102,
        "frameRates": 144
      },
      {
        "trial_number": 11,
        "trial_index": 110,
        "rt": 842,
        "correct": true,
        "response": "ArrowLeft",
        "congruent": false,
        "gazeTowards": false,
        "gazeCondition": "away",
        "faceOnLeft": true,
        "impliedDirection": 0,
        "testDirection": 180,
        "avgFps": 144,
        "minFps": 135,
        "maxFps": 149,
        "totalFrames": 121,
        "frameRates": 144
      },
      {
        "trial_number": 12,
        "trial_index": 115,
        "rt": 897,
        "correct": false,
        "response": "ArrowLeft",
        "congruent": false,
        "gazeTowards": false,
        "gazeCondition": "away",
        "faceOnLeft": false,
        "impliedDirection": 180,
        "testDirection": 0,
        "avgFps": 145,
        "minFps": 139,
        "maxFps": 672,
        "totalFrames": 129,
        "frameRates": 145
      },
      {
        "trial_number": 13,
        "trial_index": 120,
        "rt": 874,
        "correct": true,
        "response": "ArrowLeft",
        "congruent": false,
        "gazeTowards": true,
        "gazeCondition": "towards",
        "faceOnLeft": true,
        "impliedDirection": 0,
        "testDirection": 180,
        "avgFps": 144,
        "minFps": 137,
        "maxFps": 152,
        "totalFrames": 126,
        "frameRates": 144
      },
      {
        "trial_number": 14,
        "trial_index": 125,
        "rt": 702,
        "correct": true,
        "response": "ArrowRight",
        "congruent": false,
        "gazeTowards": false,
        "gazeCondition": "away",
        "faceOnLeft": false,
        "impliedDirection": 180,
        "testDirection": 0,
        "avgFps": 144,
        "minFps": 139,
        "maxFps": 149,
        "totalFrames": 100,
        "frameRates": 144
      },
      {
        "trial_number": 15,
        "trial_index": 130,
        "rt": 870,
        "correct": true,
        "response": "ArrowRight",
        "congruent": true,
        "gazeTowards": false,
        "gazeCondition": "away",
        "faceOnLeft": true,
        "impliedDirection": 0,
        "testDirection": 0,
        "avgFps": 144,
        "minFps": 139,
        "maxFps": 149,
        "totalFrames": 125,
        "frameRates": 144
      },
      {
        "trial_number": 16,
        "trial_index": 135,
        "rt": 621,
        "correct": true,
        "response": "ArrowRight",
        "congruent": true,
        "gazeTowards": false,
        "gazeCondition": "away",
        "faceOnLeft": true,
        "impliedDirection": 0,
        "testDirection": 0,
        "avgFps": 144,
        "minFps": 139,
        "maxFps": 152,
        "totalFrames": 89,
        "frameRates": 144
      },
      {
        "trial_number": 17,
        "trial_index": 140,
        "rt": 698,
        "correct": true,
        "response": "ArrowRight",
        "congruent": true,
        "gazeTowards": false,
        "gazeCondition": "away",
        "faceOnLeft": true,
        "impliedDirection": 0,
        "testDirection": 0,
        "avgFps": 144,
        "minFps": 139,
        "maxFps": 149,
        "totalFrames": 100,
        "frameRates": 144
      },
      {
        "trial_number": 18,
        "trial_index": 145,
        "rt": 579,
        "correct": true,
        "response": "ArrowRight",
        "congruent": false,
        "gazeTowards": false,
        "gazeCondition": "away",
        "faceOnLeft": false,
        "impliedDirection": 180,
        "testDirection": 0,
        "avgFps": 144,
        "minFps": 137,
        "maxFps": 149,
        "totalFrames": 83,
        "frameRates": 144
      },
      {
        "trial_number": 19,
        "trial_index": 150,
        "rt": 837,
        "correct": false,
        "response": "ArrowRight",
        "congruent": true,
        "gazeTowards": false,
        "gazeCondition": "away",
        "faceOnLeft": false,
        "impliedDirection": 180,
        "testDirection": 180,
        "avgFps": 144,
        "minFps": 135,
        "maxFps": 154,
        "totalFrames": 120,
        "frameRates": 144
      },
      {
        "trial_number": 20,
        "trial_index": 155,
        "rt": 953,
        "correct": true,
        "response": "ArrowRight",
        "congruent": false,
        "gazeTowards": true,
        "gazeCondition": "towards",
        "faceOnLeft": false,
        "impliedDirection": 180,
        "testDirection": 0,
        "avgFps": 144,
        "minFps": 139,
        "maxFps": 152,
        "totalFrames": 137,
        "frameRates": 144
      },
      {
        "trial_number": 21,
        "trial_index": 160,
        "rt": 1028,
        "correct": false,
        "response": "ArrowRight",
        "congruent": true,
        "gazeTowards": true,
        "gazeCondition": "towards",
        "faceOnLeft": false,
        "impliedDirection": 180,
        "testDirection": 180,
        "avgFps": 144,
        "minFps": 137,
        "maxFps": 152,
        "totalFrames": 148,
        "frameRates": 144
      },
      {
        "trial_number": 22,
        "trial_index": 165,
        "rt": 1159,
        "correct": true,
        "response": "ArrowLeft",
        "congruent": false,
        "gazeTowards": true,
        "gazeCondition": "towards",
        "faceOnLeft": true,
        "impliedDirection": 0,
        "testDirection": 180,
        "avgFps": 144,
        "minFps": 141,
        "maxFps": 152,
        "totalFrames": 167,
        "frameRates": 144
      },
      {
        "trial_number": 23,
        "trial_index": 170,
        "rt": 693,
        "correct": true,
        "response": "ArrowRight",
        "congruent": false,
        "gazeTowards": true,
        "gazeCondition": "towards",
        "faceOnLeft": false,
        "impliedDirection": 180,
        "testDirection": 0,
        "avgFps": 144,
        "minFps": 141,
        "maxFps": 152,
        "totalFrames": 100,
        "frameRates": 144
      },
      {
        "trial_number": 24,
        "trial_index": 178,
        "rt": 684,
        "correct": true,
        "response": "ArrowRight",
        "congruent": true,
        "gazeTowards": true,
        "gazeCondition": "towards",
        "faceOnLeft": true,
        "impliedDirection": 0,
        "testDirection": 0,
        "avgFps": 144,
        "minFps": 135,
        "maxFps": 152,
        "totalFrames": 98,
        "frameRates": 144
      },
      {
        "trial_number": 25,
        "trial_index": 183,
        "rt": 922,
        "correct": false,
        "response": "ArrowRight",
        "congruent": true,
        "gazeTowards": true,
        "gazeCondition": "towards",
        "faceOnLeft": false,
        "impliedDirection": 180,
        "testDirection": 180,
        "avgFps": 144,
        "minFps": 139,
        "maxFps": 147,
        "totalFrames": 133,
        "frameRates": 144
      },
      {
        "trial_number": 26,
        "trial_index": 188,
        "rt": 546,
        "correct": true,
        "response": "ArrowRight",
        "congruent": false,
        "gazeTowards": true,
        "gazeCondition": "towards",
        "faceOnLeft": false,
        "impliedDirection": 180,
        "testDirection": 0,
        "avgFps": 144,
        "minFps": 135,
        "maxFps": 152,
        "totalFrames": 79,
        "frameRates": 144
      },
      {
        "trial_number": 27,
        "trial_index": 193,
        "rt": 904,
        "correct": false,
        "response": "ArrowLeft",
        "congruent": false,
        "gazeTowards": false,
        "gazeCondition": "away",
        "faceOnLeft": false,
        "impliedDirection": 180,
        "testDirection": 0,
        "avgFps": 144,
        "minFps": 137,
        "maxFps": 152,
        "totalFrames": 130,
        "frameRates": 144
      },
      {
        "trial_number": 28,
        "trial_index": 201,
        "rt": 688,
        "correct": false,
        "response": "ArrowRight",
        "congruent": false,
        "gazeTowards": true,
        "gazeCondition": "towards",
        "faceOnLeft": true,
        "impliedDirection": 0,
        "testDirection": 180,
        "avgFps": 144,
        "minFps": 133,
        "maxFps": 154,
        "totalFrames": 99,
        "frameRates": 144
      },
      {
        "trial_number": 29,
        "trial_index": 207,
        "rt": 650,
        "correct": false,
        "response": "ArrowRight",
        "congruent": true,
        "gazeTowards": false,
        "gazeCondition": "away",
        "faceOnLeft": false,
        "impliedDirection": 180,
        "testDirection": 180,
        "avgFps": 144,
        "minFps": 135,
        "maxFps": 152,
        "totalFrames": 93,
        "frameRates": 144
      },
      {
        "trial_number": 30,
        "trial_index": 212,
        "rt": 911,
        "correct": false,
        "response": "ArrowRight",
        "congruent": true,
        "gazeTowards": false,
        "gazeCondition": "away",
        "faceOnLeft": false,
        "impliedDirection": 180,
        "testDirection": 180,
        "avgFps": 144,
        "minFps": 139,
        "maxFps": 225,
        "totalFrames": 131,
        "frameRates": 144
      },
      {
        "trial_number": 31,
        "trial_index": 217,
        "rt": 818,
        "correct": false,
        "response": "ArrowRight",
        "congruent": true,
        "gazeTowards": false,
        "gazeCondition": "away",
        "faceOnLeft": false,
        "impliedDirection": 180,
        "testDirection": 180,
        "avgFps": 144,
        "minFps": 137,
        "maxFps": 147,
        "totalFrames": 118,
        "frameRates": 144
      },
      {
        "trial_number": 32,
        "trial_index": 222,
        "rt": 714,
        "correct": false,
        "response": "ArrowLeft",
        "congruent": true,
        "gazeTowards": true,
        "gazeCondition": "towards",
        "faceOnLeft": true,
        "impliedDirection": 0,
        "testDirection": 0,
        "avgFps": 144,
        "minFps": 141,
        "maxFps": 147,
        "totalFrames": 103,
        "frameRates": 144
      },
      {
        "trial_number": 33,
        "trial_index": 227,
        "rt": 1451,
        "correct": false,
        "response": "ArrowRight",
        "congruent": false,
        "gazeTowards": false,
        "gazeCondition": "away",
        "faceOnLeft": true,
        "impliedDirection": 0,
        "testDirection": 180,
        "avgFps": 144,
        "minFps": 141,
        "maxFps": 147,
        "totalFrames": 209,
        "frameRates": 144
      },
      {
        "trial_number": 34,
        "trial_index": 232,
        "rt": 673,
        "correct": true,
        "response": "ArrowRight",
        "congruent": true,
        "gazeTowards": true,
        "gazeCondition": "towards",
        "faceOnLeft": true,
        "impliedDirection": 0,
        "testDirection": 0,
        "avgFps": 144,
        "minFps": 137,
        "maxFps": 152,
        "totalFrames": 97,
        "frameRates": 144
      },
      {
        "trial_number": 35,
        "trial_index": 237,
        "rt": 781,
        "correct": false,
        "response": "ArrowRight",
        "congruent": true,
        "gazeTowards": false,
        "gazeCondition": "away",
        "faceOnLeft": false,
        "impliedDirection": 180,
        "testDirection": 180,
        "avgFps": 144,
        "minFps": 139,
        "maxFps": 149,
        "totalFrames": 113,
        "frameRates": 144
      },
      {
        "trial_number": 36,
        "trial_index": 242,
        "rt": 632,
        "correct": true,
        "response": "ArrowLeft",
        "congruent": true,
        "gazeTowards": true,
        "gazeCondition": "towards",
        "faceOnLeft": false,
        "impliedDirection": 180,
        "testDirection": 180,
        "avgFps": 144,
        "minFps": 139,
        "maxFps": 149,
        "totalFrames": 91,
        "frameRates": 144
      },
      {
        "trial_number": 37,
        "trial_index": 247,
        "rt": 565,
        "correct": true,
        "response": "ArrowRight",
        "congruent": false,
        "gazeTowards": true,
        "gazeCondition": "towards",
        "faceOnLeft": false,
        "impliedDirection": 180,
        "testDirection": 0,
        "avgFps": 144,
        "minFps": 137,
        "maxFps": 152,
        "totalFrames": 81,
        "frameRates": 144
      },
      {
        "trial_number": 38,
        "trial_index": 252,
        "rt": 697,
        "correct": false,
        "response": "ArrowRight",
        "congruent": true,
        "gazeTowards": false,
        "gazeCondition": "away",
        "faceOnLeft": false,
        "impliedDirection": 180,
        "testDirection": 180,
        "avgFps": 144,
        "minFps": 135,
        "maxFps": 154,
        "totalFrames": 100,
        "frameRates": 144
      },
      {
        "trial_number": 39,
        "trial_index": 257,
        "rt": 551,
        "correct": true,
        "response": "ArrowRight",
        "congruent": false,
        "gazeTowards": false,
        "gazeCondition": "away",
        "faceOnLeft": false,
        "impliedDirection": 180,
        "testDirection": 0,
        "avgFps": 144,
        "minFps": 135,
        "maxFps": 152,
        "totalFrames": 79,
        "frameRates": 144
      },
      {
        "trial_number": 40,
        "trial_index": 262,
        "rt": 1140,
        "correct": false,
        "response": "ArrowRight",
        "congruent": true,
        "gazeTowards": false,
        "gazeCondition": "away",
        "faceOnLeft": false,
        "impliedDirection": 180,
        "testDirection": 180,
        "avgFps": 144,
        "minFps": 137,
        "maxFps": 149,
        "totalFrames": 164,
        "frameRates": 144
      },
      {
        "trial_number": 41,
        "trial_index": 267,
        "rt": 1068,
        "correct": true,
        "response": "ArrowRight",
        "congruent": false,
        "gazeTowards": false,
        "gazeCondition": "away",
        "faceOnLeft": false,
        "impliedDirection": 180,
        "testDirection": 0,
        "avgFps": 144,
        "minFps": 139,
        "maxFps": 152,
        "totalFrames": 153,
        "frameRates": 144
      },
      {
        "trial_number": 42,
        "trial_index": 272,
        "rt": 999,
        "correct": false,
        "response": "ArrowRight",
        "congruent": true,
        "gazeTowards": true,
        "gazeCondition": "towards",
        "faceOnLeft": false,
        "impliedDirection": 180,
        "testDirection": 180,
        "avgFps": 144,
        "minFps": 137,
        "maxFps": 152,
        "totalFrames": 143,
        "frameRates": 144
      },
      {
        "trial_number": 43,
        "trial_index": 277,
        "rt": 838,
        "correct": false,
        "response": "ArrowLeft",
        "congruent": false,
        "gazeTowards": false,
        "gazeCondition": "away",
        "faceOnLeft": false,
        "impliedDirection": 180,
        "testDirection": 0,
        "avgFps": 144,
        "minFps": 141,
        "maxFps": 149,
        "totalFrames": 120,
        "frameRates": 144
      },
      {
        "trial_number": 44,
        "trial_index": 282,
        "rt": 707,
        "correct": true,
        "response": "ArrowRight",
        "congruent": true,
        "gazeTowards": true,
        "gazeCondition": "towards",
        "faceOnLeft": true,
        "impliedDirection": 0,
        "testDirection": 0,
        "avgFps": 144,
        "minFps": 135,
        "maxFps": 152,
        "totalFrames": 102,
        "frameRates": 144
      },
      {
        "trial_number": 45,
        "trial_index": 287,
        "rt": 686,
        "correct": true,
        "response": "ArrowRight",
        "congruent": true,
        "gazeTowards": false,
        "gazeCondition": "away",
        "faceOnLeft": true,
        "impliedDirection": 0,
        "testDirection": 0,
        "avgFps": 144,
        "minFps": 135,
        "maxFps": 152,
        "totalFrames": 99,
        "frameRates": 144
      },
      {
        "trial_number": 46,
        "trial_index": 295,
        "rt": 689,
        "correct": true,
        "response": "ArrowRight",
        "congruent": false,
        "gazeTowards": false,
        "gazeCondition": "away",
        "faceOnLeft": false,
        "impliedDirection": 180,
        "testDirection": 0,
        "avgFps": 144,
        "minFps": 132,
        "maxFps": 152,
        "totalFrames": 99,
        "frameRates": 144
      },
      {
        "trial_number": 47,
        "trial_index": 300,
        "rt": 832,
        "correct": true,
        "response": "ArrowRight",
        "congruent": true,
        "gazeTowards": false,
        "gazeCondition": "away",
        "faceOnLeft": true,
        "impliedDirection": 0,
        "testDirection": 0,
        "avgFps": 144,
        "minFps": 135,
        "maxFps": 233,
        "totalFrames": 120,
        "frameRates": 144
      },
      {
        "trial_number": 48,
        "trial_index": 305,
        "rt": 947,
        "correct": true,
        "response": "ArrowLeft",
        "congruent": true,
        "gazeTowards": true,
        "gazeCondition": "towards",
        "faceOnLeft": false,
        "impliedDirection": 180,
        "testDirection": 180,
        "avgFps": 144,
        "minFps": 135,
        "maxFps": 154,
        "totalFrames": 137,
        "frameRates": 144
      },
      {
        "trial_number": 49,
        "trial_index": 313,
        "rt": 627,
        "correct": false,
        "response": "ArrowRight",
        "congruent": false,
        "gazeTowards": true,
        "gazeCondition": "towards",
        "faceOnLeft": true,
        "impliedDirection": 0,
        "testDirection": 180,
        "avgFps": 144,
        "minFps": 135,
        "maxFps": 149,
        "totalFrames": 90,
        "frameRates": 144
      },
      {
        "trial_number": 50,
        "trial_index": 318,
        "rt": 750,
        "correct": false,
        "response": "ArrowRight",
        "congruent": true,
        "gazeTowards": true,
        "gazeCondition": "towards",
        "faceOnLeft": false,
        "impliedDirection": 180,
        "testDirection": 180,
        "avgFps": 144,
        "minFps": 139,
        "maxFps": 152,
        "totalFrames": 108,
        "frameRates": 144
      },
      {
        "trial_number": 51,
        "trial_index": 323,
        "rt": 633,
        "correct": false,
        "response": "ArrowRight",
        "congruent": false,
        "gazeTowards": false,
        "gazeCondition": "away",
        "faceOnLeft": true,
        "impliedDirection": 0,
        "testDirection": 180,
        "avgFps": 144,
        "minFps": 137,
        "maxFps": 152,
        "totalFrames": 91,
        "frameRates": 144
      },
      {
        "trial_number": 52,
        "trial_index": 328,
        "rt": 771,
        "correct": true,
        "response": "ArrowRight",
        "congruent": true,
        "gazeTowards": true,
        "gazeCondition": "towards",
        "faceOnLeft": true,
        "impliedDirection": 0,
        "testDirection": 0,
        "avgFps": 145,
        "minFps": 143,
        "maxFps": 324,
        "totalFrames": 111,
        "frameRates": 145
      },
      {
        "trial_number": 53,
        "trial_index": 333,
        "rt": 744,
        "correct": true,
        "response": "ArrowRight",
        "congruent": false,
        "gazeTowards": true,
        "gazeCondition": "towards",
        "faceOnLeft": false,
        "impliedDirection": 180,
        "testDirection": 0,
        "avgFps": 144,
        "minFps": 132,
        "maxFps": 228,
        "totalFrames": 107,
        "frameRates": 144
      },
      {
        "trial_number": 54,
        "trial_index": 338,
        "rt": 920,
        "correct": true,
        "response": "ArrowLeft",
        "congruent": true,
        "gazeTowards": false,
        "gazeCondition": "away",
        "faceOnLeft": false,
        "impliedDirection": 180,
        "testDirection": 180,
        "avgFps": 144,
        "minFps": 135,
        "maxFps": 152,
        "totalFrames": 132,
        "frameRates": 144
      },
      {
        "trial_number": 55,
        "trial_index": 343,
        "rt": 852,
        "correct": true,
        "response": "ArrowRight",
        "congruent": false,
        "gazeTowards": true,
        "gazeCondition": "towards",
        "faceOnLeft": false,
        "impliedDirection": 180,
        "testDirection": 0,
        "avgFps": 144,
        "minFps": 137,
        "maxFps": 152,
        "totalFrames": 122,
        "frameRates": 144
      },
      {
        "trial_number": 56,
        "trial_index": 348,
        "rt": 780,
        "correct": true,
        "response": "ArrowRight",
        "congruent": false,
        "gazeTowards": true,
        "gazeCondition": "towards",
        "faceOnLeft": false,
        "impliedDirection": 180,
        "testDirection": 0,
        "avgFps": 144,
        "minFps": 137,
        "maxFps": 152,
        "totalFrames": 112,
        "frameRates": 144
      },
      {
        "trial_number": 57,
        "trial_index": 353,
        "rt": 908,
        "correct": true,
        "response": "ArrowRight",
        "congruent": true,
        "gazeTowards": false,
        "gazeCondition": "away",
        "faceOnLeft": true,
        "impliedDirection": 0,
        "testDirection": 0,
        "avgFps": 144,
        "minFps": 141,
        "maxFps": 152,
        "totalFrames": 131,
        "frameRates": 144
      },
      {
        "trial_number": 58,
        "trial_index": 358,
        "rt": 929,
        "correct": true,
        "response": "ArrowRight",
        "congruent": false,
        "gazeTowards": true,
        "gazeCondition": "towards",
        "faceOnLeft": false,
        "impliedDirection": 180,
        "testDirection": 0,
        "avgFps": 144,
        "minFps": 137,
        "maxFps": 152,
        "totalFrames": 134,
        "frameRates": 144
      },
      {
        "trial_number": 59,
        "trial_index": 363,
        "rt": 983,
        "correct": true,
        "response": "ArrowRight",
        "congruent": true,
        "gazeTowards": true,
        "gazeCondition": "towards",
        "faceOnLeft": true,
        "impliedDirection": 0,
        "testDirection": 0,
        "avgFps": 144,
        "minFps": 137,
        "maxFps": 152,
        "totalFrames": 141,
        "frameRates": 144
      },
      {
        "trial_number": 60,
        "trial_index": 372,
        "rt": 1300,
        "correct": true,
        "response": "ArrowRight",
        "congruent": false,
        "gazeTowards": true,
        "gazeCondition": "towards",
        "faceOnLeft": false,
        "impliedDirection": 180,
        "testDirection": 0,
        "avgFps": 144,
        "minFps": 139,
        "maxFps": 149,
        "totalFrames": 187,
        "frameRates": 144
      },
      {
        "trial_number": 61,
        "trial_index": 377,
        "rt": 985,
        "correct": true,
        "response": "ArrowRight",
        "congruent": true,
        "gazeTowards": false,
        "gazeCondition": "away",
        "faceOnLeft": true,
        "impliedDirection": 0,
        "testDirection": 0,
        "avgFps": 144,
        "minFps": 137,
        "maxFps": 149,
        "totalFrames": 141,
        "frameRates": 144
      },
      {
        "trial_number": 62,
        "trial_index": 382,
        "rt": 1026,
        "correct": true,
        "response": "ArrowRight",
        "congruent": false,
        "gazeTowards": true,
        "gazeCondition": "towards",
        "faceOnLeft": false,
        "impliedDirection": 180,
        "testDirection": 0,
        "avgFps": 144,
        "minFps": 137,
        "maxFps": 156,
        "totalFrames": 147,
        "frameRates": 144
      },
      {
        "trial_number": 63,
        "trial_index": 387,
        "rt": 681,
        "correct": false,
        "response": "ArrowLeft",
        "congruent": false,
        "gazeTowards": false,
        "gazeCondition": "away",
        "faceOnLeft": false,
        "impliedDirection": 180,
        "testDirection": 0,
        "avgFps": 144,
        "minFps": 135,
        "maxFps": 152,
        "totalFrames": 98,
        "frameRates": 144
      },
      {
        "trial_number": 64,
        "trial_index": 395,
        "rt": 656,
        "correct": true,
        "response": "ArrowRight",
        "congruent": true,
        "gazeTowards": true,
        "gazeCondition": "towards",
        "faceOnLeft": true,
        "impliedDirection": 0,
        "testDirection": 0,
        "avgFps": 144,
        "minFps": 137,
        "maxFps": 149,
        "totalFrames": 95,
        "frameRates": 144
      },
      {
        "trial_number": 65,
        "trial_index": 400,
        "rt": 641,
        "correct": true,
        "response": "ArrowLeft",
        "congruent": true,
        "gazeTowards": false,
        "gazeCondition": "away",
        "faceOnLeft": false,
        "impliedDirection": 180,
        "testDirection": 180,
        "avgFps": 144,
        "minFps": 137,
        "maxFps": 152,
        "totalFrames": 92,
        "frameRates": 144
      },
      {
        "trial_number": 66,
        "trial_index": 405,
        "rt": 814,
        "correct": true,
        "response": "ArrowRight",
        "congruent": false,
        "gazeTowards": true,
        "gazeCondition": "towards",
        "faceOnLeft": false,
        "impliedDirection": 180,
        "testDirection": 0,
        "avgFps": 144,
        "minFps": 135,
        "maxFps": 152,
        "totalFrames": 117,
        "frameRates": 144
      },
      {
        "trial_number": 67,
        "trial_index": 410,
        "rt": 702,
        "correct": true,
        "response": "ArrowRight",
        "congruent": true,
        "gazeTowards": false,
        "gazeCondition": "away",
        "faceOnLeft": true,
        "impliedDirection": 0,
        "testDirection": 0,
        "avgFps": 144,
        "minFps": 132,
        "maxFps": 152,
        "totalFrames": 101,
        "frameRates": 144
      },
      {
        "trial_number": 68,
        "trial_index": 418,
        "rt": 1056,
        "correct": true,
        "response": "ArrowLeft",
        "congruent": false,
        "gazeTowards": false,
        "gazeCondition": "away",
        "faceOnLeft": true,
        "impliedDirection": 0,
        "testDirection": 180,
        "avgFps": 144,
        "minFps": 133,
        "maxFps": 147,
        "totalFrames": 152,
        "frameRates": 144
      },
      {
        "trial_number": 69,
        "trial_index": 423,
        "rt": 924,
        "correct": true,
        "response": "ArrowRight",
        "congruent": false,
        "gazeTowards": true,
        "gazeCondition": "towards",
        "faceOnLeft": false,
        "impliedDirection": 180,
        "testDirection": 0,
        "avgFps": 144,
        "minFps": 137,
        "maxFps": 147,
        "totalFrames": 133,
        "frameRates": 144
      },
      {
        "trial_number": 70,
        "trial_index": 428,
        "rt": 849,
        "correct": true,
        "response": "ArrowLeft",
        "congruent": true,
        "gazeTowards": true,
        "gazeCondition": "towards",
        "faceOnLeft": false,
        "impliedDirection": 180,
        "testDirection": 180,
        "avgFps": 144,
        "minFps": 137,
        "maxFps": 152,
        "totalFrames": 122,
        "frameRates": 144
      },
      {
        "trial_number": 71,
        "trial_index": 433,
        "rt": 950,
        "correct": true,
        "response": "ArrowLeft",
        "congruent": false,
        "gazeTowards": false,
        "gazeCondition": "away",
        "faceOnLeft": true,
        "impliedDirection": 0,
        "testDirection": 180,
        "avgFps": 144,
        "minFps": 141,
        "maxFps": 149,
        "totalFrames": 136,
        "frameRates": 144
      },
      {
        "trial_number": 72,
        "trial_index": 438,
        "rt": 506,
        "correct": true,
        "response": "ArrowRight",
        "congruent": false,
        "gazeTowards": true,
        "gazeCondition": "towards",
        "faceOnLeft": false,
        "impliedDirection": 180,
        "testDirection": 0,
        "avgFps": 144,
        "minFps": 139,
        "maxFps": 149,
        "totalFrames": 72,
        "frameRates": 144
      },
      {
        "trial_number": 73,
        "trial_index": 443,
        "rt": 604,
        "correct": true,
        "response": "ArrowRight",
        "congruent": false,
        "gazeTowards": true,
        "gazeCondition": "towards",
        "faceOnLeft": false,
        "impliedDirection": 180,
        "testDirection": 0,
        "avgFps": 144,
        "minFps": 137,
        "maxFps": 152,
        "totalFrames": 87,
        "frameRates": 144
      },
      {
        "trial_number": 74,
        "trial_index": 448,
        "rt": 581,
        "correct": true,
        "response": "ArrowLeft",
        "congruent": false,
        "gazeTowards": true,
        "gazeCondition": "towards",
        "faceOnLeft": true,
        "impliedDirection": 0,
        "testDirection": 180,
        "avgFps": 144,
        "minFps": 137,
        "maxFps": 152,
        "totalFrames": 83,
        "frameRates": 144
      },
      {
        "trial_number": 75,
        "trial_index": 453,
        "rt": 505,
        "correct": true,
        "response": "ArrowRight",
        "congruent": true,
        "gazeTowards": false,
        "gazeCondition": "away",
        "faceOnLeft": true,
        "impliedDirection": 0,
        "testDirection": 0,
        "avgFps": 144,
        "minFps": 139,
        "maxFps": 147,
        "totalFrames": 72,
        "frameRates": 144
      },
      {
        "trial_number": 76,
        "trial_index": 458,
        "rt": 516,
        "correct": true,
        "response": "ArrowLeft",
        "congruent": false,
        "gazeTowards": false,
        "gazeCondition": "away",
        "faceOnLeft": true,
        "impliedDirection": 0,
        "testDirection": 180,
        "avgFps": 144,
        "minFps": 141,
        "maxFps": 147,
        "totalFrames": 74,
        "frameRates": 144
      },
      {
        "trial_number": 77,
        "trial_index": 469,
        "rt": 561,
        "correct": true,
        "response": "ArrowRight",
        "congruent": true,
        "gazeTowards": true,
        "gazeCondition": "towards",
        "faceOnLeft": true,
        "impliedDirection": 0,
        "testDirection": 0,
        "avgFps": 145,
        "minFps": 141,
        "maxFps": 233,
        "totalFrames": 81,
        "frameRates": 145
      },
      {
        "trial_number": 78,
        "trial_index": 474,
        "rt": 952,
        "correct": true,
        "response": "ArrowRight",
        "congruent": true,
        "gazeTowards": true,
        "gazeCondition": "towards",
        "faceOnLeft": true,
        "impliedDirection": 0,
        "testDirection": 0,
        "avgFps": 144,
        "minFps": 135,
        "maxFps": 154,
        "totalFrames": 137,
        "frameRates": 144
      },
      {
        "trial_number": 79,
        "trial_index": 479,
        "rt": 574,
        "correct": true,
        "response": "ArrowLeft",
        "congruent": true,
        "gazeTowards": false,
        "gazeCondition": "away",
        "faceOnLeft": false,
        "impliedDirection": 180,
        "testDirection": 180,
        "avgFps": 139,
        "minFps": 49,
        "maxFps": 147,
        "totalFrames": 80,
        "frameRates": 139
      },
      {
        "trial_number": 80,
        "trial_index": 484,
        "rt": 498,
        "correct": true,
        "response": "ArrowRight",
        "congruent": true,
        "gazeTowards": false,
        "gazeCondition": "away",
        "faceOnLeft": true,
        "impliedDirection": 0,
        "testDirection": 0,
        "avgFps": 144,
        "minFps": 143,
        "maxFps": 191,
        "totalFrames": 72,
        "frameRates": 144
      },
      {
        "trial_number": 81,
        "trial_index": 489,
        "rt": 464,
        "correct": true,
        "response": "ArrowRight",
        "congruent": false,
        "gazeTowards": true,
        "gazeCondition": "towards",
        "faceOnLeft": false,
        "impliedDirection": 180,
        "testDirection": 0,
        "avgFps": 144,
        "minFps": 139,
        "maxFps": 152,
        "totalFrames": 66,
        "frameRates": 144
      },
      {
        "trial_number": 82,
        "trial_index": 494,
        "rt": 607,
        "correct": true,
        "response": "ArrowRight",
        "congruent": true,
        "gazeTowards": true,
        "gazeCondition": "towards",
        "faceOnLeft": true,
        "impliedDirection": 0,
        "testDirection": 0,
        "avgFps": 144,
        "minFps": 137,
        "maxFps": 152,
        "totalFrames": 87,
        "frameRates": 144
      },
      {
        "trial_number": 83,
        "trial_index": 499,
        "rt": 563,
        "correct": true,
        "response": "ArrowRight",
        "congruent": false,
        "gazeTowards": false,
        "gazeCondition": "away",
        "faceOnLeft": false,
        "impliedDirection": 180,
        "testDirection": 0,
        "avgFps": 144,
        "minFps": 137,
        "maxFps": 152,
        "totalFrames": 80,
        "frameRates": 144
      },
      {
        "trial_number": 84,
        "trial_index": 504,
        "rt": 428,
        "correct": true,
        "response": "ArrowLeft",
        "congruent": false,
        "gazeTowards": false,
        "gazeCondition": "away",
        "faceOnLeft": true,
        "impliedDirection": 0,
        "testDirection": 180,
        "avgFps": 144,
        "minFps": 137,
        "maxFps": 147,
        "totalFrames": 61,
        "frameRates": 144
      },
      {
        "trial_number": 85,
        "trial_index": 509,
        "rt": 539,
        "correct": true,
        "response": "ArrowRight",
        "congruent": true,
        "gazeTowards": false,
        "gazeCondition": "away",
        "faceOnLeft": true,
        "impliedDirection": 0,
        "testDirection": 0,
        "avgFps": 144,
        "minFps": 139,
        "maxFps": 152,
        "totalFrames": 77,
        "frameRates": 144
      },
      {
        "trial_number": 86,
        "trial_index": 514,
        "rt": 699,
        "correct": true,
        "response": "ArrowRight",
        "congruent": false,
        "gazeTowards": true,
        "gazeCondition": "towards",
        "faceOnLeft": false,
        "impliedDirection": 180,
        "testDirection": 0,
        "avgFps": 144,
        "minFps": 139,
        "maxFps": 149,
        "totalFrames": 101,
        "frameRates": 144
      },
      {
        "trial_number": 87,
        "trial_index": 519,
        "rt": 548,
        "correct": true,
        "response": "ArrowRight",
        "congruent": false,
        "gazeTowards": false,
        "gazeCondition": "away",
        "faceOnLeft": false,
        "impliedDirection": 180,
        "testDirection": 0,
        "avgFps": 144,
        "minFps": 137,
        "maxFps": 149,
        "totalFrames": 78,
        "frameRates": 144
      },
      {
        "trial_number": 88,
        "trial_index": 525,
        "rt": 460,
        "correct": true,
        "response": "ArrowLeft",
        "congruent": true,
        "gazeTowards": false,
        "gazeCondition": "away",
        "faceOnLeft": false,
        "impliedDirection": 180,
        "testDirection": 180,
        "avgFps": 145,
        "minFps": 139,
        "maxFps": 213,
        "totalFrames": 66,
        "frameRates": 145
      },
      {
        "trial_number": 89,
        "trial_index": 530,
        "rt": 470,
        "correct": true,
        "response": "ArrowRight",
        "congruent": false,
        "gazeTowards": true,
        "gazeCondition": "towards",
        "faceOnLeft": false,
        "impliedDirection": 180,
        "testDirection": 0,
        "avgFps": 144,
        "minFps": 141,
        "maxFps": 147,
        "totalFrames": 68,
        "frameRates": 144
      },
      {
        "trial_number": 90,
        "trial_index": 535,
        "rt": 483,
        "correct": true,
        "response": "ArrowLeft",
        "congruent": true,
        "gazeTowards": true,
        "gazeCondition": "towards",
        "faceOnLeft": false,
        "impliedDirection": 180,
        "testDirection": 180,
        "avgFps": 145,
        "minFps": 141,
        "maxFps": 228,
        "totalFrames": 69,
        "frameRates": 145
      },
      {
        "trial_number": 91,
        "trial_index": 540,
        "rt": 490,
        "correct": true,
        "response": "ArrowLeft",
        "congruent": false,
        "gazeTowards": true,
        "gazeCondition": "towards",
        "faceOnLeft": true,
        "impliedDirection": 0,
        "testDirection": 180,
        "avgFps": 144,
        "minFps": 135,
        "maxFps": 152,
        "totalFrames": 70,
        "frameRates": 144
      },
      {
        "trial_number": 92,
        "trial_index": 545,
        "rt": 396,
        "correct": true,
        "response": "ArrowLeft",
        "congruent": false,
        "gazeTowards": true,
        "gazeCondition": "towards",
        "faceOnLeft": true,
        "impliedDirection": 0,
        "testDirection": 180,
        "avgFps": 144,
        "minFps": 135,
        "maxFps": 152,
        "totalFrames": 56,
        "frameRates": 144
      },
      {
        "trial_number": 93,
        "trial_index": 550,
        "rt": 448,
        "correct": true,
        "response": "ArrowRight",
        "congruent": false,
        "gazeTowards": false,
        "gazeCondition": "away",
        "faceOnLeft": false,
        "impliedDirection": 180,
        "testDirection": 0,
        "avgFps": 144,
        "minFps": 139,
        "maxFps": 154,
        "totalFrames": 65,
        "frameRates": 144
      },
      {
        "trial_number": 94,
        "trial_index": 555,
        "rt": 499,
        "correct": true,
        "response": "ArrowRight",
        "congruent": true,
        "gazeTowards": true,
        "gazeCondition": "towards",
        "faceOnLeft": true,
        "impliedDirection": 0,
        "testDirection": 0,
        "avgFps": 144,
        "minFps": 137,
        "maxFps": 152,
        "totalFrames": 72,
        "frameRates": 144
      },
      {
        "trial_number": 95,
        "trial_index": 560,
        "rt": 738,
        "correct": true,
        "response": "ArrowRight",
        "congruent": true,
        "gazeTowards": false,
        "gazeCondition": "away",
        "faceOnLeft": true,
        "impliedDirection": 0,
        "testDirection": 0,
        "avgFps": 144,
        "minFps": 141,
        "maxFps": 147,
        "totalFrames": 106,
        "frameRates": 144
      },
      {
        "trial_number": 96,
        "trial_index": 565,
        "rt": 484,
        "correct": true,
        "response": "ArrowRight",
        "congruent": true,
        "gazeTowards": true,
        "gazeCondition": "towards",
        "faceOnLeft": true,
        "impliedDirection": 0,
        "testDirection": 0,
        "avgFps": 145,
        "minFps": 132,
        "maxFps": 218,
        "totalFrames": 70,
        "frameRates": 145
      },
      {
        "trial_number": 97,
        "trial_index": 570,
        "rt": 432,
        "correct": true,
        "response": "ArrowLeft",
        "congruent": false,
        "gazeTowards": false,
        "gazeCondition": "away",
        "faceOnLeft": true,
        "impliedDirection": 0,
        "testDirection": 180,
        "avgFps": 144,
        "minFps": 137,
        "maxFps": 154,
        "totalFrames": 62,
        "frameRates": 144
      },
      {
        "trial_number": 98,
        "trial_index": 575,
        "rt": 504,
        "correct": true,
        "response": "ArrowLeft",
        "congruent": true,
        "gazeTowards": false,
        "gazeCondition": "away",
        "faceOnLeft": false,
        "impliedDirection": 180,
        "testDirection": 180,
        "avgFps": 144,
        "minFps": 137,
        "maxFps": 149,
        "totalFrames": 73,
        "frameRates": 144
      },
      {
        "trial_number": 99,
        "trial_index": 580,
        "rt": 537,
        "correct": true,
        "response": "ArrowRight",
        "congruent": false,
        "gazeTowards": false,
        "gazeCondition": "away",
        "faceOnLeft": false,
        "impliedDirection": 180,
        "testDirection": 0,
        "avgFps": 145,
        "minFps": 137,
        "maxFps": 630,
        "totalFrames": 77,
        "frameRates": 145
      },
      {
        "trial_number": 100,
        "trial_index": 585,
        "rt": 569,
        "correct": true,
        "response": "ArrowRight",
        "congruent": false,
        "gazeTowards": false,
        "gazeCondition": "away",
        "faceOnLeft": false,
        "impliedDirection": 180,
        "testDirection": 0,
        "avgFps": 144,
        "minFps": 139,
        "maxFps": 147,
        "totalFrames": 82,
        "frameRates": 144
      },
      {
        "trial_number": 101,
        "trial_index": 590,
        "rt": 539,
        "correct": true,
        "response": "ArrowLeft",
        "congruent": false,
        "gazeTowards": true,
        "gazeCondition": "towards",
        "faceOnLeft": true,
        "impliedDirection": 0,
        "testDirection": 180,
        "avgFps": 144,
        "minFps": 135,
        "maxFps": 149,
        "totalFrames": 78,
        "frameRates": 144
      },
      {
        "trial_number": 102,
        "trial_index": 595,
        "rt": 580,
        "correct": true,
        "response": "ArrowLeft",
        "congruent": false,
        "gazeTowards": true,
        "gazeCondition": "towards",
        "faceOnLeft": true,
        "impliedDirection": 0,
        "testDirection": 180,
        "avgFps": 144,
        "minFps": 137,
        "maxFps": 149,
        "totalFrames": 83,
        "frameRates": 144
      },
      {
        "trial_number": 103,
        "trial_index": 600,
        "rt": 664,
        "correct": true,
        "response": "ArrowRight",
        "congruent": true,
        "gazeTowards": false,
        "gazeCondition": "away",
        "faceOnLeft": true,
        "impliedDirection": 0,
        "testDirection": 0,
        "avgFps": 145,
        "minFps": 137,
        "maxFps": 257,
        "totalFrames": 95,
        "frameRates": 145
      },
      {
        "trial_number": 104,
        "trial_index": 605,
        "rt": 501,
        "correct": false,
        "response": "ArrowLeft",
        "congruent": false,
        "gazeTowards": false,
        "gazeCondition": "away",
        "faceOnLeft": false,
        "impliedDirection": 180,
        "testDirection": 0,
        "avgFps": 144,
        "minFps": 135,
        "maxFps": 152,
        "totalFrames": 72,
        "frameRates": 144
      },
      {
        "trial_number": 105,
        "trial_index": 610,
        "rt": 609,
        "correct": true,
        "response": "ArrowRight",
        "congruent": false,
        "gazeTowards": false,
        "gazeCondition": "away",
        "faceOnLeft": false,
        "impliedDirection": 180,
        "testDirection": 0,
        "avgFps": 144,
        "minFps": 137,
        "maxFps": 149,
        "totalFrames": 87,
        "frameRates": 144
      },
      {
        "trial_number": 106,
        "trial_index": 615,
        "rt": 539,
        "correct": true,
        "response": "ArrowLeft",
        "congruent": false,
        "gazeTowards": false,
        "gazeCondition": "away",
        "faceOnLeft": true,
        "impliedDirection": 0,
        "testDirection": 180,
        "avgFps": 144,
        "minFps": 139,
        "maxFps": 149,
        "totalFrames": 77,
        "frameRates": 144
      },
      {
        "trial_number": 107,
        "trial_index": 620,
        "rt": 513,
        "correct": true,
        "response": "ArrowLeft",
        "congruent": true,
        "gazeTowards": true,
        "gazeCondition": "towards",
        "faceOnLeft": false,
        "impliedDirection": 180,
        "testDirection": 180,
        "avgFps": 145,
        "minFps": 143,
        "maxFps": 223,
        "totalFrames": 74,
        "frameRates": 145
      },
      {
        "trial_number": 108,
        "trial_index": 625,
        "rt": 511,
        "correct": true,
        "response": "ArrowLeft",
        "congruent": false,
        "gazeTowards": true,
        "gazeCondition": "towards",
        "faceOnLeft": true,
        "impliedDirection": 0,
        "testDirection": 180,
        "avgFps": 144,
        "minFps": 141,
        "maxFps": 147,
        "totalFrames": 74,
        "frameRates": 144
      },
      {
        "trial_number": 109,
        "trial_index": 630,
        "rt": 469,
        "correct": true,
        "response": "ArrowLeft",
        "congruent": true,
        "gazeTowards": true,
        "gazeCondition": "towards",
        "faceOnLeft": false,
        "impliedDirection": 180,
        "testDirection": 180,
        "avgFps": 144,
        "minFps": 141,
        "maxFps": 149,
        "totalFrames": 67,
        "frameRates": 144
      },
      {
        "trial_number": 110,
        "trial_index": 635,
        "rt": 489,
        "correct": true,
        "response": "ArrowRight",
        "congruent": true,
        "gazeTowards": false,
        "gazeCondition": "away",
        "faceOnLeft": true,
        "impliedDirection": 0,
        "testDirection": 0,
        "avgFps": 144,
        "minFps": 139,
        "maxFps": 147,
        "totalFrames": 70,
        "frameRates": 144
      },
      {
        "trial_number": 111,
        "trial_index": 640,
        "rt": 436,
        "correct": true,
        "response": "ArrowLeft",
        "congruent": false,
        "gazeTowards": false,
        "gazeCondition": "away",
        "faceOnLeft": true,
        "impliedDirection": 0,
        "testDirection": 180,
        "avgFps": 144,
        "minFps": 141,
        "maxFps": 149,
        "totalFrames": 63,
        "frameRates": 144
      },
      {
        "trial_number": 112,
        "trial_index": 645,
        "rt": 494,
        "correct": true,
        "response": "ArrowRight",
        "congruent": false,
        "gazeTowards": true,
        "gazeCondition": "towards",
        "faceOnLeft": false,
        "impliedDirection": 180,
        "testDirection": 0,
        "avgFps": 145,
        "minFps": 137,
        "maxFps": 233,
        "totalFrames": 71,
        "frameRates": 145
      },
      {
        "trial_number": 113,
        "trial_index": 650,
        "rt": 476,
        "correct": true,
        "response": "ArrowLeft",
        "congruent": true,
        "gazeTowards": false,
        "gazeCondition": "away",
        "faceOnLeft": false,
        "impliedDirection": 180,
        "testDirection": 180,
        "avgFps": 144,
        "minFps": 105,
        "maxFps": 217,
        "totalFrames": 69,
        "frameRates": 144
      },
      {
        "trial_number": 114,
        "trial_index": 655,
        "rt": 456,
        "correct": true,
        "response": "ArrowLeft",
        "congruent": true,
        "gazeTowards": true,
        "gazeCondition": "towards",
        "faceOnLeft": false,
        "impliedDirection": 180,
        "testDirection": 180,
        "avgFps": 144,
        "minFps": 137,
        "maxFps": 149,
        "totalFrames": 66,
        "frameRates": 144
      },
      {
        "trial_number": 115,
        "trial_index": 660,
        "rt": 457,
        "correct": true,
        "response": "ArrowRight",
        "congruent": true,
        "gazeTowards": true,
        "gazeCondition": "towards",
        "faceOnLeft": true,
        "impliedDirection": 0,
        "testDirection": 0,
        "avgFps": 145,
        "minFps": 137,
        "maxFps": 230,
        "totalFrames": 66,
        "frameRates": 145
      },
      {
        "trial_number": 116,
        "trial_index": 665,
        "rt": 600,
        "correct": true,
        "response": "ArrowRight",
        "congruent": false,
        "gazeTowards": false,
        "gazeCondition": "away",
        "faceOnLeft": false,
        "impliedDirection": 180,
        "testDirection": 0,
        "avgFps": 144,
        "minFps": 139,
        "maxFps": 147,
        "totalFrames": 87,
        "frameRates": 144
      },
      {
        "trial_number": 117,
        "trial_index": 670,
        "rt": 505,
        "correct": true,
        "response": "ArrowRight",
        "congruent": true,
        "gazeTowards": false,
        "gazeCondition": "away",
        "faceOnLeft": true,
        "impliedDirection": 0,
        "testDirection": 0,
        "avgFps": 145,
        "minFps": 137,
        "maxFps": 223,
        "totalFrames": 72,
        "frameRates": 145
      },
      {
        "trial_number": 118,
        "trial_index": 678,
        "rt": 559,
        "correct": true,
        "response": "ArrowLeft",
        "congruent": false,
        "gazeTowards": true,
        "gazeCondition": "towards",
        "faceOnLeft": true,
        "impliedDirection": 0,
        "testDirection": 180,
        "avgFps": 144,
        "minFps": 135,
        "maxFps": 152,
        "totalFrames": 81,
        "frameRates": 144
      },
      {
        "trial_number": 119,
        "trial_index": 683,
        "rt": 542,
        "correct": true,
        "response": "ArrowLeft",
        "congruent": true,
        "gazeTowards": true,
        "gazeCondition": "towards",
        "faceOnLeft": false,
        "impliedDirection": 180,
        "testDirection": 180,
        "avgFps": 144,
        "minFps": 141,
        "maxFps": 147,
        "totalFrames": 77,
        "frameRates": 144
      }
    ],
    "catch": {
      "total": 12,
      "correct": 12,
      "accuracy": 100,
      "meanRT": 610,
      "trials": [
        {
          "trial_number": 0,
          "trial_index": 73,
          "rt": 802,
          "correct": true,
          "colorTarget": "tree",
          "gazeTowards": true,
          "gazeCondition": "towards",
          "faceOnLeft": false
        },
        {
          "trial_number": 1,
          "trial_index": 101,
          "rt": 642,
          "correct": true,
          "colorTarget": "tree",
          "gazeTowards": true,
          "gazeCondition": "towards",
          "faceOnLeft": false
        },
        {
          "trial_number": 2,
          "trial_index": 174,
          "rt": 530,
          "correct": true,
          "colorTarget": "tree",
          "gazeTowards": true,
          "gazeCondition": "towards",
          "faceOnLeft": false
        },
        {
          "trial_number": 3,
          "trial_index": 197,
          "rt": 614,
          "correct": true,
          "colorTarget": "face",
          "gazeTowards": true,
          "gazeCondition": "towards",
          "faceOnLeft": true
        },
        {
          "trial_number": 4,
          "trial_index": 291,
          "rt": 533,
          "correct": true,
          "colorTarget": "face",
          "gazeTowards": true,
          "gazeCondition": "towards",
          "faceOnLeft": true
        },
        {
          "trial_number": 5,
          "trial_index": 309,
          "rt": 632,
          "correct": true,
          "colorTarget": "tree",
          "gazeTowards": true,
          "gazeCondition": "towards",
          "faceOnLeft": true
        },
        {
          "trial_number": 6,
          "trial_index": 368,
          "rt": 602,
          "correct": true,
          "colorTarget": "face",
          "gazeTowards": true,
          "gazeCondition": "towards",
          "faceOnLeft": false
        },
        {
          "trial_number": 7,
          "trial_index": 391,
          "rt": 522,
          "correct": true,
          "colorTarget": "face",
          "gazeTowards": false,
          "gazeCondition": "away",
          "faceOnLeft": true
        },
        {
          "trial_number": 8,
          "trial_index": 414,
          "rt": 590,
          "correct": true,
          "colorTarget": "face",
          "gazeTowards": true,
          "gazeCondition": "towards",
          "faceOnLeft": true
        },
        {
          "trial_number": 9,
          "trial_index": 462,
          "rt": 766,
          "correct": true,
          "colorTarget": "tree",
          "gazeTowards": false,
          "gazeCondition": "away",
          "faceOnLeft": true
        },
        {
          "trial_number": 10,
          "trial_index": 465,
          "rt": 449,
          "correct": true,
          "colorTarget": "face",
          "gazeTowards": true,
          "gazeCondition": "towards",
          "faceOnLeft": false
        },
        {
          "trial_number": 11,
          "trial_index": 674,
          "rt": 637,
          "correct": true,
          "colorTarget": "tree",
          "gazeTowards": true,
          "gazeCondition": "towards",
          "faceOnLeft": false
        }
      ]
    },
    "practice": {
      "trials": [
        {
          "trial_number": 0,
          "rt": null,
          "correct": false,
          "direction": 180
        },
        {
          "trial_number": 1,
          "rt": 681,
          "correct": true,
          "direction": 0
        },
        {
          "trial_number": 2,
          "rt": 620,
          "correct": true,
          "direction": 180
        },
        {
          "trial_number": 3,
          "rt": 924,
          "correct": true,
          "direction": 180
        },
        {
          "trial_number": 4,
          "rt": 1027,
          "correct": true,
          "direction": 180
        },
        {
          "trial_number": 5,
          "rt": 783,
          "correct": true,
          "direction": 0
        },
        {
          "trial_number": 6,
          "rt": 754,
          "correct": true,
          "direction": 0
        },
        {
          "trial_number": 7,
          "rt": 560,
          "correct": true,
          "direction": 180
        },
        {
          "trial_number": 8,
          "rt": 732,
          "correct": true,
          "direction": 180
        },
        {
          "trial_number": 9,
          "rt": 481,
          "correct": true,
          "direction": 0
        }
      ],
      "meanRT": 729,
      "accuracy": 90
    }
  }
}