{
  "experiment": "rdk-face-1",
  "UUID": "ebfa19b8-90ee-460d-80c0-26d30097092d",
  "data": {
    "session": {
      "experiment_version": "1.4",
      "treatment": "faces",
      "file_version": "1.4",
      "totalTrials": 48,
      "session_group": "default",
      "browserData": {
        "os": "Windows",
        "browser": "Chrome",
        "screenResolution": "1920x1080",
        "browserViewport": "1920x1080"
      },
      "calibration": {
        "monitorWidthCm": 38,
        "viewingDistanceCm": 54,
        "pixelsPerDegree": 50
      },
      "parameters": {
        "coherence": 0.4,
        "apertureDeg": 5,
        "dotSpeedDegPerSec": 2.4,
        "lifetimeMs": 200,
        "fixationDurationMs": 1500,
        "faceDurationMs": 1500,
        "testDurationMs": 1000
      },
      "mturk": {
        "assignmentId": "36PW28KO4DUAP8BX622LCJ9O3ALEAG",
        "workerId": "A1YZJ4RYNL4DL7",
        "hitId": "38Z7YZ2SCG0B59N61FKWYEQL2YOQI4"
      }
    },
    "trials": [
      {
        "trial_number": 0,
        "trial_index": 47,
        "rt": null,
        "correct": false,
        "response": null,
        "congruent": false,
        "eyesOpen": false,
        "faceOnLeft": false,
        "impliedDirection": 180,
        "testDirection": 0
      },
      {
        "trial_number": 1,
        "trial_index": 52,
        "rt": 766,
        "correct": true,
        "response": "ArrowLeft",
        "congruent": false,
        "eyesOpen": false,
        "faceOnLeft": true,
        "impliedDirection": 0,
        "testDirection": 180
      },
      {
        "trial_number": 2,
        "trial_index": 57,
        "rt": 777,
        "correct": true,
        "response": "ArrowRight",
        "congruent": true,
        "eyesOpen": false,
        "faceOnLeft": true,
        "impliedDirection": 0,
        "testDirection": 0
      },
      {
        "trial_number": 3,
        "trial_index": 62,
        "rt": 808,
        "correct": true,
        "response": "ArrowRight",
        "congruent": false,
        "eyesOpen": false,
        "faceOnLeft": false,
        "impliedDirection": 180,
        "testDirection": 0
      },
      {
        "trial_number": 4,
        "trial_index": 67,
        "rt": 757,
        "correct": true,
        "response": "ArrowLeft",
        "congruent": true,
        "eyesOpen": true,
        "faceOnLeft": false,
        "impliedDirection": 180,
        "testDirection": 180
      },
      {
        "trial_number": 5,
        "trial_index": 72,
        "rt": 879,
        "correct": true,
        "response": "ArrowLeft",
        "congruent": false,
        "eyesOpen": true,
        "faceOnLeft": true,
        "impliedDirection": 0,
        "testDirection": 180
      },
      {
        "trial_number": 6,
        "trial_index": 77,
        "rt": 587,
        "correct": true,
        "response": "ArrowRight",
        "congruent": false,
        "eyesOpen": true,
        "faceOnLeft": false,
        "impliedDirection": 180,
        "testDirection": 0
      },
      {
        "trial_number": 7,
        "trial_index": 82,
        "rt": 833,
        "correct": true,
        "response": "ArrowLeft",
        "congruent": true,
        "eyesOpen": false,
        "faceOnLeft": false,
        "impliedDirection": 180,
        "testDirection": 180
      },
      {
        "trial_number": 8,
        "trial_index": 87,
        "rt": 741,
        "correct": true,
        "response": "ArrowLeft",
        "congruent": false,
        "eyesOpen": true,
        "faceOnLeft": true,
        "impliedDirection": 0,
        "testDirection": 180
      },
      {
        "trial_number": 9,
        "trial_index": 92,
        "rt": 694,
        "correct": true,
        "response": "ArrowLeft",
        "congruent": true,
        "eyesOpen": false,
        "faceOnLeft": false,
        "impliedDirection": 180,
        "testDirection": 180
      },
      {
        "trial_number": 10,
        "trial_index": 97,
        "rt": 615,
        "correct": true,
        "response": "ArrowLeft",
        "congruent": true,
        "eyesOpen": true,
        "faceOnLeft": false,
        "impliedDirection": 180,
        "testDirection": 180
      },
      {
        "trial_number": 11,
        "trial_index": 102,
        "rt": 415,
        "correct": true,
        "response": "ArrowRight",
        "congruent": true,
        "eyesOpen": false,
        "faceOnLeft": true,
        "impliedDirection": 0,
        "testDirection": 0
      },
      {
        "trial_number": 12,
        "trial_index": 107,
        "rt": 624,
        "correct": true,
        "response": "ArrowLeft",
        "congruent": true,
        "eyesOpen": false,
        "faceOnLeft": false,
        "impliedDirection": 180,
        "testDirection": 180
      },
      {
        "trial_number": 13,
        "trial_index": 112,
        "rt": 538,
        "correct": true,
        "response": "ArrowLeft",
        "congruent": true,
        "eyesOpen": false,
        "faceOnLeft": false,
        "impliedDirection": 180,
        "testDirection": 180
      },
      {
        "trial_number": 14,
        "trial_index": 117,
        "rt": 398,
        "correct": true,
        "response": "ArrowLeft",
        "congruent": true,
        "eyesOpen": true,
        "faceOnLeft": false,
        "impliedDirection": 180,
        "testDirection": 180
      },
      {
        "trial_number": 15,
        "trial_index": 122,
        "rt": 613,
        "correct": true,
        "response": "ArrowLeft",
        "congruent": false,
        "eyesOpen": false,
        "faceOnLeft": true,
        "impliedDirection": 0,
        "testDirection": 180
      },
      {
        "trial_number": 16,
        "trial_index": 127,
        "rt": 566,
        "correct": true,
        "response": "ArrowLeft",
        "congruent": true,
        "eyesOpen": true,
        "faceOnLeft": false,
        "impliedDirection": 180,
        "testDirection": 180
      },
      {
        "trial_number": 17,
        "trial_index": 132,
        "rt": 677,
        "correct": true,
        "response": "ArrowRight",
        "congruent": true,
        "eyesOpen": false,
        "faceOnLeft": true,
        "impliedDirection": 0,
        "testDirection": 0
      },
      {
        "trial_number": 18,
        "trial_index": 137,
        "rt": 706,
        "correct": true,
        "response": "ArrowRight",
        "congruent": false,
        "eyesOpen": false,
        "faceOnLeft": false,
        "impliedDirection": 180,
        "testDirection": 0
      },
      {
        "trial_number": 19,
        "trial_index": 142,
        "rt": 755,
        "correct": true,
        "response": "ArrowRight",
        "congruent": true,
        "eyesOpen": true,
        "faceOnLeft": true,
        "impliedDirection": 0,
        "testDirection": 0
      },
      {
        "trial_number": 20,
        "trial_index": 147,
        "rt": 472,
        "correct": true,
        "response": "ArrowLeft",
        "congruent": true,
        "eyesOpen": false,
        "faceOnLeft": false,
        "impliedDirection": 180,
        "testDirection": 180
      },
      {
        "trial_number": 21,
        "trial_index": 152,
        "rt": 631,
        "correct": true,
        "response": "ArrowRight",
        "congruent": false,
        "eyesOpen": true,
        "faceOnLeft": false,
        "impliedDirection": 180,
        "testDirection": 0
      },
      {
        "trial_number": 22,
        "trial_index": 157,
        "rt": 617,
        "correct": true,
        "response": "ArrowLeft",
        "congruent": true,
        "eyesOpen": true,
        "faceOnLeft": false,
        "impliedDirection": 180,
        "testDirection": 180
      },
      {
        "trial_number": 23,
        "trial_index": 162,
        "rt": 580,
        "correct": true,
        "response": "ArrowLeft",
        "congruent": true,
        "eyesOpen": true,
        "faceOnLeft": false,
        "impliedDirection": 180,
        "testDirection": 180
      },
      {
        "trial_number": 24,
        "trial_index": 167,
        "rt": 659,
        "correct": true,
        "response": "ArrowRight",
        "congruent": true,
        "eyesOpen": true,
        "faceOnLeft": true,
        "impliedDirection": 0,
        "testDirection": 0
      },
      {
        "trial_number": 25,
        "trial_index": 172,
        "rt": 581,
        "correct": true,
        "response": "ArrowLeft",
        "congruent": false,
        "eyesOpen": false,
        "faceOnLeft": true,
        "impliedDirection": 0,
        "testDirection": 180
      },
      {
        "trial_number": 26,
        "trial_index": 177,
        "rt": 631,
        "correct": true,
        "response": "ArrowRight",
        "congruent": true,
        "eyesOpen": false,
        "faceOnLeft": true,
        "impliedDirection": 0,
        "testDirection": 0
      },
      {
        "trial_number": 27,
        "trial_index": 182,
        "rt": 816,
        "correct": true,
        "response": "ArrowRight",
        "congruent": false,
        "eyesOpen": false,
        "faceOnLeft": false,
        "impliedDirection": 180,
        "testDirection": 0
      },
      {
        "trial_number": 28,
        "trial_index": 187,
        "rt": 703,
        "correct": true,
        "response": "ArrowRight",
        "congruent": false,
        "eyesOpen": false,
        "faceOnLeft": false,
        "impliedDirection": 180,
        "testDirection": 0
      },
      {
        "trial_number": 29,
        "trial_index": 192,
        "rt": 631,
        "correct": true,
        "response": "ArrowLeft",
        "congruent": false,
        "eyesOpen": true,
        "faceOnLeft": true,
        "impliedDirection": 0,
        "testDirection": 180
      },
      {
        "trial_number": 30,
        "trial_index": 197,
        "rt": 712,
        "correct": true,
        "response": "ArrowRight",
        "congruent": false,
        "eyesOpen": false,
        "faceOnLeft": false,
        "impliedDirection": 180,
        "testDirection": 0
      },
      {
        "trial_number": 31,
        "trial_index": 202,
        "rt": 437,
        "correct": true,
        "response": "ArrowLeft",
        "congruent": false,
        "eyesOpen": true,
        "faceOnLeft": true,
        "impliedDirection": 0,
        "testDirection": 180
      },
      {
        "trial_number": 32,
        "trial_index": 207,
        "rt": null,
        "correct": false,
        "response": null,
        "congruent": false,
        "eyesOpen": true,
        "faceOnLeft": false,
        "impliedDirection": 180,
        "testDirection": 0
      },
      {
        "trial_number": 33,
        "trial_index": 212,
        "rt": 652,
        "correct": true,
        "response": "ArrowRight",
        "congruent": false,
        "eyesOpen": true,
        "faceOnLeft": false,
        "impliedDirection": 180,
        "testDirection": 0
      },
      {
        "trial_number": 34,
        "trial_index": 217,
        "rt": 683,
        "correct": true,
        "response": "ArrowRight",
        "congruent": false,
        "eyesOpen": true,
        "faceOnLeft": false,
        "impliedDirection": 180,
        "testDirection": 0
      },
      {
        "trial_number": 35,
        "trial_index": 222,
        "rt": 602,
        "correct": true,
        "response": "ArrowLeft",
        "congruent": true,
        "eyesOpen": true,
        "faceOnLeft": false,
        "impliedDirection": 180,
        "testDirection": 180
      },
      {
        "trial_number": 36,
        "trial_index": 227,
        "rt": 659,
        "correct": true,
        "response": "ArrowRight",
        "congruent": false,
        "eyesOpen": true,
        "faceOnLeft": false,
        "impliedDirection": 180,
        "testDirection": 0
      },
      {
        "trial_number": 37,
        "trial_index": 232,
        "rt": 611,
        "correct": true,
        "response": "ArrowLeft",
        "congruent": false,
        "eyesOpen": false,
        "faceOnLeft": true,
        "impliedDirection": 0,
        "testDirection": 180
      },
      {
        "trial_number": 38,
        "trial_index": 237,
        "rt": 702,
        "correct": false,
        "response": "ArrowLeft",
        "congruent": true,
        "eyesOpen": false,
        "faceOnLeft": true,
        "impliedDirection": 0,
        "testDirection": 0
      },
      {
        "trial_number": 39,
        "trial_index": 242,
        "rt": 833,
        "correct": true,
        "response": "ArrowLeft",
        "congruent": true,
        "eyesOpen": false,
        "faceOnLeft": false,
        "impliedDirection": 180,
        "testDirection": 180
      },
      {
        "trial_number": 40,
        "trial_index": 247,
        "rt": 713,
        "correct": true,
        "response": "ArrowLeft",
        "congruent": true,
        "eyesOpen": true,
        "faceOnLeft": false,
        "impliedDirection": 180,
        "testDirection": 180
      },
      {
        "trial_number": 41,
        "trial_index": 252,
        "rt": 983,
        "correct": true,
        "response": "ArrowLeft",
        "congruent": true,
        "eyesOpen": true,
        "faceOnLeft": false,
        "impliedDirection": 180,
        "testDirection": 180
      },
      {
        "trial_number": 42,
        "trial_index": 257,
        "rt": 689,
        "correct": true,
        "response": "ArrowRight",
        "congruent": false,
        "eyesOpen": false,
        "faceOnLeft": false,
        "impliedDirection": 180,
        "testDirection": 0
      },
      {
        "trial_number": 43,
        "trial_index": 262,
        "rt": 703,
        "correct": true,
        "response": "ArrowLeft",
        "congruent": false,
        "eyesOpen": false,
        "faceOnLeft": true,
        "impliedDirection": 0,
        "testDirection": 180
      },
      {
        "trial_number": 44,
        "trial_index": 267,
        "rt": 638,
        "correct": true,
        "response": "ArrowRight",
        "congruent": false,
        "eyesOpen": true,
        "faceOnLeft": false,
        "impliedDirection": 180,
        "testDirection": 0
      },
      {
        "trial_number": 45,
        "trial_index": 272,
        "rt": 853,
        "correct": true,
        "response": "ArrowRight",
        "congruent": false,
        "eyesOpen": true,
        "faceOnLeft": false,
        "impliedDirection": 180,
        "testDirection": 0
      },
      {
        "trial_number": 46,
        "trial_index": 277,
        "rt": 666,
        "correct": true,
        "response": "ArrowRight",
        "congruent": true,
        "eyesOpen": false,
        "faceOnLeft": true,
        "impliedDirection": 0,
        "testDirection": 0
      },
      {
        "trial_number": 47,
        "trial_index": 282,
        "rt": 642,
        "correct": true,
        "response": "ArrowRight",
        "congruent": true,
        "eyesOpen": true,
        "faceOnLeft": true,
        "impliedDirection": 0,
        "testDirection": 0
      }
    ],
    "practice": {
      "trials": [
        {
          "trial_number": 0,
          "rt": null,
          "correct": false,
          "direction": 180
        },
        {
          "trial_number": 1,
          "rt": 732,
          "correct": true,
          "direction": 180
        },
        {
          "trial_number": 2,
          "rt": 537,
          "correct": true,
          "direction": 180
        },
        {
          "trial_number": 3,
          "rt": 590,
          "correct": true,
          "direction": 180
        },
        {
          "trial_number": 4,
          "rt": 568,
          "correct": true,
          "direction": 0
        },
        {
          "trial_number": 5,
          "rt": 580,
          "correct": true,
          "direction": 0
        },
        {
          "trial_number": 6,
          "rt": 633,
          "correct": true,
          "direction": 0
        },
        {
          "trial_number": 7,
          "rt": 606,
          "correct": true,
          "direction": 0
        },
        {
          "trial_number": 8,
          "rt": 632,
          "correct": true,
          "direction": 180
        },
        {
          "trial_number": 9,
          "rt": 594,
          "correct": true,
          "direction": 180
        }
      ],
      "meanRT": 608,
      "accuracy": 90
    }
  }
}