{
  "experiment": "rdk-face-1",
  "UUID": "28c6c3a7-ec48-4438-9fa5-67fcef2e31a6",
  "data": {
    "session": {
      "experiment_version": "1.8.6",
      "treatment": "faces_towards_away_catch",
      "file_version": "1.8.6",
      "totalTrials": 120,
      "totalTrialsIncludingCatch": 132,
      "conditions": {
        "gazeTowardsCount": 60,
        "gazeAwayCount": 60,
        "gazeTowardsAccuracy": 57,
        "gazeAwayAccuracy": 62
      },
      "session_group": "default",
      "browserData": {
        "os": "Windows",
        "browser": "Chrome",
        "screenResolution": "1366x768",
        "browserViewport": "1366x768",
        "devicePixelRatio": 1,
        "colorDepth": 32,
        "hardwareConcurrency": 4,
        "deviceMemory": 4,
        "gpuRenderer": "ANGLE (Intel, Intel(R) UHD Graphics 600 (0x00003185) Direct3D11 vs_5_0 ps_5_0, D3D11)",
        "measuredRefreshRateHz": 21
      },
      "attention": {
        "visibilityEvents": [
          {
            "event": "blur",
            "state": "blurred",
            "timestamp": 1772780559068
          },
          {
            "event": "visibilitychange",
            "state": "hidden",
            "timestamp": 1772780559072
          },
          {
            "event": "visibilitychange",
            "state": "visible",
            "timestamp": 1772780561356
          },
          {
            "event": "focus",
            "state": "focused",
            "timestamp": 1772780561363
          }
        ]
      },
      "calibration": {
        "monitorWidthCm": 38,
        "viewingDistanceCm": 54,
        "pixelsPerDegree": 50
      },
      "parameters": {
        "coherence": 0.4,
        "apertureDeg": 5,
        "densityDotsPerDeg2": 40,
        "dotDiameterDeg": 0.035,
        "dotSpeedDegPerSec": 3,
        "lifetimeMs": 200,
        "fixationDurationMs": 1500,
        "faceDurationMs": 1500,
        "testDurationMs": 2000,
        "catchResponseMs": 3000
      },
      "prolific": {
        "prolificPid": "5d8cef3c28e183001a335ab0",
        "studyId": "",
        "sessionId": ""
      },
      "timing": {
        "startTime": "2026-03-06T07:02:35.767Z",
        "endTime": "2026-03-06T07:17:39.305Z",
        "totalElapsedTimeMs": 903538
      }
    },
    "trials": [
      {
        "trial_number": 0,
        "trial_index": 90,
        "rt": 1398,
        "correct": true,
        "response": "ArrowLeft",
        "congruent": false,
        "gazeTowards": true,
        "gazeCondition": "towards",
        "faceOnLeft": true,
        "impliedDirection": 0,
        "testDirection": 180,
        "avgFps": 30,
        "minFps": 30,
        "maxFps": 31,
        "totalFrames": 41,
        "frameRates": 30
      },
      {
        "trial_number": 1,
        "trial_index": 95,
        "rt": 1505,
        "correct": true,
        "response": "ArrowRight",
        "congruent": true,
        "gazeTowards": true,
        "gazeCondition": "towards",
        "faceOnLeft": true,
        "impliedDirection": 0,
        "testDirection": 0,
        "avgFps": 30,
        "minFps": 30,
        "maxFps": 31,
        "totalFrames": 45,
        "frameRates": 30
      },
      {
        "trial_number": 2,
        "trial_index": 100,
        "rt": 1233,
        "correct": true,
        "response": "ArrowRight",
        "congruent": true,
        "gazeTowards": false,
        "gazeCondition": "away",
        "faceOnLeft": true,
        "impliedDirection": 0,
        "testDirection": 0,
        "avgFps": 30,
        "minFps": 30,
        "maxFps": 31,
        "totalFrames": 37,
        "frameRates": 30
      },
      {
        "trial_number": 3,
        "trial_index": 105,
        "rt": 1141,
        "correct": true,
        "response": "ArrowRight",
        "congruent": true,
        "gazeTowards": false,
        "gazeCondition": "away",
        "faceOnLeft": true,
        "impliedDirection": 0,
        "testDirection": 0,
        "avgFps": 30,
        "minFps": 30,
        "maxFps": 32,
        "totalFrames": 34,
        "frameRates": 30
      },
      {
        "trial_number": 4,
        "trial_index": 110,
        "rt": 1137,
        "correct": true,
        "response": "ArrowRight",
        "congruent": true,
        "gazeTowards": false,
        "gazeCondition": "away",
        "faceOnLeft": true,
        "impliedDirection": 0,
        "testDirection": 0,
        "avgFps": 30,
        "minFps": 30,
        "maxFps": 33,
        "totalFrames": 34,
        "frameRates": 30
      },
      {
        "trial_number": 5,
        "trial_index": 115,
        "rt": 1328,
        "correct": true,
        "response": "ArrowRight",
        "congruent": false,
        "gazeTowards": false,
        "gazeCondition": "away",
        "faceOnLeft": false,
        "impliedDirection": 180,
        "testDirection": 0,
        "avgFps": 30,
        "minFps": 30,
        "maxFps": 33,
        "totalFrames": 39,
        "frameRates": 30
      },
      {
        "trial_number": 6,
        "trial_index": 120,
        "rt": 1570,
        "correct": true,
        "response": "ArrowRight",
        "congruent": false,
        "gazeTowards": false,
        "gazeCondition": "away",
        "faceOnLeft": false,
        "impliedDirection": 180,
        "testDirection": 0,
        "avgFps": 30,
        "minFps": 30,
        "maxFps": 33,
        "totalFrames": 47,
        "frameRates": 30
      },
      {
        "trial_number": 7,
        "trial_index": 128,
        "rt": 1271,
        "correct": true,
        "response": "ArrowLeft",
        "congruent": true,
        "gazeTowards": true,
        "gazeCondition": "towards",
        "faceOnLeft": false,
        "impliedDirection": 180,
        "testDirection": 180,
        "avgFps": 30,
        "minFps": 30,
        "maxFps": 33,
        "totalFrames": 38,
        "frameRates": 30
      },
      {
        "trial_number": 8,
        "trial_index": 133,
        "rt": 1212,
        "correct": false,
        "response": "ArrowRight",
        "congruent": false,
        "gazeTowards": false,
        "gazeCondition": "away",
        "faceOnLeft": true,
        "impliedDirection": 0,
        "testDirection": 180,
        "avgFps": 30,
        "minFps": 29,
        "maxFps": 30,
        "totalFrames": 36,
        "frameRates": 30
      },
      {
        "trial_number": 9,
        "trial_index": 138,
        "rt": 1089,
        "correct": false,
        "response": "ArrowRight",
        "congruent": false,
        "gazeTowards": false,
        "gazeCondition": "away",
        "faceOnLeft": true,
        "impliedDirection": 0,
        "testDirection": 180,
        "avgFps": 30,
        "minFps": 30,
        "maxFps": 31,
        "totalFrames": 32,
        "frameRates": 30
      },
      {
        "trial_number": 10,
        "trial_index": 143,
        "rt": 1055,
        "correct": true,
        "response": "ArrowRight",
        "congruent": true,
        "gazeTowards": true,
        "gazeCondition": "towards",
        "faceOnLeft": true,
        "impliedDirection": 0,
        "testDirection": 0,
        "avgFps": 30,
        "minFps": 30,
        "maxFps": 31,
        "totalFrames": 31,
        "frameRates": 30
      },
      {
        "trial_number": 11,
        "trial_index": 148,
        "rt": 1234,
        "correct": true,
        "response": "ArrowRight",
        "congruent": false,
        "gazeTowards": true,
        "gazeCondition": "towards",
        "faceOnLeft": false,
        "impliedDirection": 180,
        "testDirection": 0,
        "avgFps": 30,
        "minFps": 30,
        "maxFps": 32,
        "totalFrames": 37,
        "frameRates": 30
      },
      {
        "trial_number": 12,
        "trial_index": 153,
        "rt": 1274,
        "correct": true,
        "response": "ArrowRight",
        "congruent": false,
        "gazeTowards": true,
        "gazeCondition": "towards",
        "faceOnLeft": false,
        "impliedDirection": 180,
        "testDirection": 0,
        "avgFps": 30,
        "minFps": 30,
        "maxFps": 33,
        "totalFrames": 38,
        "frameRates": 30
      },
      {
        "trial_number": 13,
        "trial_index": 158,
        "rt": 1540,
        "correct": true,
        "response": "ArrowLeft",
        "congruent": true,
        "gazeTowards": true,
        "gazeCondition": "towards",
        "faceOnLeft": false,
        "impliedDirection": 180,
        "testDirection": 180,
        "avgFps": 30,
        "minFps": 30,
        "maxFps": 33,
        "totalFrames": 46,
        "frameRates": 30
      },
      {
        "trial_number": 14,
        "trial_index": 163,
        "rt": 1284,
        "correct": false,
        "response": "ArrowLeft",
        "congruent": false,
        "gazeTowards": true,
        "gazeCondition": "towards",
        "faceOnLeft": false,
        "impliedDirection": 180,
        "testDirection": 0,
        "avgFps": 30,
        "minFps": 30,
        "maxFps": 33,
        "totalFrames": 38,
        "frameRates": 30
      },
      {
        "trial_number": 15,
        "trial_index": 168,
        "rt": 1556,
        "correct": false,
        "response": "ArrowLeft",
        "congruent": false,
        "gazeTowards": true,
        "gazeCondition": "towards",
        "faceOnLeft": false,
        "impliedDirection": 180,
        "testDirection": 0,
        "avgFps": 30,
        "minFps": 30,
        "maxFps": 33,
        "totalFrames": 46,
        "frameRates": 30
      },
      {
        "trial_number": 16,
        "trial_index": 173,
        "rt": 1477,
        "correct": true,
        "response": "ArrowRight",
        "congruent": false,
        "gazeTowards": false,
        "gazeCondition": "away",
        "faceOnLeft": false,
        "impliedDirection": 180,
        "testDirection": 0,
        "avgFps": 30,
        "minFps": 29,
        "maxFps": 32,
        "totalFrames": 44,
        "frameRates": 30
      },
      {
        "trial_number": 17,
        "trial_index": 178,
        "rt": 1925,
        "correct": true,
        "response": "ArrowRight",
        "congruent": true,
        "gazeTowards": false,
        "gazeCondition": "away",
        "faceOnLeft": true,
        "impliedDirection": 0,
        "testDirection": 0,
        "avgFps": 30,
        "minFps": 30,
        "maxFps": 33,
        "totalFrames": 57,
        "frameRates": 30
      },
      {
        "trial_number": 18,
        "trial_index": 183,
        "rt": 1237,
        "correct": true,
        "response": "ArrowRight",
        "congruent": true,
        "gazeTowards": true,
        "gazeCondition": "towards",
        "faceOnLeft": true,
        "impliedDirection": 0,
        "testDirection": 0,
        "avgFps": 30,
        "minFps": 30,
        "maxFps": 33,
        "totalFrames": 37,
        "frameRates": 30
      },
      {
        "trial_number": 19,
        "trial_index": 188,
        "rt": 1192,
        "correct": true,
        "response": "ArrowLeft",
        "congruent": true,
        "gazeTowards": false,
        "gazeCondition": "away",
        "faceOnLeft": false,
        "impliedDirection": 180,
        "testDirection": 180,
        "avgFps": 30,
        "minFps": 30,
        "maxFps": 33,
        "totalFrames": 35,
        "frameRates": 30
      },
      {
        "trial_number": 20,
        "trial_index": 193,
        "rt": 930,
        "correct": true,
        "response": "ArrowLeft",
        "congruent": false,
        "gazeTowards": true,
        "gazeCondition": "towards",
        "faceOnLeft": true,
        "impliedDirection": 0,
        "testDirection": 180,
        "avgFps": 30,
        "minFps": 30,
        "maxFps": 33,
        "totalFrames": 28,
        "frameRates": 30
      },
      {
        "trial_number": 21,
        "trial_index": 198,
        "rt": 957,
        "correct": true,
        "response": "ArrowRight",
        "congruent": true,
        "gazeTowards": false,
        "gazeCondition": "away",
        "faceOnLeft": true,
        "impliedDirection": 0,
        "testDirection": 0,
        "avgFps": 30,
        "minFps": 29,
        "maxFps": 30,
        "totalFrames": 28,
        "frameRates": 30
      },
      {
        "trial_number": 22,
        "trial_index": 203,
        "rt": 1094,
        "correct": true,
        "response": "ArrowLeft",
        "congruent": false,
        "gazeTowards": false,
        "gazeCondition": "away",
        "faceOnLeft": true,
        "impliedDirection": 0,
        "testDirection": 180,
        "avgFps": 30,
        "minFps": 30,
        "maxFps": 33,
        "totalFrames": 32,
        "frameRates": 30
      },
      {
        "trial_number": 23,
        "trial_index": 208,
        "rt": 1614,
        "correct": true,
        "response": "ArrowLeft",
        "congruent": false,
        "gazeTowards": false,
        "gazeCondition": "away",
        "faceOnLeft": true,
        "impliedDirection": 0,
        "testDirection": 180,
        "avgFps": 30,
        "minFps": 30,
        "maxFps": 31,
        "totalFrames": 48,
        "frameRates": 30
      },
      {
        "trial_number": 24,
        "trial_index": 213,
        "rt": 922,
        "correct": false,
        "response": "ArrowRight",
        "congruent": true,
        "gazeTowards": true,
        "gazeCondition": "towards",
        "faceOnLeft": false,
        "impliedDirection": 180,
        "testDirection": 180,
        "avgFps": 30,
        "minFps": 30,
        "maxFps": 31,
        "totalFrames": 27,
        "frameRates": 30
      },
      {
        "trial_number": 25,
        "trial_index": 218,
        "rt": 1159,
        "correct": true,
        "response": "ArrowLeft",
        "congruent": false,
        "gazeTowards": true,
        "gazeCondition": "towards",
        "faceOnLeft": true,
        "impliedDirection": 0,
        "testDirection": 180,
        "avgFps": 30,
        "minFps": 30,
        "maxFps": 40,
        "totalFrames": 35,
        "frameRates": 30
      },
      {
        "trial_number": 26,
        "trial_index": 226,
        "rt": 1544,
        "correct": true,
        "response": "ArrowLeft",
        "congruent": true,
        "gazeTowards": false,
        "gazeCondition": "away",
        "faceOnLeft": false,
        "impliedDirection": 180,
        "testDirection": 180,
        "avgFps": 30,
        "minFps": 29,
        "maxFps": 33,
        "totalFrames": 46,
        "frameRates": 30
      },
      {
        "trial_number": 27,
        "trial_index": 231,
        "rt": 1388,
        "correct": true,
        "response": "ArrowLeft",
        "congruent": true,
        "gazeTowards": false,
        "gazeCondition": "away",
        "faceOnLeft": false,
        "impliedDirection": 180,
        "testDirection": 180,
        "avgFps": 30,
        "minFps": 30,
        "maxFps": 33,
        "totalFrames": 41,
        "frameRates": 30
      },
      {
        "trial_number": 28,
        "trial_index": 236,
        "rt": 1047,
        "correct": true,
        "response": "ArrowLeft",
        "congruent": true,
        "gazeTowards": false,
        "gazeCondition": "away",
        "faceOnLeft": false,
        "impliedDirection": 180,
        "testDirection": 180,
        "avgFps": 30,
        "minFps": 29,
        "maxFps": 32,
        "totalFrames": 31,
        "frameRates": 30
      },
      {
        "trial_number": 29,
        "trial_index": 241,
        "rt": 1214,
        "correct": true,
        "response": "ArrowRight",
        "congruent": false,
        "gazeTowards": true,
        "gazeCondition": "towards",
        "faceOnLeft": false,
        "impliedDirection": 180,
        "testDirection": 0,
        "avgFps": 30,
        "minFps": 30,
        "maxFps": 33,
        "totalFrames": 36,
        "frameRates": 30
      },
      {
        "trial_number": 30,
        "trial_index": 246,
        "rt": 1077,
        "correct": false,
        "response": "ArrowRight",
        "congruent": true,
        "gazeTowards": true,
        "gazeCondition": "towards",
        "faceOnLeft": false,
        "impliedDirection": 180,
        "testDirection": 180,
        "avgFps": 30,
        "minFps": 30,
        "maxFps": 33,
        "totalFrames": 32,
        "frameRates": 30
      },
      {
        "trial_number": 31,
        "trial_index": 252,
        "rt": 820,
        "correct": false,
        "response": "ArrowLeft",
        "congruent": false,
        "gazeTowards": false,
        "gazeCondition": "away",
        "faceOnLeft": false,
        "impliedDirection": 180,
        "testDirection": 0,
        "avgFps": 60,
        "minFps": 60,
        "maxFps": 73,
        "totalFrames": 48,
        "frameRates": 60
      },
      {
        "trial_number": 32,
        "trial_index": 257,
        "rt": 1617,
        "correct": true,
        "response": "ArrowLeft",
        "congruent": true,
        "gazeTowards": true,
        "gazeCondition": "towards",
        "faceOnLeft": false,
        "impliedDirection": 180,
        "testDirection": 180,
        "avgFps": 30,
        "minFps": 30,
        "maxFps": 33,
        "totalFrames": 48,
        "frameRates": 30
      },
      {
        "trial_number": 33,
        "trial_index": 262,
        "rt": null,
        "correct": false,
        "response": null,
        "congruent": true,
        "gazeTowards": true,
        "gazeCondition": "towards",
        "faceOnLeft": false,
        "impliedDirection": 180,
        "testDirection": 180,
        "avgFps": 60,
        "minFps": 30,
        "maxFps": 72,
        "totalFrames": 120,
        "frameRates": 60
      },
      {
        "trial_number": 34,
        "trial_index": 267,
        "rt": 1501,
        "correct": true,
        "response": "ArrowRight",
        "congruent": true,
        "gazeTowards": false,
        "gazeCondition": "away",
        "faceOnLeft": true,
        "impliedDirection": 0,
        "testDirection": 0,
        "avgFps": 60,
        "minFps": 59,
        "maxFps": 76,
        "totalFrames": 90,
        "frameRates": 60
      },
      {
        "trial_number": 35,
        "trial_index": 272,
        "rt": 1211,
        "correct": false,
        "response": "ArrowRight",
        "congruent": true,
        "gazeTowards": true,
        "gazeCondition": "towards",
        "faceOnLeft": false,
        "impliedDirection": 180,
        "testDirection": 180,
        "avgFps": 60,
        "minFps": 60,
        "maxFps": 65,
        "totalFrames": 73,
        "frameRates": 60
      },
      {
        "trial_number": 36,
        "trial_index": 277,
        "rt": 1218,
        "correct": false,
        "response": "ArrowRight",
        "congruent": false,
        "gazeTowards": false,
        "gazeCondition": "away",
        "faceOnLeft": true,
        "impliedDirection": 0,
        "testDirection": 180,
        "avgFps": 59,
        "minFps": 20,
        "maxFps": 72,
        "totalFrames": 71,
        "frameRates": 59
      },
      {
        "trial_number": 37,
        "trial_index": 282,
        "rt": 1147,
        "correct": false,
        "response": "ArrowRight",
        "congruent": true,
        "gazeTowards": false,
        "gazeCondition": "away",
        "faceOnLeft": false,
        "impliedDirection": 180,
        "testDirection": 180,
        "avgFps": 60,
        "minFps": 60,
        "maxFps": 79,
        "totalFrames": 69,
        "frameRates": 60
      },
      {
        "trial_number": 38,
        "trial_index": 287,
        "rt": 1127,
        "correct": false,
        "response": "ArrowRight",
        "congruent": false,
        "gazeTowards": false,
        "gazeCondition": "away",
        "faceOnLeft": true,
        "impliedDirection": 0,
        "testDirection": 180,
        "avgFps": 60,
        "minFps": 58,
        "maxFps": 72,
        "totalFrames": 67,
        "frameRates": 60
      },
      {
        "trial_number": 39,
        "trial_index": 292,
        "rt": 1759,
        "correct": false,
        "response": "ArrowRight",
        "congruent": true,
        "gazeTowards": false,
        "gazeCondition": "away",
        "faceOnLeft": false,
        "impliedDirection": 180,
        "testDirection": 180,
        "avgFps": 60,
        "minFps": 34,
        "maxFps": 62,
        "totalFrames": 105,
        "frameRates": 60
      },
      {
        "trial_number": 40,
        "trial_index": 297,
        "rt": 958,
        "correct": false,
        "response": "ArrowRight",
        "congruent": true,
        "gazeTowards": true,
        "gazeCondition": "towards",
        "faceOnLeft": false,
        "impliedDirection": 180,
        "testDirection": 180,
        "avgFps": 60,
        "minFps": 58,
        "maxFps": 73,
        "totalFrames": 57,
        "frameRates": 60
      },
      {
        "trial_number": 41,
        "trial_index": 302,
        "rt": 1337,
        "correct": true,
        "response": "ArrowRight",
        "congruent": true,
        "gazeTowards": false,
        "gazeCondition": "away",
        "faceOnLeft": true,
        "impliedDirection": 0,
        "testDirection": 0,
        "avgFps": 60,
        "minFps": 58,
        "maxFps": 75,
        "totalFrames": 80,
        "frameRates": 60
      },
      {
        "trial_number": 42,
        "trial_index": 307,
        "rt": 1065,
        "correct": true,
        "response": "ArrowRight",
        "congruent": false,
        "gazeTowards": false,
        "gazeCondition": "away",
        "faceOnLeft": false,
        "impliedDirection": 180,
        "testDirection": 0,
        "avgFps": 60,
        "minFps": 58,
        "maxFps": 62,
        "totalFrames": 64,
        "frameRates": 60
      },
      {
        "trial_number": 43,
        "trial_index": 312,
        "rt": 1065,
        "correct": false,
        "response": "ArrowRight",
        "congruent": false,
        "gazeTowards": false,
        "gazeCondition": "away",
        "faceOnLeft": true,
        "impliedDirection": 0,
        "testDirection": 180,
        "avgFps": 60,
        "minFps": 58,
        "maxFps": 75,
        "totalFrames": 64,
        "frameRates": 60
      },
      {
        "trial_number": 44,
        "trial_index": 317,
        "rt": 815,
        "correct": false,
        "response": "ArrowRight",
        "congruent": true,
        "gazeTowards": true,
        "gazeCondition": "towards",
        "faceOnLeft": false,
        "impliedDirection": 180,
        "testDirection": 180,
        "avgFps": 60,
        "minFps": 57,
        "maxFps": 73,
        "totalFrames": 49,
        "frameRates": 60
      },
      {
        "trial_number": 45,
        "trial_index": 322,
        "rt": 697,
        "correct": false,
        "response": "ArrowRight",
        "congruent": true,
        "gazeTowards": true,
        "gazeCondition": "towards",
        "faceOnLeft": false,
        "impliedDirection": 180,
        "testDirection": 180,
        "avgFps": 60,
        "minFps": 59,
        "maxFps": 72,
        "totalFrames": 42,
        "frameRates": 60
      },
      {
        "trial_number": 46,
        "trial_index": 333,
        "rt": 1127,
        "correct": true,
        "response": "ArrowRight",
        "congruent": false,
        "gazeTowards": true,
        "gazeCondition": "towards",
        "faceOnLeft": false,
        "impliedDirection": 180,
        "testDirection": 0,
        "avgFps": 60,
        "minFps": 58,
        "maxFps": 73,
        "totalFrames": 67,
        "frameRates": 60
      },
      {
        "trial_number": 47,
        "trial_index": 338,
        "rt": 1251,
        "correct": true,
        "response": "ArrowRight",
        "congruent": true,
        "gazeTowards": false,
        "gazeCondition": "away",
        "faceOnLeft": true,
        "impliedDirection": 0,
        "testDirection": 0,
        "avgFps": 60,
        "minFps": 58,
        "maxFps": 66,
        "totalFrames": 75,
        "frameRates": 60
      },
      {
        "trial_number": 48,
        "trial_index": 343,
        "rt": 1257,
        "correct": false,
        "response": "ArrowRight",
        "congruent": true,
        "gazeTowards": true,
        "gazeCondition": "towards",
        "faceOnLeft": false,
        "impliedDirection": 180,
        "testDirection": 180,
        "avgFps": 60,
        "minFps": 59,
        "maxFps": 74,
        "totalFrames": 75,
        "frameRates": 60
      },
      {
        "trial_number": 49,
        "trial_index": 348,
        "rt": 1492,
        "correct": false,
        "response": "ArrowRight",
        "congruent": false,
        "gazeTowards": true,
        "gazeCondition": "towards",
        "faceOnLeft": true,
        "impliedDirection": 0,
        "testDirection": 180,
        "avgFps": 60,
        "minFps": 58,
        "maxFps": 66,
        "totalFrames": 89,
        "frameRates": 60
      },
      {
        "trial_number": 50,
        "trial_index": 353,
        "rt": 1864,
        "correct": true,
        "response": "ArrowRight",
        "congruent": true,
        "gazeTowards": true,
        "gazeCondition": "towards",
        "faceOnLeft": true,
        "impliedDirection": 0,
        "testDirection": 0,
        "avgFps": 60,
        "minFps": 58,
        "maxFps": 74,
        "totalFrames": 112,
        "frameRates": 60
      },
      {
        "trial_number": 51,
        "trial_index": 358,
        "rt": 1841,
        "correct": false,
        "response": "ArrowLeft",
        "congruent": true,
        "gazeTowards": true,
        "gazeCondition": "towards",
        "faceOnLeft": true,
        "impliedDirection": 0,
        "testDirection": 0,
        "avgFps": 60,
        "minFps": 58,
        "maxFps": 61,
        "totalFrames": 110,
        "frameRates": 60
      },
      {
        "trial_number": 52,
        "trial_index": 363,
        "rt": 1297,
        "correct": true,
        "response": "ArrowRight",
        "congruent": false,
        "gazeTowards": true,
        "gazeCondition": "towards",
        "faceOnLeft": false,
        "impliedDirection": 180,
        "testDirection": 0,
        "avgFps": 60,
        "minFps": 58,
        "maxFps": 75,
        "totalFrames": 78,
        "frameRates": 60
      },
      {
        "trial_number": 53,
        "trial_index": 368,
        "rt": 1784,
        "correct": true,
        "response": "ArrowRight",
        "congruent": false,
        "gazeTowards": false,
        "gazeCondition": "away",
        "faceOnLeft": false,
        "impliedDirection": 180,
        "testDirection": 0,
        "avgFps": 60,
        "minFps": 58,
        "maxFps": 74,
        "totalFrames": 107,
        "frameRates": 60
      },
      {
        "trial_number": 54,
        "trial_index": 373,
        "rt": null,
        "correct": false,
        "response": null,
        "congruent": false,
        "gazeTowards": true,
        "gazeCondition": "towards",
        "faceOnLeft": false,
        "impliedDirection": 180,
        "testDirection": 0,
        "avgFps": 60,
        "minFps": 59,
        "maxFps": 72,
        "totalFrames": 121,
        "frameRates": 60
      },
      {
        "trial_number": 55,
        "trial_index": 378,
        "rt": 1602,
        "correct": false,
        "response": "ArrowLeft",
        "congruent": true,
        "gazeTowards": false,
        "gazeCondition": "away",
        "faceOnLeft": true,
        "impliedDirection": 0,
        "testDirection": 0,
        "avgFps": 60,
        "minFps": 59,
        "maxFps": 71,
        "totalFrames": 96,
        "frameRates": 60
      },
      {
        "trial_number": 56,
        "trial_index": 383,
        "rt": 1450,
        "correct": true,
        "response": "ArrowRight",
        "congruent": true,
        "gazeTowards": false,
        "gazeCondition": "away",
        "faceOnLeft": true,
        "impliedDirection": 0,
        "testDirection": 0,
        "avgFps": 60,
        "minFps": 59,
        "maxFps": 75,
        "totalFrames": 87,
        "frameRates": 60
      },
      {
        "trial_number": 57,
        "trial_index": 388,
        "rt": 1258,
        "correct": false,
        "response": "ArrowLeft",
        "congruent": false,
        "gazeTowards": true,
        "gazeCondition": "towards",
        "faceOnLeft": false,
        "impliedDirection": 180,
        "testDirection": 0,
        "avgFps": 60,
        "minFps": 58,
        "maxFps": 65,
        "totalFrames": 75,
        "frameRates": 60
      },
      {
        "trial_number": 58,
        "trial_index": 393,
        "rt": 1139,
        "correct": true,
        "response": "ArrowRight",
        "congruent": false,
        "gazeTowards": false,
        "gazeCondition": "away",
        "faceOnLeft": false,
        "impliedDirection": 180,
        "testDirection": 0,
        "avgFps": 60,
        "minFps": 59,
        "maxFps": 67,
        "totalFrames": 68,
        "frameRates": 60
      },
      {
        "trial_number": 59,
        "trial_index": 398,
        "rt": 1338,
        "correct": true,
        "response": "ArrowRight",
        "congruent": true,
        "gazeTowards": true,
        "gazeCondition": "towards",
        "faceOnLeft": true,
        "impliedDirection": 0,
        "testDirection": 0,
        "avgFps": 60,
        "minFps": 59,
        "maxFps": 65,
        "totalFrames": 80,
        "frameRates": 60
      },
      {
        "trial_number": 60,
        "trial_index": 403,
        "rt": 933,
        "correct": true,
        "response": "ArrowLeft",
        "congruent": true,
        "gazeTowards": true,
        "gazeCondition": "towards",
        "faceOnLeft": false,
        "impliedDirection": 180,
        "testDirection": 180,
        "avgFps": 60,
        "minFps": 59,
        "maxFps": 67,
        "totalFrames": 56,
        "frameRates": 60
      },
      {
        "trial_number": 61,
        "trial_index": 408,
        "rt": 1040,
        "correct": true,
        "response": "ArrowLeft",
        "congruent": false,
        "gazeTowards": false,
        "gazeCondition": "away",
        "faceOnLeft": true,
        "impliedDirection": 0,
        "testDirection": 180,
        "avgFps": 60,
        "minFps": 59,
        "maxFps": 72,
        "totalFrames": 62,
        "frameRates": 60
      },
      {
        "trial_number": 62,
        "trial_index": 414,
        "rt": 1060,
        "correct": false,
        "response": "ArrowRight",
        "congruent": false,
        "gazeTowards": false,
        "gazeCondition": "away",
        "faceOnLeft": true,
        "impliedDirection": 0,
        "testDirection": 180,
        "avgFps": 60,
        "minFps": 60,
        "maxFps": 70,
        "totalFrames": 63,
        "frameRates": 60
      },
      {
        "trial_number": 63,
        "trial_index": 419,
        "rt": 1155,
        "correct": true,
        "response": "ArrowLeft",
        "congruent": true,
        "gazeTowards": false,
        "gazeCondition": "away",
        "faceOnLeft": false,
        "impliedDirection": 180,
        "testDirection": 180,
        "avgFps": 60,
        "minFps": 58,
        "maxFps": 70,
        "totalFrames": 69,
        "frameRates": 60
      },
      {
        "trial_number": 64,
        "trial_index": 424,
        "rt": 1094,
        "correct": false,
        "response": "ArrowLeft",
        "congruent": false,
        "gazeTowards": true,
        "gazeCondition": "towards",
        "faceOnLeft": false,
        "impliedDirection": 180,
        "testDirection": 0,
        "avgFps": 60,
        "minFps": 58,
        "maxFps": 70,
        "totalFrames": 65,
        "frameRates": 60
      },
      {
        "trial_number": 65,
        "trial_index": 429,
        "rt": 1098,
        "correct": true,
        "response": "ArrowLeft",
        "congruent": true,
        "gazeTowards": false,
        "gazeCondition": "away",
        "faceOnLeft": false,
        "impliedDirection": 180,
        "testDirection": 180,
        "avgFps": 60,
        "minFps": 59,
        "maxFps": 71,
        "totalFrames": 65,
        "frameRates": 60
      },
      {
        "trial_number": 66,
        "trial_index": 434,
        "rt": 1058,
        "correct": true,
        "response": "ArrowRight",
        "congruent": false,
        "gazeTowards": true,
        "gazeCondition": "towards",
        "faceOnLeft": false,
        "impliedDirection": 180,
        "testDirection": 0,
        "avgFps": 60,
        "minFps": 58,
        "maxFps": 74,
        "totalFrames": 63,
        "frameRates": 60
      },
      {
        "trial_number": 67,
        "trial_index": 439,
        "rt": 1315,
        "correct": true,
        "response": "ArrowRight",
        "congruent": false,
        "gazeTowards": false,
        "gazeCondition": "away",
        "faceOnLeft": false,
        "impliedDirection": 180,
        "testDirection": 0,
        "avgFps": 60,
        "minFps": 60,
        "maxFps": 70,
        "totalFrames": 78,
        "frameRates": 60
      },
      {
        "trial_number": 68,
        "trial_index": 444,
        "rt": 1198,
        "correct": true,
        "response": "ArrowRight",
        "congruent": false,
        "gazeTowards": false,
        "gazeCondition": "away",
        "faceOnLeft": false,
        "impliedDirection": 180,
        "testDirection": 0,
        "avgFps": 60,
        "minFps": 58,
        "maxFps": 73,
        "totalFrames": 72,
        "frameRates": 60
      },
      {
        "trial_number": 69,
        "trial_index": 452,
        "rt": 1037,
        "correct": false,
        "response": "ArrowLeft",
        "congruent": true,
        "gazeTowards": false,
        "gazeCondition": "away",
        "faceOnLeft": true,
        "impliedDirection": 0,
        "testDirection": 0,
        "avgFps": 60,
        "minFps": 58,
        "maxFps": 75,
        "totalFrames": 62,
        "frameRates": 60
      },
      {
        "trial_number": 70,
        "trial_index": 457,
        "rt": 1166,
        "correct": true,
        "response": "ArrowLeft",
        "congruent": false,
        "gazeTowards": true,
        "gazeCondition": "towards",
        "faceOnLeft": true,
        "impliedDirection": 0,
        "testDirection": 180,
        "avgFps": 60,
        "minFps": 58,
        "maxFps": 72,
        "totalFrames": 70,
        "frameRates": 60
      },
      {
        "trial_number": 71,
        "trial_index": 462,
        "rt": 1399,
        "correct": true,
        "response": "ArrowRight",
        "congruent": true,
        "gazeTowards": true,
        "gazeCondition": "towards",
        "faceOnLeft": true,
        "impliedDirection": 0,
        "testDirection": 0,
        "avgFps": 60,
        "minFps": 59,
        "maxFps": 74,
        "totalFrames": 84,
        "frameRates": 60
      },
      {
        "trial_number": 72,
        "trial_index": 467,
        "rt": 1177,
        "correct": true,
        "response": "ArrowLeft",
        "congruent": false,
        "gazeTowards": true,
        "gazeCondition": "towards",
        "faceOnLeft": true,
        "impliedDirection": 0,
        "testDirection": 180,
        "avgFps": 60,
        "minFps": 58,
        "maxFps": 72,
        "totalFrames": 70,
        "frameRates": 60
      },
      {
        "trial_number": 73,
        "trial_index": 472,
        "rt": 1042,
        "correct": false,
        "response": "ArrowRight",
        "congruent": false,
        "gazeTowards": false,
        "gazeCondition": "away",
        "faceOnLeft": true,
        "impliedDirection": 0,
        "testDirection": 180,
        "avgFps": 60,
        "minFps": 59,
        "maxFps": 67,
        "totalFrames": 62,
        "frameRates": 60
      },
      {
        "trial_number": 74,
        "trial_index": 477,
        "rt": 1290,
        "correct": true,
        "response": "ArrowLeft",
        "congruent": false,
        "gazeTowards": true,
        "gazeCondition": "towards",
        "faceOnLeft": true,
        "impliedDirection": 0,
        "testDirection": 180,
        "avgFps": 58,
        "minFps": 15,
        "maxFps": 70,
        "totalFrames": 74,
        "frameRates": 58
      },
      {
        "trial_number": 75,
        "trial_index": 482,
        "rt": 1139,
        "correct": true,
        "response": "ArrowLeft",
        "congruent": true,
        "gazeTowards": true,
        "gazeCondition": "towards",
        "faceOnLeft": false,
        "impliedDirection": 180,
        "testDirection": 180,
        "avgFps": 60,
        "minFps": 58,
        "maxFps": 74,
        "totalFrames": 68,
        "frameRates": 60
      },
      {
        "trial_number": 76,
        "trial_index": 487,
        "rt": 1179,
        "correct": true,
        "response": "ArrowLeft",
        "congruent": false,
        "gazeTowards": true,
        "gazeCondition": "towards",
        "faceOnLeft": true,
        "impliedDirection": 0,
        "testDirection": 180,
        "avgFps": 60,
        "minFps": 59,
        "maxFps": 74,
        "totalFrames": 70,
        "frameRates": 60
      },
      {
        "trial_number": 77,
        "trial_index": 492,
        "rt": 1108,
        "correct": false,
        "response": "ArrowLeft",
        "congruent": true,
        "gazeTowards": true,
        "gazeCondition": "towards",
        "faceOnLeft": true,
        "impliedDirection": 0,
        "testDirection": 0,
        "avgFps": 60,
        "minFps": 59,
        "maxFps": 72,
        "totalFrames": 66,
        "frameRates": 60
      },
      {
        "trial_number": 78,
        "trial_index": 500,
        "rt": 1348,
        "correct": true,
        "response": "ArrowLeft",
        "congruent": true,
        "gazeTowards": true,
        "gazeCondition": "towards",
        "faceOnLeft": false,
        "impliedDirection": 180,
        "testDirection": 180,
        "avgFps": 60,
        "minFps": 58,
        "maxFps": 70,
        "totalFrames": 80,
        "frameRates": 60
      },
      {
        "trial_number": 79,
        "trial_index": 505,
        "rt": 933,
        "correct": false,
        "response": "ArrowLeft",
        "congruent": false,
        "gazeTowards": true,
        "gazeCondition": "towards",
        "faceOnLeft": false,
        "impliedDirection": 180,
        "testDirection": 0,
        "avgFps": 60,
        "minFps": 59,
        "maxFps": 72,
        "totalFrames": 56,
        "frameRates": 60
      },
      {
        "trial_number": 80,
        "trial_index": 513,
        "rt": 941,
        "correct": false,
        "response": "ArrowRight",
        "congruent": true,
        "gazeTowards": false,
        "gazeCondition": "away",
        "faceOnLeft": false,
        "impliedDirection": 180,
        "testDirection": 180,
        "avgFps": 60,
        "minFps": 60,
        "maxFps": 70,
        "totalFrames": 56,
        "frameRates": 60
      },
      {
        "trial_number": 81,
        "trial_index": 518,
        "rt": 1211,
        "correct": true,
        "response": "ArrowLeft",
        "congruent": false,
        "gazeTowards": false,
        "gazeCondition": "away",
        "faceOnLeft": true,
        "impliedDirection": 0,
        "testDirection": 180,
        "avgFps": 60,
        "minFps": 58,
        "maxFps": 72,
        "totalFrames": 73,
        "frameRates": 60
      },
      {
        "trial_number": 82,
        "trial_index": 526,
        "rt": 1128,
        "correct": true,
        "response": "ArrowRight",
        "congruent": false,
        "gazeTowards": false,
        "gazeCondition": "away",
        "faceOnLeft": false,
        "impliedDirection": 180,
        "testDirection": 0,
        "avgFps": 60,
        "minFps": 60,
        "maxFps": 66,
        "totalFrames": 67,
        "frameRates": 60
      },
      {
        "trial_number": 83,
        "trial_index": 531,
        "rt": 1088,
        "correct": true,
        "response": "ArrowRight",
        "congruent": false,
        "gazeTowards": false,
        "gazeCondition": "away",
        "faceOnLeft": false,
        "impliedDirection": 180,
        "testDirection": 0,
        "avgFps": 60,
        "minFps": 59,
        "maxFps": 74,
        "totalFrames": 65,
        "frameRates": 60
      },
      {
        "trial_number": 84,
        "trial_index": 536,
        "rt": 1024,
        "correct": true,
        "response": "ArrowLeft",
        "congruent": true,
        "gazeTowards": false,
        "gazeCondition": "away",
        "faceOnLeft": false,
        "impliedDirection": 180,
        "testDirection": 180,
        "avgFps": 60,
        "minFps": 59,
        "maxFps": 72,
        "totalFrames": 61,
        "frameRates": 60
      },
      {
        "trial_number": 85,
        "trial_index": 541,
        "rt": 983,
        "correct": false,
        "response": "ArrowRight",
        "congruent": true,
        "gazeTowards": true,
        "gazeCondition": "towards",
        "faceOnLeft": false,
        "impliedDirection": 180,
        "testDirection": 180,
        "avgFps": 60,
        "minFps": 59,
        "maxFps": 75,
        "totalFrames": 59,
        "frameRates": 60
      },
      {
        "trial_number": 86,
        "trial_index": 549,
        "rt": 917,
        "correct": true,
        "response": "ArrowRight",
        "congruent": true,
        "gazeTowards": true,
        "gazeCondition": "towards",
        "faceOnLeft": true,
        "impliedDirection": 0,
        "testDirection": 0,
        "avgFps": 60,
        "minFps": 60,
        "maxFps": 73,
        "totalFrames": 55,
        "frameRates": 60
      },
      {
        "trial_number": 87,
        "trial_index": 554,
        "rt": 1111,
        "correct": true,
        "response": "ArrowLeft",
        "congruent": true,
        "gazeTowards": false,
        "gazeCondition": "away",
        "faceOnLeft": false,
        "impliedDirection": 180,
        "testDirection": 180,
        "avgFps": 59,
        "minFps": 33,
        "maxFps": 62,
        "totalFrames": 66,
        "frameRates": 59
      },
      {
        "trial_number": 88,
        "trial_index": 559,
        "rt": 720,
        "correct": true,
        "response": "ArrowRight",
        "congruent": false,
        "gazeTowards": true,
        "gazeCondition": "towards",
        "faceOnLeft": false,
        "impliedDirection": 180,
        "testDirection": 0,
        "avgFps": 60,
        "minFps": 58,
        "maxFps": 64,
        "totalFrames": 43,
        "frameRates": 60
      },
      {
        "trial_number": 89,
        "trial_index": 568,
        "rt": 860,
        "correct": true,
        "response": "ArrowLeft",
        "congruent": true,
        "gazeTowards": false,
        "gazeCondition": "away",
        "faceOnLeft": false,
        "impliedDirection": 180,
        "testDirection": 180,
        "avgFps": 60,
        "minFps": 59,
        "maxFps": 73,
        "totalFrames": 51,
        "frameRates": 60
      },
      {
        "trial_number": 90,
        "trial_index": 573,
        "rt": 866,
        "correct": false,
        "response": "ArrowRight",
        "congruent": false,
        "gazeTowards": false,
        "gazeCondition": "away",
        "faceOnLeft": true,
        "impliedDirection": 0,
        "testDirection": 180,
        "avgFps": 60,
        "minFps": 58,
        "maxFps": 62,
        "totalFrames": 51,
        "frameRates": 60
      },
      {
        "trial_number": 91,
        "trial_index": 578,
        "rt": 902,
        "correct": true,
        "response": "ArrowRight",
        "congruent": true,
        "gazeTowards": false,
        "gazeCondition": "away",
        "faceOnLeft": true,
        "impliedDirection": 0,
        "testDirection": 0,
        "avgFps": 60,
        "minFps": 59,
        "maxFps": 72,
        "totalFrames": 54,
        "frameRates": 60
      },
      {
        "trial_number": 92,
        "trial_index": 583,
        "rt": 901,
        "correct": false,
        "response": "ArrowRight",
        "congruent": true,
        "gazeTowards": false,
        "gazeCondition": "away",
        "faceOnLeft": false,
        "impliedDirection": 180,
        "testDirection": 180,
        "avgFps": 60,
        "minFps": 59,
        "maxFps": 82,
        "totalFrames": 54,
        "frameRates": 60
      },
      {
        "trial_number": 93,
        "trial_index": 588,
        "rt": 1264,
        "correct": false,
        "response": "ArrowRight",
        "congruent": true,
        "gazeTowards": true,
        "gazeCondition": "towards",
        "faceOnLeft": false,
        "impliedDirection": 180,
        "testDirection": 180,
        "avgFps": 60,
        "minFps": 59,
        "maxFps": 72,
        "totalFrames": 76,
        "frameRates": 60
      },
      {
        "trial_number": 94,
        "trial_index": 593,
        "rt": 901,
        "correct": false,
        "response": "ArrowRight",
        "congruent": false,
        "gazeTowards": false,
        "gazeCondition": "away",
        "faceOnLeft": true,
        "impliedDirection": 0,
        "testDirection": 180,
        "avgFps": 60,
        "minFps": 58,
        "maxFps": 75,
        "totalFrames": 54,
        "frameRates": 60
      },
      {
        "trial_number": 95,
        "trial_index": 598,
        "rt": 1123,
        "correct": false,
        "response": "ArrowRight",
        "congruent": false,
        "gazeTowards": false,
        "gazeCondition": "away",
        "faceOnLeft": true,
        "impliedDirection": 0,
        "testDirection": 180,
        "avgFps": 60,
        "minFps": 59,
        "maxFps": 73,
        "totalFrames": 67,
        "frameRates": 60
      },
      {
        "trial_number": 96,
        "trial_index": 603,
        "rt": 997,
        "correct": true,
        "response": "ArrowLeft",
        "congruent": true,
        "gazeTowards": true,
        "gazeCondition": "towards",
        "faceOnLeft": false,
        "impliedDirection": 180,
        "testDirection": 180,
        "avgFps": 60,
        "minFps": 59,
        "maxFps": 72,
        "totalFrames": 59,
        "frameRates": 60
      },
      {
        "trial_number": 97,
        "trial_index": 608,
        "rt": 750,
        "correct": true,
        "response": "ArrowRight",
        "congruent": false,
        "gazeTowards": false,
        "gazeCondition": "away",
        "faceOnLeft": false,
        "impliedDirection": 180,
        "testDirection": 0,
        "avgFps": 60,
        "minFps": 58,
        "maxFps": 73,
        "totalFrames": 45,
        "frameRates": 60
      },
      {
        "trial_number": 98,
        "trial_index": 613,
        "rt": 843,
        "correct": true,
        "response": "ArrowRight",
        "congruent": false,
        "gazeTowards": true,
        "gazeCondition": "towards",
        "faceOnLeft": false,
        "impliedDirection": 180,
        "testDirection": 0,
        "avgFps": 60,
        "minFps": 58,
        "maxFps": 74,
        "totalFrames": 50,
        "frameRates": 60
      },
      {
        "trial_number": 99,
        "trial_index": 618,
        "rt": 980,
        "correct": false,
        "response": "ArrowRight",
        "congruent": true,
        "gazeTowards": false,
        "gazeCondition": "away",
        "faceOnLeft": false,
        "impliedDirection": 180,
        "testDirection": 180,
        "avgFps": 60,
        "minFps": 58,
        "maxFps": 64,
        "totalFrames": 59,
        "frameRates": 60
      },
      {
        "trial_number": 100,
        "trial_index": 623,
        "rt": 1364,
        "correct": false,
        "response": "ArrowRight",
        "congruent": false,
        "gazeTowards": true,
        "gazeCondition": "towards",
        "faceOnLeft": true,
        "impliedDirection": 0,
        "testDirection": 180,
        "avgFps": 60,
        "minFps": 60,
        "maxFps": 71,
        "totalFrames": 81,
        "frameRates": 60
      },
      {
        "trial_number": 101,
        "trial_index": 628,
        "rt": 1056,
        "correct": true,
        "response": "ArrowRight",
        "congruent": true,
        "gazeTowards": false,
        "gazeCondition": "away",
        "faceOnLeft": true,
        "impliedDirection": 0,
        "testDirection": 0,
        "avgFps": 60,
        "minFps": 59,
        "maxFps": 74,
        "totalFrames": 63,
        "frameRates": 60
      },
      {
        "trial_number": 102,
        "trial_index": 633,
        "rt": 1263,
        "correct": false,
        "response": "ArrowLeft",
        "congruent": false,
        "gazeTowards": false,
        "gazeCondition": "away",
        "faceOnLeft": false,
        "impliedDirection": 180,
        "testDirection": 0,
        "avgFps": 60,
        "minFps": 58,
        "maxFps": 72,
        "totalFrames": 76,
        "frameRates": 60
      },
      {
        "trial_number": 103,
        "trial_index": 638,
        "rt": 1026,
        "correct": true,
        "response": "ArrowRight",
        "congruent": true,
        "gazeTowards": true,
        "gazeCondition": "towards",
        "faceOnLeft": true,
        "impliedDirection": 0,
        "testDirection": 0,
        "avgFps": 60,
        "minFps": 60,
        "maxFps": 64,
        "totalFrames": 61,
        "frameRates": 60
      },
      {
        "trial_number": 104,
        "trial_index": 643,
        "rt": 753,
        "correct": false,
        "response": "ArrowRight",
        "congruent": true,
        "gazeTowards": true,
        "gazeCondition": "towards",
        "faceOnLeft": false,
        "impliedDirection": 180,
        "testDirection": 180,
        "avgFps": 60,
        "minFps": 58,
        "maxFps": 67,
        "totalFrames": 45,
        "frameRates": 60
      },
      {
        "trial_number": 105,
        "trial_index": 651,
        "rt": 860,
        "correct": false,
        "response": "ArrowRight",
        "congruent": false,
        "gazeTowards": true,
        "gazeCondition": "towards",
        "faceOnLeft": true,
        "impliedDirection": 0,
        "testDirection": 180,
        "avgFps": 60,
        "minFps": 58,
        "maxFps": 67,
        "totalFrames": 51,
        "frameRates": 60
      },
      {
        "trial_number": 106,
        "trial_index": 656,
        "rt": 1109,
        "correct": false,
        "response": "ArrowRight",
        "congruent": false,
        "gazeTowards": true,
        "gazeCondition": "towards",
        "faceOnLeft": true,
        "impliedDirection": 0,
        "testDirection": 180,
        "avgFps": 60,
        "minFps": 58,
        "maxFps": 72,
        "totalFrames": 66,
        "frameRates": 60
      },
      {
        "trial_number": 107,
        "trial_index": 661,
        "rt": 748,
        "correct": false,
        "response": "ArrowRight",
        "congruent": true,
        "gazeTowards": true,
        "gazeCondition": "towards",
        "faceOnLeft": false,
        "impliedDirection": 180,
        "testDirection": 180,
        "avgFps": 60,
        "minFps": 58,
        "maxFps": 66,
        "totalFrames": 44,
        "frameRates": 60
      },
      {
        "trial_number": 108,
        "trial_index": 666,
        "rt": 976,
        "correct": true,
        "response": "ArrowLeft",
        "congruent": true,
        "gazeTowards": false,
        "gazeCondition": "away",
        "faceOnLeft": false,
        "impliedDirection": 180,
        "testDirection": 180,
        "avgFps": 60,
        "minFps": 58,
        "maxFps": 75,
        "totalFrames": 58,
        "frameRates": 60
      },
      {
        "trial_number": 109,
        "trial_index": 671,
        "rt": 1078,
        "correct": false,
        "response": "ArrowLeft",
        "congruent": false,
        "gazeTowards": true,
        "gazeCondition": "towards",
        "faceOnLeft": false,
        "impliedDirection": 180,
        "testDirection": 0,
        "avgFps": 60,
        "minFps": 60,
        "maxFps": 71,
        "totalFrames": 64,
        "frameRates": 60
      },
      {
        "trial_number": 110,
        "trial_index": 676,
        "rt": 1086,
        "correct": false,
        "response": "ArrowLeft",
        "congruent": false,
        "gazeTowards": false,
        "gazeCondition": "away",
        "faceOnLeft": false,
        "impliedDirection": 180,
        "testDirection": 0,
        "avgFps": 60,
        "minFps": 60,
        "maxFps": 70,
        "totalFrames": 65,
        "frameRates": 60
      },
      {
        "trial_number": 111,
        "trial_index": 681,
        "rt": 841,
        "correct": true,
        "response": "ArrowLeft",
        "congruent": false,
        "gazeTowards": true,
        "gazeCondition": "towards",
        "faceOnLeft": true,
        "impliedDirection": 0,
        "testDirection": 180,
        "avgFps": 60,
        "minFps": 59,
        "maxFps": 74,
        "totalFrames": 50,
        "frameRates": 60
      },
      {
        "trial_number": 112,
        "trial_index": 686,
        "rt": 1204,
        "correct": false,
        "response": "ArrowRight",
        "congruent": true,
        "gazeTowards": false,
        "gazeCondition": "away",
        "faceOnLeft": false,
        "impliedDirection": 180,
        "testDirection": 180,
        "avgFps": 60,
        "minFps": 59,
        "maxFps": 72,
        "totalFrames": 72,
        "frameRates": 60
      },
      {
        "trial_number": 113,
        "trial_index": 691,
        "rt": 938,
        "correct": false,
        "response": "ArrowRight",
        "congruent": false,
        "gazeTowards": true,
        "gazeCondition": "towards",
        "faceOnLeft": true,
        "impliedDirection": 0,
        "testDirection": 180,
        "avgFps": 59,
        "minFps": 33,
        "maxFps": 62,
        "totalFrames": 56,
        "frameRates": 59
      },
      {
        "trial_number": 114,
        "trial_index": 696,
        "rt": 941,
        "correct": true,
        "response": "ArrowRight",
        "congruent": true,
        "gazeTowards": true,
        "gazeCondition": "towards",
        "faceOnLeft": true,
        "impliedDirection": 0,
        "testDirection": 0,
        "avgFps": 60,
        "minFps": 58,
        "maxFps": 70,
        "totalFrames": 56,
        "frameRates": 60
      },
      {
        "trial_number": 115,
        "trial_index": 701,
        "rt": 833,
        "correct": false,
        "response": "ArrowRight",
        "congruent": false,
        "gazeTowards": false,
        "gazeCondition": "away",
        "faceOnLeft": true,
        "impliedDirection": 0,
        "testDirection": 180,
        "avgFps": 60,
        "minFps": 59,
        "maxFps": 72,
        "totalFrames": 50,
        "frameRates": 60
      },
      {
        "trial_number": 116,
        "trial_index": 706,
        "rt": 1252,
        "correct": true,
        "response": "ArrowLeft",
        "congruent": false,
        "gazeTowards": true,
        "gazeCondition": "towards",
        "faceOnLeft": true,
        "impliedDirection": 0,
        "testDirection": 180,
        "avgFps": 60,
        "minFps": 59,
        "maxFps": 67,
        "totalFrames": 75,
        "frameRates": 60
      },
      {
        "trial_number": 117,
        "trial_index": 711,
        "rt": 807,
        "correct": true,
        "response": "ArrowRight",
        "congruent": false,
        "gazeTowards": true,
        "gazeCondition": "towards",
        "faceOnLeft": false,
        "impliedDirection": 180,
        "testDirection": 0,
        "avgFps": 60,
        "minFps": 58,
        "maxFps": 66,
        "totalFrames": 48,
        "frameRates": 60
      },
      {
        "trial_number": 118,
        "trial_index": 716,
        "rt": 1160,
        "correct": false,
        "response": "ArrowRight",
        "congruent": true,
        "gazeTowards": false,
        "gazeCondition": "away",
        "faceOnLeft": false,
        "impliedDirection": 180,
        "testDirection": 180,
        "avgFps": 60,
        "minFps": 60,
        "maxFps": 61,
        "totalFrames": 69,
        "frameRates": 60
      },
      {
        "trial_number": 119,
        "trial_index": 724,
        "rt": 1152,
        "correct": true,
        "response": "ArrowRight",
        "congruent": false,
        "gazeTowards": false,
        "gazeCondition": "away",
        "faceOnLeft": false,
        "impliedDirection": 180,
        "testDirection": 0,
        "avgFps": 60,
        "minFps": 59,
        "maxFps": 73,
        "totalFrames": 69,
        "frameRates": 60
      }
    ],
    "catch": {
      "total": 12,
      "correct": 12,
      "accuracy": 100,
      "meanRT": 912,
      "trials": [
        {
          "trial_number": 0,
          "trial_index": 124,
          "rt": 1369,
          "correct": true,
          "colorTarget": "face",
          "gazeTowards": true,
          "gazeCondition": "towards",
          "faceOnLeft": true
        },
        {
          "trial_number": 1,
          "trial_index": 222,
          "rt": 875,
          "correct": true,
          "colorTarget": "face",
          "gazeTowards": true,
          "gazeCondition": "towards",
          "faceOnLeft": false
        },
        {
          "trial_number": 2,
          "trial_index": 326,
          "rt": 1342,
          "correct": true,
          "colorTarget": "face",
          "gazeTowards": false,
          "gazeCondition": "away",
          "faceOnLeft": false
        },
        {
          "trial_number": 3,
          "trial_index": 329,
          "rt": 995,
          "correct": true,
          "colorTarget": "tree",
          "gazeTowards": false,
          "gazeCondition": "away",
          "faceOnLeft": false
        },
        {
          "trial_number": 4,
          "trial_index": 448,
          "rt": 865,
          "correct": true,
          "colorTarget": "tree",
          "gazeTowards": true,
          "gazeCondition": "towards",
          "faceOnLeft": true
        },
        {
          "trial_number": 5,
          "trial_index": 496,
          "rt": 859,
          "correct": true,
          "colorTarget": "tree",
          "gazeTowards": true,
          "gazeCondition": "towards",
          "faceOnLeft": true
        },
        {
          "trial_number": 6,
          "trial_index": 509,
          "rt": 833,
          "correct": true,
          "colorTarget": "face",
          "gazeTowards": false,
          "gazeCondition": "away",
          "faceOnLeft": true
        },
        {
          "trial_number": 7,
          "trial_index": 522,
          "rt": 793,
          "correct": true,
          "colorTarget": "tree",
          "gazeTowards": true,
          "gazeCondition": "towards",
          "faceOnLeft": false
        },
        {
          "trial_number": 8,
          "trial_index": 545,
          "rt": 710,
          "correct": true,
          "colorTarget": "tree",
          "gazeTowards": false,
          "gazeCondition": "away",
          "faceOnLeft": false
        },
        {
          "trial_number": 9,
          "trial_index": 563,
          "rt": 681,
          "correct": true,
          "colorTarget": "face",
          "gazeTowards": false,
          "gazeCondition": "away",
          "faceOnLeft": false
        },
        {
          "trial_number": 10,
          "trial_index": 647,
          "rt": 738,
          "correct": true,
          "colorTarget": "face",
          "gazeTowards": false,
          "gazeCondition": "away",
          "faceOnLeft": true
        },
        {
          "trial_number": 11,
          "trial_index": 720,
          "rt": 887,
          "correct": true,
          "colorTarget": "tree",
          "gazeTowards": true,
          "gazeCondition": "towards",
          "faceOnLeft": false
        }
      ]
    },
    "practice": {
      "trials": [
        {
          "trial_number": 0,
          "rt": 1230,
          "correct": false,
          "direction": 180
        },
        {
          "trial_number": 1,
          "rt": 1058,
          "correct": false,
          "direction": 0
        },
        {
          "trial_number": 2,
          "rt": 1370,
          "correct": false,
          "direction": 0
        },
        {
          "trial_number": 3,
          "rt": 1193,
          "correct": true,
          "direction": 0
        },
        {
          "trial_number": 4,
          "rt": 1140,
          "correct": false,
          "direction": 0
        },
        {
          "trial_number": 5,
          "rt": 1064,
          "correct": true,
          "direction": 180
        },
        {
          "trial_number": 6,
          "rt": 1048,
          "correct": true,
          "direction": 180
        },
        {
          "trial_number": 7,
          "rt": 1456,
          "correct": true,
          "direction": 0
        },
        {
          "trial_number": 8,
          "rt": 1415,
          "correct": false,
          "direction": 0
        },
        {
          "trial_number": 9,
          "rt": 1375,
          "correct": true,
          "direction": 0
        },
        {
          "trial_number": 10,
          "rt": null,
          "correct": false,
          "direction": 180
        },
        {
          "trial_number": 11,
          "rt": 884,
          "correct": true,
          "direction": 0
        },
        {
          "trial_number": 12,
          "rt": 1082,
          "correct": true,
          "direction": 0
        },
        {
          "trial_number": 13,
          "rt": 1019,
          "correct": true,
          "direction": 0
        },
        {
          "trial_number": 14,
          "rt": 1186,
          "correct": true,
          "direction": 0
        },
        {
          "trial_number": 15,
          "rt": 1049,
          "correct": true,
          "direction": 180
        },
        {
          "trial_number": 16,
          "rt": 1186,
          "correct": true,
          "direction": 180
        },
        {
          "trial_number": 17,
          "rt": 848,
          "correct": true,
          "direction": 0
        },
        {
          "trial_number": 18,
          "rt": 925,
          "correct": true,
          "direction": 0
        },
        {
          "trial_number": 19,
          "rt": 1453,
          "correct": false,
          "direction": 0
        }
      ],
      "meanRT": 1157,
      "accuracy": 65
    }
  }
}