{
  "experiment": "rdk-face-1",
  "UUID": "c3747547-5b6c-46cc-99f4-e50dff17f55b",
  "data": {
    "session": {
      "experiment_version": "1.8.6",
      "treatment": "faces_towards_away_catch",
      "file_version": "1.8.6",
      "totalTrials": 120,
      "totalTrialsIncludingCatch": 132,
      "conditions": {
        "gazeTowardsCount": 60,
        "gazeAwayCount": 60,
        "gazeTowardsAccuracy": 77,
        "gazeAwayAccuracy": 70
      },
      "session_group": "default",
      "browserData": {
        "os": "Mac",
        "browser": "Chrome",
        "screenResolution": "1512x982",
        "browserViewport": "1512x945",
        "devicePixelRatio": 2,
        "colorDepth": 30,
        "hardwareConcurrency": 10,
        "deviceMemory": 8,
        "gpuRenderer": "ANGLE (Apple, ANGLE Metal Renderer: Apple M1 Pro, Unspecified Version)",
        "measuredRefreshRateHz": 116
      },
      "attention": {
        "visibilityEvents": [
          {
            "event": "blur",
            "state": "blurred",
            "timestamp": 1772765640667
          },
          {
            "event": "visibilitychange",
            "state": "hidden",
            "timestamp": 1772765640668
          },
          {
            "event": "visibilitychange",
            "state": "visible",
            "timestamp": 1772765643511
          },
          {
            "event": "focus",
            "state": "focused",
            "timestamp": 1772765643520
          },
          {
            "event": "blur",
            "state": "blurred",
            "timestamp": 1772765686514
          },
          {
            "event": "focus",
            "state": "focused",
            "timestamp": 1772765727745
          },
          {
            "event": "blur",
            "state": "blurred",
            "timestamp": 1772766146258
          },
          {
            "event": "visibilitychange",
            "state": "hidden",
            "timestamp": 1772766147284
          },
          {
            "event": "focus",
            "state": "focused",
            "timestamp": 1772766176134
          },
          {
            "event": "visibilitychange",
            "state": "visible",
            "timestamp": 1772766176141
          }
        ]
      },
      "calibration": {
        "monitorWidthCm": 38,
        "viewingDistanceCm": 54,
        "pixelsPerDegree": 50
      },
      "parameters": {
        "coherence": 0.4,
        "apertureDeg": 5,
        "densityDotsPerDeg2": 40,
        "dotDiameterDeg": 0.035,
        "dotSpeedDegPerSec": 3,
        "lifetimeMs": 200,
        "fixationDurationMs": 1500,
        "faceDurationMs": 1500,
        "testDurationMs": 2000,
        "catchResponseMs": 3000
      },
      "prolific": {
        "prolificPid": "6352fb64b16cb5ae7fa86ae7",
        "studyId": "",
        "sessionId": ""
      },
      "timing": {
        "startTime": "2026-03-06T02:53:57.932Z",
        "endTime": "2026-03-06T03:12:13.573Z",
        "totalElapsedTimeMs": 1095641
      }
    },
    "trials": [
      {
        "trial_number": 0,
        "trial_index": 49,
        "rt": 1551,
        "correct": false,
        "response": "ArrowRight",
        "congruent": true,
        "gazeTowards": false,
        "gazeCondition": "away",
        "faceOnLeft": false,
        "impliedDirection": 180,
        "testDirection": 180,
        "avgFps": 119,
        "minFps": 59,
        "maxFps": 137,
        "totalFrames": 185,
        "frameRates": 119
      },
      {
        "trial_number": 1,
        "trial_index": 57,
        "rt": 1635,
        "correct": true,
        "response": "ArrowLeft",
        "congruent": false,
        "gazeTowards": true,
        "gazeCondition": "towards",
        "faceOnLeft": true,
        "impliedDirection": 0,
        "testDirection": 180,
        "avgFps": 120,
        "minFps": 110,
        "maxFps": 132,
        "totalFrames": 196,
        "frameRates": 120
      },
      {
        "trial_number": 2,
        "trial_index": 62,
        "rt": 1405,
        "correct": false,
        "response": "ArrowRight",
        "congruent": false,
        "gazeTowards": true,
        "gazeCondition": "towards",
        "faceOnLeft": true,
        "impliedDirection": 0,
        "testDirection": 180,
        "avgFps": 120,
        "minFps": 108,
        "maxFps": 137,
        "totalFrames": 168,
        "frameRates": 120
      },
      {
        "trial_number": 3,
        "trial_index": 67,
        "rt": 1973,
        "correct": false,
        "response": "ArrowRight",
        "congruent": false,
        "gazeTowards": true,
        "gazeCondition": "towards",
        "faceOnLeft": true,
        "impliedDirection": 0,
        "testDirection": 180,
        "avgFps": 119,
        "minFps": 60,
        "maxFps": 132,
        "totalFrames": 236,
        "frameRates": 119
      },
      {
        "trial_number": 4,
        "trial_index": 75,
        "rt": 1110,
        "correct": true,
        "response": "ArrowRight",
        "congruent": false,
        "gazeTowards": true,
        "gazeCondition": "towards",
        "faceOnLeft": false,
        "impliedDirection": 180,
        "testDirection": 0,
        "avgFps": 119,
        "minFps": 59,
        "maxFps": 135,
        "totalFrames": 132,
        "frameRates": 119
      },
      {
        "trial_number": 5,
        "trial_index": 80,
        "rt": 1764,
        "correct": false,
        "response": "ArrowRight",
        "congruent": false,
        "gazeTowards": false,
        "gazeCondition": "away",
        "faceOnLeft": true,
        "impliedDirection": 0,
        "testDirection": 180,
        "avgFps": 119,
        "minFps": 60,
        "maxFps": 139,
        "totalFrames": 211,
        "frameRates": 119
      },
      {
        "trial_number": 6,
        "trial_index": 85,
        "rt": null,
        "correct": false,
        "response": null,
        "congruent": true,
        "gazeTowards": false,
        "gazeCondition": "away",
        "faceOnLeft": true,
        "impliedDirection": 0,
        "testDirection": 0,
        "avgFps": 120,
        "minFps": 109,
        "maxFps": 132,
        "totalFrames": 240,
        "frameRates": 120
      },
      {
        "trial_number": 7,
        "trial_index": 90,
        "rt": 1414,
        "correct": true,
        "response": "ArrowRight",
        "congruent": false,
        "gazeTowards": true,
        "gazeCondition": "towards",
        "faceOnLeft": false,
        "impliedDirection": 180,
        "testDirection": 0,
        "avgFps": 120,
        "minFps": 106,
        "maxFps": 135,
        "totalFrames": 168,
        "frameRates": 120
      },
      {
        "trial_number": 8,
        "trial_index": 95,
        "rt": 1029,
        "correct": true,
        "response": "ArrowRight",
        "congruent": true,
        "gazeTowards": false,
        "gazeCondition": "away",
        "faceOnLeft": true,
        "impliedDirection": 0,
        "testDirection": 0,
        "avgFps": 119,
        "minFps": 60,
        "maxFps": 132,
        "totalFrames": 123,
        "frameRates": 119
      },
      {
        "trial_number": 9,
        "trial_index": 100,
        "rt": 1343,
        "correct": true,
        "response": "ArrowRight",
        "congruent": true,
        "gazeTowards": false,
        "gazeCondition": "away",
        "faceOnLeft": true,
        "impliedDirection": 0,
        "testDirection": 0,
        "avgFps": 119,
        "minFps": 62,
        "maxFps": 135,
        "totalFrames": 160,
        "frameRates": 119
      },
      {
        "trial_number": 10,
        "trial_index": 105,
        "rt": 1542,
        "correct": true,
        "response": "ArrowRight",
        "congruent": false,
        "gazeTowards": false,
        "gazeCondition": "away",
        "faceOnLeft": false,
        "impliedDirection": 180,
        "testDirection": 0,
        "avgFps": 120,
        "minFps": 108,
        "maxFps": 133,
        "totalFrames": 185,
        "frameRates": 120
      },
      {
        "trial_number": 11,
        "trial_index": 110,
        "rt": 1778,
        "correct": false,
        "response": "ArrowRight",
        "congruent": false,
        "gazeTowards": false,
        "gazeCondition": "away",
        "faceOnLeft": true,
        "impliedDirection": 0,
        "testDirection": 180,
        "avgFps": 119,
        "minFps": 60,
        "maxFps": 135,
        "totalFrames": 213,
        "frameRates": 119
      },
      {
        "trial_number": 12,
        "trial_index": 115,
        "rt": 1814,
        "correct": true,
        "response": "ArrowRight",
        "congruent": true,
        "gazeTowards": true,
        "gazeCondition": "towards",
        "faceOnLeft": true,
        "impliedDirection": 0,
        "testDirection": 0,
        "avgFps": 119,
        "minFps": 60,
        "maxFps": 137,
        "totalFrames": 217,
        "frameRates": 119
      },
      {
        "trial_number": 13,
        "trial_index": 120,
        "rt": 1950,
        "correct": false,
        "response": "ArrowLeft",
        "congruent": false,
        "gazeTowards": false,
        "gazeCondition": "away",
        "faceOnLeft": false,
        "impliedDirection": 180,
        "testDirection": 0,
        "avgFps": 119,
        "minFps": 60,
        "maxFps": 137,
        "totalFrames": 233,
        "frameRates": 119
      },
      {
        "trial_number": 14,
        "trial_index": 125,
        "rt": 1331,
        "correct": true,
        "response": "ArrowLeft",
        "congruent": false,
        "gazeTowards": false,
        "gazeCondition": "away",
        "faceOnLeft": true,
        "impliedDirection": 0,
        "testDirection": 180,
        "avgFps": 119,
        "minFps": 60,
        "maxFps": 137,
        "totalFrames": 159,
        "frameRates": 119
      },
      {
        "trial_number": 15,
        "trial_index": 130,
        "rt": 1921,
        "correct": false,
        "response": "ArrowRight",
        "congruent": true,
        "gazeTowards": false,
        "gazeCondition": "away",
        "faceOnLeft": false,
        "impliedDirection": 180,
        "testDirection": 180,
        "avgFps": 119,
        "minFps": 60,
        "maxFps": 137,
        "totalFrames": 230,
        "frameRates": 119
      },
      {
        "trial_number": 16,
        "trial_index": 135,
        "rt": 1189,
        "correct": false,
        "response": "ArrowRight",
        "congruent": false,
        "gazeTowards": false,
        "gazeCondition": "away",
        "faceOnLeft": true,
        "impliedDirection": 0,
        "testDirection": 180,
        "avgFps": 119,
        "minFps": 60,
        "maxFps": 133,
        "totalFrames": 142,
        "frameRates": 119
      },
      {
        "trial_number": 17,
        "trial_index": 140,
        "rt": 1332,
        "correct": false,
        "response": "ArrowRight",
        "congruent": true,
        "gazeTowards": true,
        "gazeCondition": "towards",
        "faceOnLeft": false,
        "impliedDirection": 180,
        "testDirection": 180,
        "avgFps": 119,
        "minFps": 60,
        "maxFps": 137,
        "totalFrames": 159,
        "frameRates": 119
      },
      {
        "trial_number": 18,
        "trial_index": 145,
        "rt": 1646,
        "correct": false,
        "response": "ArrowRight",
        "congruent": false,
        "gazeTowards": false,
        "gazeCondition": "away",
        "faceOnLeft": true,
        "impliedDirection": 0,
        "testDirection": 180,
        "avgFps": 120,
        "minFps": 108,
        "maxFps": 135,
        "totalFrames": 197,
        "frameRates": 120
      },
      {
        "trial_number": 19,
        "trial_index": 150,
        "rt": 1358,
        "correct": true,
        "response": "ArrowLeft",
        "congruent": false,
        "gazeTowards": false,
        "gazeCondition": "away",
        "faceOnLeft": true,
        "impliedDirection": 0,
        "testDirection": 180,
        "avgFps": 119,
        "minFps": 60,
        "maxFps": 137,
        "totalFrames": 162,
        "frameRates": 119
      },
      {
        "trial_number": 20,
        "trial_index": 155,
        "rt": 1153,
        "correct": false,
        "response": "ArrowRight",
        "congruent": false,
        "gazeTowards": false,
        "gazeCondition": "away",
        "faceOnLeft": true,
        "impliedDirection": 0,
        "testDirection": 180,
        "avgFps": 119,
        "minFps": 60,
        "maxFps": 137,
        "totalFrames": 137,
        "frameRates": 119
      },
      {
        "trial_number": 21,
        "trial_index": 160,
        "rt": 997,
        "correct": true,
        "response": "ArrowRight",
        "congruent": true,
        "gazeTowards": false,
        "gazeCondition": "away",
        "faceOnLeft": true,
        "impliedDirection": 0,
        "testDirection": 0,
        "avgFps": 119,
        "minFps": 62,
        "maxFps": 132,
        "totalFrames": 119,
        "frameRates": 119
      },
      {
        "trial_number": 22,
        "trial_index": 168,
        "rt": 1006,
        "correct": true,
        "response": "ArrowRight",
        "congruent": true,
        "gazeTowards": true,
        "gazeCondition": "towards",
        "faceOnLeft": true,
        "impliedDirection": 0,
        "testDirection": 0,
        "avgFps": 119,
        "minFps": 60,
        "maxFps": 135,
        "totalFrames": 120,
        "frameRates": 119
      },
      {
        "trial_number": 23,
        "trial_index": 173,
        "rt": 1599,
        "correct": true,
        "response": "ArrowLeft",
        "congruent": true,
        "gazeTowards": false,
        "gazeCondition": "away",
        "faceOnLeft": false,
        "impliedDirection": 180,
        "testDirection": 180,
        "avgFps": 119,
        "minFps": 60,
        "maxFps": 137,
        "totalFrames": 191,
        "frameRates": 119
      },
      {
        "trial_number": 24,
        "trial_index": 181,
        "rt": 1095,
        "correct": false,
        "response": "ArrowRight",
        "congruent": false,
        "gazeTowards": true,
        "gazeCondition": "towards",
        "faceOnLeft": true,
        "impliedDirection": 0,
        "testDirection": 180,
        "avgFps": 119,
        "minFps": 60,
        "maxFps": 137,
        "totalFrames": 130,
        "frameRates": 119
      },
      {
        "trial_number": 25,
        "trial_index": 186,
        "rt": 1041,
        "correct": true,
        "response": "ArrowRight",
        "congruent": true,
        "gazeTowards": true,
        "gazeCondition": "towards",
        "faceOnLeft": true,
        "impliedDirection": 0,
        "testDirection": 0,
        "avgFps": 119,
        "minFps": 60,
        "maxFps": 133,
        "totalFrames": 124,
        "frameRates": 119
      },
      {
        "trial_number": 26,
        "trial_index": 191,
        "rt": null,
        "correct": false,
        "response": null,
        "congruent": true,
        "gazeTowards": true,
        "gazeCondition": "towards",
        "faceOnLeft": false,
        "impliedDirection": 180,
        "testDirection": 180,
        "avgFps": 120,
        "minFps": 108,
        "maxFps": 135,
        "totalFrames": 240,
        "frameRates": 120
      },
      {
        "trial_number": 27,
        "trial_index": 196,
        "rt": 996,
        "correct": true,
        "response": "ArrowRight",
        "congruent": true,
        "gazeTowards": false,
        "gazeCondition": "away",
        "faceOnLeft": true,
        "impliedDirection": 0,
        "testDirection": 0,
        "avgFps": 119,
        "minFps": 59,
        "maxFps": 135,
        "totalFrames": 119,
        "frameRates": 119
      },
      {
        "trial_number": 28,
        "trial_index": 201,
        "rt": 1155,
        "correct": false,
        "response": "ArrowRight",
        "congruent": false,
        "gazeTowards": true,
        "gazeCondition": "towards",
        "faceOnLeft": true,
        "impliedDirection": 0,
        "testDirection": 180,
        "avgFps": 120,
        "minFps": 108,
        "maxFps": 133,
        "totalFrames": 138,
        "frameRates": 120
      },
      {
        "trial_number": 29,
        "trial_index": 207,
        "rt": 1776,
        "correct": true,
        "response": "ArrowLeft",
        "congruent": true,
        "gazeTowards": false,
        "gazeCondition": "away",
        "faceOnLeft": false,
        "impliedDirection": 180,
        "testDirection": 180,
        "avgFps": 119,
        "minFps": 59,
        "maxFps": 135,
        "totalFrames": 212,
        "frameRates": 119
      },
      {
        "trial_number": 30,
        "trial_index": 212,
        "rt": 1161,
        "correct": false,
        "response": "ArrowRight",
        "congruent": true,
        "gazeTowards": false,
        "gazeCondition": "away",
        "faceOnLeft": false,
        "impliedDirection": 180,
        "testDirection": 180,
        "avgFps": 119,
        "minFps": 59,
        "maxFps": 130,
        "totalFrames": 138,
        "frameRates": 119
      },
      {
        "trial_number": 31,
        "trial_index": 220,
        "rt": 898,
        "correct": true,
        "response": "ArrowLeft",
        "congruent": false,
        "gazeTowards": true,
        "gazeCondition": "towards",
        "faceOnLeft": true,
        "impliedDirection": 0,
        "testDirection": 180,
        "avgFps": 120,
        "minFps": 108,
        "maxFps": 137,
        "totalFrames": 108,
        "frameRates": 120
      },
      {
        "trial_number": 32,
        "trial_index": 225,
        "rt": 928,
        "correct": false,
        "response": "ArrowRight",
        "congruent": false,
        "gazeTowards": true,
        "gazeCondition": "towards",
        "faceOnLeft": true,
        "impliedDirection": 0,
        "testDirection": 180,
        "avgFps": 119,
        "minFps": 60,
        "maxFps": 135,
        "totalFrames": 111,
        "frameRates": 119
      },
      {
        "trial_number": 33,
        "trial_index": 230,
        "rt": 1089,
        "correct": true,
        "response": "ArrowRight",
        "congruent": false,
        "gazeTowards": false,
        "gazeCondition": "away",
        "faceOnLeft": false,
        "impliedDirection": 180,
        "testDirection": 0,
        "avgFps": 120,
        "minFps": 108,
        "maxFps": 133,
        "totalFrames": 130,
        "frameRates": 120
      },
      {
        "trial_number": 34,
        "trial_index": 235,
        "rt": 1446,
        "correct": true,
        "response": "ArrowLeft",
        "congruent": true,
        "gazeTowards": false,
        "gazeCondition": "away",
        "faceOnLeft": false,
        "impliedDirection": 180,
        "testDirection": 180,
        "avgFps": 120,
        "minFps": 106,
        "maxFps": 137,
        "totalFrames": 173,
        "frameRates": 120
      },
      {
        "trial_number": 35,
        "trial_index": 240,
        "rt": 974,
        "correct": true,
        "response": "ArrowRight",
        "congruent": false,
        "gazeTowards": false,
        "gazeCondition": "away",
        "faceOnLeft": false,
        "impliedDirection": 180,
        "testDirection": 0,
        "avgFps": 119,
        "minFps": 60,
        "maxFps": 137,
        "totalFrames": 116,
        "frameRates": 119
      },
      {
        "trial_number": 36,
        "trial_index": 245,
        "rt": 833,
        "correct": true,
        "response": "ArrowRight",
        "congruent": false,
        "gazeTowards": false,
        "gazeCondition": "away",
        "faceOnLeft": false,
        "impliedDirection": 180,
        "testDirection": 0,
        "avgFps": 119,
        "minFps": 62,
        "maxFps": 135,
        "totalFrames": 99,
        "frameRates": 119
      },
      {
        "trial_number": 37,
        "trial_index": 250,
        "rt": 1199,
        "correct": true,
        "response": "ArrowLeft",
        "congruent": false,
        "gazeTowards": false,
        "gazeCondition": "away",
        "faceOnLeft": true,
        "impliedDirection": 0,
        "testDirection": 180,
        "avgFps": 119,
        "minFps": 63,
        "maxFps": 137,
        "totalFrames": 143,
        "frameRates": 119
      },
      {
        "trial_number": 38,
        "trial_index": 255,
        "rt": 833,
        "correct": true,
        "response": "ArrowRight",
        "congruent": false,
        "gazeTowards": true,
        "gazeCondition": "towards",
        "faceOnLeft": false,
        "impliedDirection": 180,
        "testDirection": 0,
        "avgFps": 119,
        "minFps": 62,
        "maxFps": 135,
        "totalFrames": 99,
        "frameRates": 119
      },
      {
        "trial_number": 39,
        "trial_index": 263,
        "rt": 886,
        "correct": false,
        "response": "ArrowRight",
        "congruent": false,
        "gazeTowards": false,
        "gazeCondition": "away",
        "faceOnLeft": true,
        "impliedDirection": 0,
        "testDirection": 180,
        "avgFps": 120,
        "minFps": 109,
        "maxFps": 133,
        "totalFrames": 105,
        "frameRates": 120
      },
      {
        "trial_number": 40,
        "trial_index": 268,
        "rt": 734,
        "correct": true,
        "response": "ArrowRight",
        "congruent": false,
        "gazeTowards": false,
        "gazeCondition": "away",
        "faceOnLeft": false,
        "impliedDirection": 180,
        "testDirection": 0,
        "avgFps": 117,
        "minFps": 40,
        "maxFps": 135,
        "totalFrames": 87,
        "frameRates": 117
      },
      {
        "trial_number": 41,
        "trial_index": 273,
        "rt": 803,
        "correct": true,
        "response": "ArrowRight",
        "congruent": false,
        "gazeTowards": false,
        "gazeCondition": "away",
        "faceOnLeft": false,
        "impliedDirection": 180,
        "testDirection": 0,
        "avgFps": 119,
        "minFps": 57,
        "maxFps": 137,
        "totalFrames": 95,
        "frameRates": 119
      },
      {
        "trial_number": 42,
        "trial_index": 278,
        "rt": 907,
        "correct": true,
        "response": "ArrowLeft",
        "congruent": false,
        "gazeTowards": true,
        "gazeCondition": "towards",
        "faceOnLeft": true,
        "impliedDirection": 0,
        "testDirection": 180,
        "avgFps": 119,
        "minFps": 60,
        "maxFps": 135,
        "totalFrames": 108,
        "frameRates": 119
      },
      {
        "trial_number": 43,
        "trial_index": 283,
        "rt": 804,
        "correct": true,
        "response": "ArrowRight",
        "congruent": false,
        "gazeTowards": true,
        "gazeCondition": "towards",
        "faceOnLeft": false,
        "impliedDirection": 180,
        "testDirection": 0,
        "avgFps": 120,
        "minFps": 106,
        "maxFps": 135,
        "totalFrames": 96,
        "frameRates": 120
      },
      {
        "trial_number": 44,
        "trial_index": 288,
        "rt": 796,
        "correct": true,
        "response": "ArrowRight",
        "congruent": false,
        "gazeTowards": true,
        "gazeCondition": "towards",
        "faceOnLeft": false,
        "impliedDirection": 180,
        "testDirection": 0,
        "avgFps": 119,
        "minFps": 60,
        "maxFps": 139,
        "totalFrames": 94,
        "frameRates": 119
      },
      {
        "trial_number": 45,
        "trial_index": 293,
        "rt": 903,
        "correct": true,
        "response": "ArrowRight",
        "congruent": true,
        "gazeTowards": false,
        "gazeCondition": "away",
        "faceOnLeft": true,
        "impliedDirection": 0,
        "testDirection": 0,
        "avgFps": 120,
        "minFps": 106,
        "maxFps": 135,
        "totalFrames": 108,
        "frameRates": 120
      },
      {
        "trial_number": 46,
        "trial_index": 298,
        "rt": 738,
        "correct": true,
        "response": "ArrowRight",
        "congruent": true,
        "gazeTowards": false,
        "gazeCondition": "away",
        "faceOnLeft": true,
        "impliedDirection": 0,
        "testDirection": 0,
        "avgFps": 120,
        "minFps": 108,
        "maxFps": 135,
        "totalFrames": 88,
        "frameRates": 120
      },
      {
        "trial_number": 47,
        "trial_index": 303,
        "rt": 905,
        "correct": true,
        "response": "ArrowLeft",
        "congruent": false,
        "gazeTowards": true,
        "gazeCondition": "towards",
        "faceOnLeft": true,
        "impliedDirection": 0,
        "testDirection": 180,
        "avgFps": 120,
        "minFps": 106,
        "maxFps": 135,
        "totalFrames": 108,
        "frameRates": 120
      },
      {
        "trial_number": 48,
        "trial_index": 308,
        "rt": 847,
        "correct": true,
        "response": "ArrowRight",
        "congruent": false,
        "gazeTowards": true,
        "gazeCondition": "towards",
        "faceOnLeft": false,
        "impliedDirection": 180,
        "testDirection": 0,
        "avgFps": 120,
        "minFps": 106,
        "maxFps": 137,
        "totalFrames": 101,
        "frameRates": 120
      },
      {
        "trial_number": 49,
        "trial_index": 313,
        "rt": 766,
        "correct": false,
        "response": "ArrowRight",
        "congruent": false,
        "gazeTowards": true,
        "gazeCondition": "towards",
        "faceOnLeft": true,
        "impliedDirection": 0,
        "testDirection": 180,
        "avgFps": 119,
        "minFps": 61,
        "maxFps": 137,
        "totalFrames": 91,
        "frameRates": 119
      },
      {
        "trial_number": 50,
        "trial_index": 318,
        "rt": 617,
        "correct": false,
        "response": "ArrowRight",
        "congruent": true,
        "gazeTowards": true,
        "gazeCondition": "towards",
        "faceOnLeft": false,
        "impliedDirection": 180,
        "testDirection": 180,
        "avgFps": 118,
        "minFps": 60,
        "maxFps": 133,
        "totalFrames": 73,
        "frameRates": 118
      },
      {
        "trial_number": 51,
        "trial_index": 323,
        "rt": 929,
        "correct": true,
        "response": "ArrowLeft",
        "congruent": true,
        "gazeTowards": false,
        "gazeCondition": "away",
        "faceOnLeft": false,
        "impliedDirection": 180,
        "testDirection": 180,
        "avgFps": 119,
        "minFps": 60,
        "maxFps": 135,
        "totalFrames": 110,
        "frameRates": 119
      },
      {
        "trial_number": 52,
        "trial_index": 328,
        "rt": 922,
        "correct": true,
        "response": "ArrowLeft",
        "congruent": false,
        "gazeTowards": true,
        "gazeCondition": "towards",
        "faceOnLeft": true,
        "impliedDirection": 0,
        "testDirection": 180,
        "avgFps": 119,
        "minFps": 60,
        "maxFps": 137,
        "totalFrames": 110,
        "frameRates": 119
      },
      {
        "trial_number": 53,
        "trial_index": 333,
        "rt": 715,
        "correct": true,
        "response": "ArrowRight",
        "congruent": true,
        "gazeTowards": false,
        "gazeCondition": "away",
        "faceOnLeft": true,
        "impliedDirection": 0,
        "testDirection": 0,
        "avgFps": 119,
        "minFps": 61,
        "maxFps": 137,
        "totalFrames": 85,
        "frameRates": 119
      },
      {
        "trial_number": 54,
        "trial_index": 338,
        "rt": 1245,
        "correct": true,
        "response": "ArrowLeft",
        "congruent": true,
        "gazeTowards": true,
        "gazeCondition": "towards",
        "faceOnLeft": false,
        "impliedDirection": 180,
        "testDirection": 180,
        "avgFps": 120,
        "minFps": 108,
        "maxFps": 133,
        "totalFrames": 149,
        "frameRates": 120
      },
      {
        "trial_number": 55,
        "trial_index": 349,
        "rt": 1041,
        "correct": false,
        "response": "ArrowRight",
        "congruent": true,
        "gazeTowards": false,
        "gazeCondition": "away",
        "faceOnLeft": false,
        "impliedDirection": 180,
        "testDirection": 180,
        "avgFps": 119,
        "minFps": 59,
        "maxFps": 137,
        "totalFrames": 124,
        "frameRates": 119
      },
      {
        "trial_number": 56,
        "trial_index": 354,
        "rt": 1203,
        "correct": true,
        "response": "ArrowLeft",
        "congruent": true,
        "gazeTowards": true,
        "gazeCondition": "towards",
        "faceOnLeft": false,
        "impliedDirection": 180,
        "testDirection": 180,
        "avgFps": 119,
        "minFps": 59,
        "maxFps": 135,
        "totalFrames": 144,
        "frameRates": 119
      },
      {
        "trial_number": 57,
        "trial_index": 359,
        "rt": 789,
        "correct": true,
        "response": "ArrowRight",
        "congruent": false,
        "gazeTowards": true,
        "gazeCondition": "towards",
        "faceOnLeft": false,
        "impliedDirection": 180,
        "testDirection": 0,
        "avgFps": 120,
        "minFps": 109,
        "maxFps": 135,
        "totalFrames": 94,
        "frameRates": 120
      },
      {
        "trial_number": 58,
        "trial_index": 365,
        "rt": 1077,
        "correct": true,
        "response": "ArrowRight",
        "congruent": true,
        "gazeTowards": true,
        "gazeCondition": "towards",
        "faceOnLeft": true,
        "impliedDirection": 0,
        "testDirection": 0,
        "avgFps": 119,
        "minFps": 60,
        "maxFps": 135,
        "totalFrames": 128,
        "frameRates": 119
      },
      {
        "trial_number": 59,
        "trial_index": 370,
        "rt": 1402,
        "correct": false,
        "response": "ArrowLeft",
        "congruent": false,
        "gazeTowards": false,
        "gazeCondition": "away",
        "faceOnLeft": false,
        "impliedDirection": 180,
        "testDirection": 0,
        "avgFps": 119,
        "minFps": 59,
        "maxFps": 137,
        "totalFrames": 167,
        "frameRates": 119
      },
      {
        "trial_number": 60,
        "trial_index": 375,
        "rt": 923,
        "correct": true,
        "response": "ArrowLeft",
        "congruent": false,
        "gazeTowards": true,
        "gazeCondition": "towards",
        "faceOnLeft": true,
        "impliedDirection": 0,
        "testDirection": 180,
        "avgFps": 120,
        "minFps": 108,
        "maxFps": 135,
        "totalFrames": 111,
        "frameRates": 120
      },
      {
        "trial_number": 61,
        "trial_index": 380,
        "rt": 1002,
        "correct": false,
        "response": "ArrowRight",
        "congruent": false,
        "gazeTowards": true,
        "gazeCondition": "towards",
        "faceOnLeft": true,
        "impliedDirection": 0,
        "testDirection": 180,
        "avgFps": 119,
        "minFps": 59,
        "maxFps": 135,
        "totalFrames": 119,
        "frameRates": 119
      },
      {
        "trial_number": 62,
        "trial_index": 385,
        "rt": 1228,
        "correct": false,
        "response": "ArrowRight",
        "congruent": false,
        "gazeTowards": false,
        "gazeCondition": "away",
        "faceOnLeft": true,
        "impliedDirection": 0,
        "testDirection": 180,
        "avgFps": 119,
        "minFps": 60,
        "maxFps": 133,
        "totalFrames": 146,
        "frameRates": 119
      },
      {
        "trial_number": 63,
        "trial_index": 390,
        "rt": 1076,
        "correct": false,
        "response": "ArrowRight",
        "congruent": false,
        "gazeTowards": true,
        "gazeCondition": "towards",
        "faceOnLeft": true,
        "impliedDirection": 0,
        "testDirection": 180,
        "avgFps": 120,
        "minFps": 106,
        "maxFps": 137,
        "totalFrames": 129,
        "frameRates": 120
      },
      {
        "trial_number": 64,
        "trial_index": 395,
        "rt": 1183,
        "correct": true,
        "response": "ArrowRight",
        "congruent": true,
        "gazeTowards": true,
        "gazeCondition": "towards",
        "faceOnLeft": true,
        "impliedDirection": 0,
        "testDirection": 0,
        "avgFps": 120,
        "minFps": 108,
        "maxFps": 137,
        "totalFrames": 142,
        "frameRates": 120
      },
      {
        "trial_number": 65,
        "trial_index": 400,
        "rt": 913,
        "correct": true,
        "response": "ArrowLeft",
        "congruent": false,
        "gazeTowards": false,
        "gazeCondition": "away",
        "faceOnLeft": true,
        "impliedDirection": 0,
        "testDirection": 180,
        "avgFps": 120,
        "minFps": 108,
        "maxFps": 135,
        "totalFrames": 109,
        "frameRates": 120
      },
      {
        "trial_number": 66,
        "trial_index": 405,
        "rt": 861,
        "correct": true,
        "response": "ArrowRight",
        "congruent": false,
        "gazeTowards": false,
        "gazeCondition": "away",
        "faceOnLeft": false,
        "impliedDirection": 180,
        "testDirection": 0,
        "avgFps": 119,
        "minFps": 62,
        "maxFps": 132,
        "totalFrames": 103,
        "frameRates": 119
      },
      {
        "trial_number": 67,
        "trial_index": 413,
        "rt": 1502,
        "correct": true,
        "response": "ArrowLeft",
        "congruent": true,
        "gazeTowards": true,
        "gazeCondition": "towards",
        "faceOnLeft": false,
        "impliedDirection": 180,
        "testDirection": 180,
        "avgFps": 120,
        "minFps": 108,
        "maxFps": 135,
        "totalFrames": 180,
        "frameRates": 120
      },
      {
        "trial_number": 68,
        "trial_index": 418,
        "rt": 712,
        "correct": true,
        "response": "ArrowRight",
        "congruent": false,
        "gazeTowards": true,
        "gazeCondition": "towards",
        "faceOnLeft": false,
        "impliedDirection": 180,
        "testDirection": 0,
        "avgFps": 119,
        "minFps": 63,
        "maxFps": 137,
        "totalFrames": 85,
        "frameRates": 119
      },
      {
        "trial_number": 69,
        "trial_index": 426,
        "rt": 714,
        "correct": true,
        "response": "ArrowRight",
        "congruent": true,
        "gazeTowards": false,
        "gazeCondition": "away",
        "faceOnLeft": true,
        "impliedDirection": 0,
        "testDirection": 0,
        "avgFps": 119,
        "minFps": 60,
        "maxFps": 135,
        "totalFrames": 85,
        "frameRates": 119
      },
      {
        "trial_number": 70,
        "trial_index": 431,
        "rt": 640,
        "correct": true,
        "response": "ArrowRight",
        "congruent": false,
        "gazeTowards": false,
        "gazeCondition": "away",
        "faceOnLeft": false,
        "impliedDirection": 180,
        "testDirection": 0,
        "avgFps": 119,
        "minFps": 60,
        "maxFps": 133,
        "totalFrames": 76,
        "frameRates": 119
      },
      {
        "trial_number": 71,
        "trial_index": 436,
        "rt": 916,
        "correct": true,
        "response": "ArrowLeft",
        "congruent": true,
        "gazeTowards": false,
        "gazeCondition": "away",
        "faceOnLeft": false,
        "impliedDirection": 180,
        "testDirection": 180,
        "avgFps": 119,
        "minFps": 60,
        "maxFps": 135,
        "totalFrames": 109,
        "frameRates": 119
      },
      {
        "trial_number": 72,
        "trial_index": 441,
        "rt": 700,
        "correct": true,
        "response": "ArrowRight",
        "congruent": true,
        "gazeTowards": true,
        "gazeCondition": "towards",
        "faceOnLeft": true,
        "impliedDirection": 0,
        "testDirection": 0,
        "avgFps": 119,
        "minFps": 60,
        "maxFps": 137,
        "totalFrames": 83,
        "frameRates": 119
      },
      {
        "trial_number": 73,
        "trial_index": 446,
        "rt": 597,
        "correct": true,
        "response": "ArrowRight",
        "congruent": false,
        "gazeTowards": false,
        "gazeCondition": "away",
        "faceOnLeft": false,
        "impliedDirection": 180,
        "testDirection": 0,
        "avgFps": 119,
        "minFps": 59,
        "maxFps": 137,
        "totalFrames": 71,
        "frameRates": 119
      },
      {
        "trial_number": 74,
        "trial_index": 451,
        "rt": 685,
        "correct": true,
        "response": "ArrowRight",
        "congruent": false,
        "gazeTowards": false,
        "gazeCondition": "away",
        "faceOnLeft": false,
        "impliedDirection": 180,
        "testDirection": 0,
        "avgFps": 119,
        "minFps": 60,
        "maxFps": 137,
        "totalFrames": 81,
        "frameRates": 119
      },
      {
        "trial_number": 75,
        "trial_index": 456,
        "rt": 801,
        "correct": true,
        "response": "ArrowRight",
        "congruent": false,
        "gazeTowards": false,
        "gazeCondition": "away",
        "faceOnLeft": false,
        "impliedDirection": 180,
        "testDirection": 0,
        "avgFps": 119,
        "minFps": 61,
        "maxFps": 135,
        "totalFrames": 95,
        "frameRates": 119
      },
      {
        "trial_number": 76,
        "trial_index": 461,
        "rt": 798,
        "correct": true,
        "response": "ArrowRight",
        "congruent": true,
        "gazeTowards": true,
        "gazeCondition": "towards",
        "faceOnLeft": true,
        "impliedDirection": 0,
        "testDirection": 0,
        "avgFps": 119,
        "minFps": 60,
        "maxFps": 133,
        "totalFrames": 95,
        "frameRates": 119
      },
      {
        "trial_number": 77,
        "trial_index": 466,
        "rt": 699,
        "correct": true,
        "response": "ArrowRight",
        "congruent": true,
        "gazeTowards": false,
        "gazeCondition": "away",
        "faceOnLeft": true,
        "impliedDirection": 0,
        "testDirection": 0,
        "avgFps": 119,
        "minFps": 60,
        "maxFps": 133,
        "totalFrames": 83,
        "frameRates": 119
      },
      {
        "trial_number": 78,
        "trial_index": 471,
        "rt": 989,
        "correct": true,
        "response": "ArrowLeft",
        "congruent": true,
        "gazeTowards": false,
        "gazeCondition": "away",
        "faceOnLeft": false,
        "impliedDirection": 180,
        "testDirection": 180,
        "avgFps": 120,
        "minFps": 106,
        "maxFps": 137,
        "totalFrames": 118,
        "frameRates": 120
      },
      {
        "trial_number": 79,
        "trial_index": 476,
        "rt": 781,
        "correct": true,
        "response": "ArrowRight",
        "congruent": false,
        "gazeTowards": true,
        "gazeCondition": "towards",
        "faceOnLeft": false,
        "impliedDirection": 180,
        "testDirection": 0,
        "avgFps": 119,
        "minFps": 60,
        "maxFps": 135,
        "totalFrames": 93,
        "frameRates": 119
      },
      {
        "trial_number": 80,
        "trial_index": 481,
        "rt": 818,
        "correct": true,
        "response": "ArrowLeft",
        "congruent": true,
        "gazeTowards": false,
        "gazeCondition": "away",
        "faceOnLeft": false,
        "impliedDirection": 180,
        "testDirection": 180,
        "avgFps": 119,
        "minFps": 59,
        "maxFps": 133,
        "totalFrames": 97,
        "frameRates": 119
      },
      {
        "trial_number": 81,
        "trial_index": 486,
        "rt": 882,
        "correct": true,
        "response": "ArrowLeft",
        "congruent": false,
        "gazeTowards": false,
        "gazeCondition": "away",
        "faceOnLeft": true,
        "impliedDirection": 0,
        "testDirection": 180,
        "avgFps": 120,
        "minFps": 108,
        "maxFps": 135,
        "totalFrames": 104,
        "frameRates": 120
      },
      {
        "trial_number": 82,
        "trial_index": 491,
        "rt": 627,
        "correct": true,
        "response": "ArrowRight",
        "congruent": false,
        "gazeTowards": true,
        "gazeCondition": "towards",
        "faceOnLeft": false,
        "impliedDirection": 180,
        "testDirection": 0,
        "avgFps": 118,
        "minFps": 60,
        "maxFps": 130,
        "totalFrames": 74,
        "frameRates": 118
      },
      {
        "trial_number": 83,
        "trial_index": 496,
        "rt": 759,
        "correct": true,
        "response": "ArrowLeft",
        "congruent": true,
        "gazeTowards": true,
        "gazeCondition": "towards",
        "faceOnLeft": false,
        "impliedDirection": 180,
        "testDirection": 180,
        "avgFps": 119,
        "minFps": 60,
        "maxFps": 130,
        "totalFrames": 90,
        "frameRates": 119
      },
      {
        "trial_number": 84,
        "trial_index": 501,
        "rt": 869,
        "correct": true,
        "response": "ArrowRight",
        "congruent": true,
        "gazeTowards": true,
        "gazeCondition": "towards",
        "faceOnLeft": true,
        "impliedDirection": 0,
        "testDirection": 0,
        "avgFps": 119,
        "minFps": 59,
        "maxFps": 135,
        "totalFrames": 103,
        "frameRates": 119
      },
      {
        "trial_number": 85,
        "trial_index": 506,
        "rt": 787,
        "correct": true,
        "response": "ArrowLeft",
        "congruent": true,
        "gazeTowards": false,
        "gazeCondition": "away",
        "faceOnLeft": false,
        "impliedDirection": 180,
        "testDirection": 180,
        "avgFps": 120,
        "minFps": 106,
        "maxFps": 137,
        "totalFrames": 94,
        "frameRates": 120
      },
      {
        "trial_number": 86,
        "trial_index": 514,
        "rt": 848,
        "correct": true,
        "response": "ArrowRight",
        "congruent": false,
        "gazeTowards": true,
        "gazeCondition": "towards",
        "faceOnLeft": false,
        "impliedDirection": 180,
        "testDirection": 0,
        "avgFps": 119,
        "minFps": 60,
        "maxFps": 133,
        "totalFrames": 101,
        "frameRates": 119
      },
      {
        "trial_number": 87,
        "trial_index": 519,
        "rt": 842,
        "correct": true,
        "response": "ArrowRight",
        "congruent": true,
        "gazeTowards": false,
        "gazeCondition": "away",
        "faceOnLeft": true,
        "impliedDirection": 0,
        "testDirection": 0,
        "avgFps": 119,
        "minFps": 60,
        "maxFps": 133,
        "totalFrames": 100,
        "frameRates": 119
      },
      {
        "trial_number": 88,
        "trial_index": 525,
        "rt": 1015,
        "correct": true,
        "response": "ArrowLeft",
        "congruent": true,
        "gazeTowards": false,
        "gazeCondition": "away",
        "faceOnLeft": false,
        "impliedDirection": 180,
        "testDirection": 180,
        "avgFps": 119,
        "minFps": 60,
        "maxFps": 139,
        "totalFrames": 121,
        "frameRates": 119
      },
      {
        "trial_number": 89,
        "trial_index": 530,
        "rt": 716,
        "correct": true,
        "response": "ArrowRight",
        "congruent": false,
        "gazeTowards": true,
        "gazeCondition": "towards",
        "faceOnLeft": false,
        "impliedDirection": 180,
        "testDirection": 0,
        "avgFps": 119,
        "minFps": 60,
        "maxFps": 137,
        "totalFrames": 85,
        "frameRates": 119
      },
      {
        "trial_number": 90,
        "trial_index": 535,
        "rt": 955,
        "correct": true,
        "response": "ArrowLeft",
        "congruent": true,
        "gazeTowards": false,
        "gazeCondition": "away",
        "faceOnLeft": false,
        "impliedDirection": 180,
        "testDirection": 180,
        "avgFps": 120,
        "minFps": 106,
        "maxFps": 137,
        "totalFrames": 114,
        "frameRates": 120
      },
      {
        "trial_number": 91,
        "trial_index": 540,
        "rt": 825,
        "correct": true,
        "response": "ArrowLeft",
        "congruent": true,
        "gazeTowards": true,
        "gazeCondition": "towards",
        "faceOnLeft": false,
        "impliedDirection": 180,
        "testDirection": 180,
        "avgFps": 119,
        "minFps": 63,
        "maxFps": 135,
        "totalFrames": 98,
        "frameRates": 119
      },
      {
        "trial_number": 92,
        "trial_index": 545,
        "rt": 833,
        "correct": true,
        "response": "ArrowRight",
        "congruent": false,
        "gazeTowards": false,
        "gazeCondition": "away",
        "faceOnLeft": false,
        "impliedDirection": 180,
        "testDirection": 0,
        "avgFps": 119,
        "minFps": 61,
        "maxFps": 135,
        "totalFrames": 99,
        "frameRates": 119
      },
      {
        "trial_number": 93,
        "trial_index": 550,
        "rt": 821,
        "correct": true,
        "response": "ArrowLeft",
        "congruent": false,
        "gazeTowards": true,
        "gazeCondition": "towards",
        "faceOnLeft": true,
        "impliedDirection": 0,
        "testDirection": 180,
        "avgFps": 119,
        "minFps": 60,
        "maxFps": 137,
        "totalFrames": 98,
        "frameRates": 119
      },
      {
        "trial_number": 94,
        "trial_index": 555,
        "rt": 950,
        "correct": false,
        "response": "ArrowRight",
        "congruent": false,
        "gazeTowards": false,
        "gazeCondition": "away",
        "faceOnLeft": true,
        "impliedDirection": 0,
        "testDirection": 180,
        "avgFps": 119,
        "minFps": 59,
        "maxFps": 137,
        "totalFrames": 113,
        "frameRates": 119
      },
      {
        "trial_number": 95,
        "trial_index": 560,
        "rt": 692,
        "correct": true,
        "response": "ArrowRight",
        "congruent": true,
        "gazeTowards": true,
        "gazeCondition": "towards",
        "faceOnLeft": true,
        "impliedDirection": 0,
        "testDirection": 0,
        "avgFps": 119,
        "minFps": 64,
        "maxFps": 130,
        "totalFrames": 82,
        "frameRates": 119
      },
      {
        "trial_number": 96,
        "trial_index": 565,
        "rt": 866,
        "correct": true,
        "response": "ArrowLeft",
        "congruent": true,
        "gazeTowards": false,
        "gazeCondition": "away",
        "faceOnLeft": false,
        "impliedDirection": 180,
        "testDirection": 180,
        "avgFps": 120,
        "minFps": 108,
        "maxFps": 133,
        "totalFrames": 104,
        "frameRates": 120
      },
      {
        "trial_number": 97,
        "trial_index": 570,
        "rt": 707,
        "correct": true,
        "response": "ArrowRight",
        "congruent": false,
        "gazeTowards": true,
        "gazeCondition": "towards",
        "faceOnLeft": false,
        "impliedDirection": 180,
        "testDirection": 0,
        "avgFps": 119,
        "minFps": 60,
        "maxFps": 135,
        "totalFrames": 84,
        "frameRates": 119
      },
      {
        "trial_number": 98,
        "trial_index": 575,
        "rt": 1072,
        "correct": false,
        "response": "ArrowRight",
        "congruent": true,
        "gazeTowards": true,
        "gazeCondition": "towards",
        "faceOnLeft": false,
        "impliedDirection": 180,
        "testDirection": 180,
        "avgFps": 119,
        "minFps": 60,
        "maxFps": 135,
        "totalFrames": 128,
        "frameRates": 119
      },
      {
        "trial_number": 99,
        "trial_index": 580,
        "rt": 747,
        "correct": true,
        "response": "ArrowLeft",
        "congruent": true,
        "gazeTowards": true,
        "gazeCondition": "towards",
        "faceOnLeft": false,
        "impliedDirection": 180,
        "testDirection": 180,
        "avgFps": 120,
        "minFps": 108,
        "maxFps": 135,
        "totalFrames": 89,
        "frameRates": 120
      },
      {
        "trial_number": 100,
        "trial_index": 585,
        "rt": 628,
        "correct": true,
        "response": "ArrowRight",
        "congruent": false,
        "gazeTowards": true,
        "gazeCondition": "towards",
        "faceOnLeft": false,
        "impliedDirection": 180,
        "testDirection": 0,
        "avgFps": 120,
        "minFps": 108,
        "maxFps": 133,
        "totalFrames": 75,
        "frameRates": 120
      },
      {
        "trial_number": 101,
        "trial_index": 590,
        "rt": 540,
        "correct": true,
        "response": "ArrowRight",
        "congruent": true,
        "gazeTowards": true,
        "gazeCondition": "towards",
        "faceOnLeft": true,
        "impliedDirection": 0,
        "testDirection": 0,
        "avgFps": 118,
        "minFps": 62,
        "maxFps": 133,
        "totalFrames": 64,
        "frameRates": 118
      },
      {
        "trial_number": 102,
        "trial_index": 595,
        "rt": 570,
        "correct": true,
        "response": "ArrowRight",
        "congruent": true,
        "gazeTowards": true,
        "gazeCondition": "towards",
        "faceOnLeft": true,
        "impliedDirection": 0,
        "testDirection": 0,
        "avgFps": 118,
        "minFps": 60,
        "maxFps": 130,
        "totalFrames": 67,
        "frameRates": 118
      },
      {
        "trial_number": 103,
        "trial_index": 600,
        "rt": 780,
        "correct": true,
        "response": "ArrowLeft",
        "congruent": true,
        "gazeTowards": true,
        "gazeCondition": "towards",
        "faceOnLeft": false,
        "impliedDirection": 180,
        "testDirection": 180,
        "avgFps": 119,
        "minFps": 60,
        "maxFps": 135,
        "totalFrames": 93,
        "frameRates": 119
      },
      {
        "trial_number": 104,
        "trial_index": 605,
        "rt": 623,
        "correct": true,
        "response": "ArrowRight",
        "congruent": true,
        "gazeTowards": false,
        "gazeCondition": "away",
        "faceOnLeft": true,
        "impliedDirection": 0,
        "testDirection": 0,
        "avgFps": 120,
        "minFps": 108,
        "maxFps": 135,
        "totalFrames": 74,
        "frameRates": 120
      },
      {
        "trial_number": 105,
        "trial_index": 610,
        "rt": 697,
        "correct": true,
        "response": "ArrowLeft",
        "congruent": false,
        "gazeTowards": true,
        "gazeCondition": "towards",
        "faceOnLeft": true,
        "impliedDirection": 0,
        "testDirection": 180,
        "avgFps": 119,
        "minFps": 60,
        "maxFps": 133,
        "totalFrames": 83,
        "frameRates": 119
      },
      {
        "trial_number": 106,
        "trial_index": 615,
        "rt": 955,
        "correct": false,
        "response": "ArrowRight",
        "congruent": false,
        "gazeTowards": false,
        "gazeCondition": "away",
        "faceOnLeft": true,
        "impliedDirection": 0,
        "testDirection": 180,
        "avgFps": 119,
        "minFps": 60,
        "maxFps": 133,
        "totalFrames": 114,
        "frameRates": 119
      },
      {
        "trial_number": 107,
        "trial_index": 620,
        "rt": 581,
        "correct": true,
        "response": "ArrowRight",
        "congruent": true,
        "gazeTowards": true,
        "gazeCondition": "towards",
        "faceOnLeft": true,
        "impliedDirection": 0,
        "testDirection": 0,
        "avgFps": 118,
        "minFps": 59,
        "maxFps": 135,
        "totalFrames": 69,
        "frameRates": 118
      },
      {
        "trial_number": 108,
        "trial_index": 625,
        "rt": 741,
        "correct": false,
        "response": "ArrowRight",
        "congruent": true,
        "gazeTowards": false,
        "gazeCondition": "away",
        "faceOnLeft": false,
        "impliedDirection": 180,
        "testDirection": 180,
        "avgFps": 119,
        "minFps": 61,
        "maxFps": 135,
        "totalFrames": 88,
        "frameRates": 119
      },
      {
        "trial_number": 109,
        "trial_index": 630,
        "rt": 812,
        "correct": true,
        "response": "ArrowRight",
        "congruent": true,
        "gazeTowards": true,
        "gazeCondition": "towards",
        "faceOnLeft": true,
        "impliedDirection": 0,
        "testDirection": 0,
        "avgFps": 120,
        "minFps": 110,
        "maxFps": 130,
        "totalFrames": 97,
        "frameRates": 120
      },
      {
        "trial_number": 110,
        "trial_index": 635,
        "rt": 689,
        "correct": true,
        "response": "ArrowRight",
        "congruent": true,
        "gazeTowards": true,
        "gazeCondition": "towards",
        "faceOnLeft": true,
        "impliedDirection": 0,
        "testDirection": 0,
        "avgFps": 120,
        "minFps": 108,
        "maxFps": 135,
        "totalFrames": 82,
        "frameRates": 120
      },
      {
        "trial_number": 111,
        "trial_index": 640,
        "rt": 862,
        "correct": true,
        "response": "ArrowRight",
        "congruent": true,
        "gazeTowards": true,
        "gazeCondition": "towards",
        "faceOnLeft": true,
        "impliedDirection": 0,
        "testDirection": 0,
        "avgFps": 119,
        "minFps": 60,
        "maxFps": 135,
        "totalFrames": 103,
        "frameRates": 119
      },
      {
        "trial_number": 112,
        "trial_index": 645,
        "rt": 815,
        "correct": true,
        "response": "ArrowLeft",
        "congruent": true,
        "gazeTowards": false,
        "gazeCondition": "away",
        "faceOnLeft": false,
        "impliedDirection": 180,
        "testDirection": 180,
        "avgFps": 120,
        "minFps": 108,
        "maxFps": 135,
        "totalFrames": 96,
        "frameRates": 120
      },
      {
        "trial_number": 113,
        "trial_index": 650,
        "rt": 552,
        "correct": false,
        "response": "ArrowRight",
        "congruent": true,
        "gazeTowards": true,
        "gazeCondition": "towards",
        "faceOnLeft": false,
        "impliedDirection": 180,
        "testDirection": 180,
        "avgFps": 120,
        "minFps": 106,
        "maxFps": 135,
        "totalFrames": 66,
        "frameRates": 120
      },
      {
        "trial_number": 114,
        "trial_index": 655,
        "rt": 609,
        "correct": true,
        "response": "ArrowRight",
        "congruent": false,
        "gazeTowards": false,
        "gazeCondition": "away",
        "faceOnLeft": false,
        "impliedDirection": 180,
        "testDirection": 0,
        "avgFps": 120,
        "minFps": 106,
        "maxFps": 135,
        "totalFrames": 73,
        "frameRates": 120
      },
      {
        "trial_number": 115,
        "trial_index": 660,
        "rt": 667,
        "correct": false,
        "response": "ArrowLeft",
        "congruent": true,
        "gazeTowards": true,
        "gazeCondition": "towards",
        "faceOnLeft": true,
        "impliedDirection": 0,
        "testDirection": 0,
        "avgFps": 118,
        "minFps": 59,
        "maxFps": 135,
        "totalFrames": 79,
        "frameRates": 118
      },
      {
        "trial_number": 116,
        "trial_index": 665,
        "rt": 645,
        "correct": true,
        "response": "ArrowRight",
        "congruent": true,
        "gazeTowards": true,
        "gazeCondition": "towards",
        "faceOnLeft": true,
        "impliedDirection": 0,
        "testDirection": 0,
        "avgFps": 118,
        "minFps": 60,
        "maxFps": 133,
        "totalFrames": 76,
        "frameRates": 118
      },
      {
        "trial_number": 117,
        "trial_index": 673,
        "rt": 1243,
        "correct": true,
        "response": "ArrowLeft",
        "congruent": true,
        "gazeTowards": false,
        "gazeCondition": "away",
        "faceOnLeft": false,
        "impliedDirection": 180,
        "testDirection": 180,
        "avgFps": 119,
        "minFps": 59,
        "maxFps": 133,
        "totalFrames": 148,
        "frameRates": 119
      },
      {
        "trial_number": 118,
        "trial_index": 678,
        "rt": 900,
        "correct": true,
        "response": "ArrowRight",
        "congruent": true,
        "gazeTowards": true,
        "gazeCondition": "towards",
        "faceOnLeft": true,
        "impliedDirection": 0,
        "testDirection": 0,
        "avgFps": 119,
        "minFps": 62,
        "maxFps": 135,
        "totalFrames": 107,
        "frameRates": 119
      },
      {
        "trial_number": 119,
        "trial_index": 683,
        "rt": 1002,
        "correct": false,
        "response": "ArrowLeft",
        "congruent": false,
        "gazeTowards": false,
        "gazeCondition": "away",
        "faceOnLeft": false,
        "impliedDirection": 180,
        "testDirection": 0,
        "avgFps": 120,
        "minFps": 108,
        "maxFps": 135,
        "totalFrames": 120,
        "frameRates": 120
      }
    ],
    "catch": {
      "total": 12,
      "correct": 12,
      "accuracy": 100,
      "meanRT": 962,
      "trials": [
        {
          "trial_number": 0,
          "trial_index": 53,
          "rt": 1544,
          "correct": true,
          "colorTarget": "tree",
          "gazeTowards": false,
          "gazeCondition": "away",
          "faceOnLeft": false
        },
        {
          "trial_number": 1,
          "trial_index": 71,
          "rt": 1163,
          "correct": true,
          "colorTarget": "face",
          "gazeTowards": true,
          "gazeCondition": "towards",
          "faceOnLeft": false
        },
        {
          "trial_number": 2,
          "trial_index": 164,
          "rt": 751,
          "correct": true,
          "colorTarget": "face",
          "gazeTowards": false,
          "gazeCondition": "away",
          "faceOnLeft": true
        },
        {
          "trial_number": 3,
          "trial_index": 177,
          "rt": 1018,
          "correct": true,
          "colorTarget": "face",
          "gazeTowards": true,
          "gazeCondition": "towards",
          "faceOnLeft": true
        },
        {
          "trial_number": 4,
          "trial_index": 216,
          "rt": 728,
          "correct": true,
          "colorTarget": "tree",
          "gazeTowards": true,
          "gazeCondition": "towards",
          "faceOnLeft": false
        },
        {
          "trial_number": 5,
          "trial_index": 259,
          "rt": 894,
          "correct": true,
          "colorTarget": "face",
          "gazeTowards": false,
          "gazeCondition": "away",
          "faceOnLeft": false
        },
        {
          "trial_number": 6,
          "trial_index": 342,
          "rt": 1150,
          "correct": true,
          "colorTarget": "tree",
          "gazeTowards": true,
          "gazeCondition": "towards",
          "faceOnLeft": true
        },
        {
          "trial_number": 7,
          "trial_index": 345,
          "rt": 671,
          "correct": true,
          "colorTarget": "tree",
          "gazeTowards": false,
          "gazeCondition": "away",
          "faceOnLeft": false
        },
        {
          "trial_number": 8,
          "trial_index": 409,
          "rt": 760,
          "correct": true,
          "colorTarget": "tree",
          "gazeTowards": true,
          "gazeCondition": "towards",
          "faceOnLeft": true
        },
        {
          "trial_number": 9,
          "trial_index": 422,
          "rt": 909,
          "correct": true,
          "colorTarget": "face",
          "gazeTowards": false,
          "gazeCondition": "away",
          "faceOnLeft": true
        },
        {
          "trial_number": 10,
          "trial_index": 510,
          "rt": 1319,
          "correct": true,
          "colorTarget": "tree",
          "gazeTowards": true,
          "gazeCondition": "towards",
          "faceOnLeft": false
        },
        {
          "trial_number": 11,
          "trial_index": 669,
          "rt": 633,
          "correct": true,
          "colorTarget": "face",
          "gazeTowards": false,
          "gazeCondition": "away",
          "faceOnLeft": true
        }
      ]
    },
    "practice": {
      "trials": [
        {
          "trial_number": 0,
          "rt": null,
          "correct": false,
          "direction": 0
        },
        {
          "trial_number": 1,
          "rt": 1221,
          "correct": true,
          "direction": 0
        },
        {
          "trial_number": 2,
          "rt": 1224,
          "correct": true,
          "direction": 0
        },
        {
          "trial_number": 3,
          "rt": 1149,
          "correct": true,
          "direction": 180
        },
        {
          "trial_number": 4,
          "rt": 873,
          "correct": true,
          "direction": 0
        },
        {
          "trial_number": 5,
          "rt": 1256,
          "correct": true,
          "direction": 180
        },
        {
          "trial_number": 6,
          "rt": 794,
          "correct": false,
          "direction": 180
        },
        {
          "trial_number": 7,
          "rt": 829,
          "correct": true,
          "direction": 0
        },
        {
          "trial_number": 8,
          "rt": 959,
          "correct": true,
          "direction": 0
        },
        {
          "trial_number": 9,
          "rt": 1276,
          "correct": true,
          "direction": 0
        }
      ],
      "meanRT": 1065,
      "accuracy": 80
    }
  }
}