{
  "experiment": "rdk-face-1",
  "UUID": "19737f66-6f35-435a-a885-8fa7f795a972",
  "data": {
    "session": {
      "experiment_version": "1.8.6",
      "treatment": "faces_towards_away_catch",
      "file_version": "1.8.6",
      "totalTrials": 120,
      "totalTrialsIncludingCatch": 132,
      "conditions": {
        "gazeTowardsCount": 60,
        "gazeAwayCount": 60,
        "gazeTowardsAccuracy": 97,
        "gazeAwayAccuracy": 100
      },
      "session_group": "default",
      "browserData": {
        "os": "Windows",
        "browser": "Chrome",
        "screenResolution": "1920x1080",
        "browserViewport": "1920x1080",
        "devicePixelRatio": 1,
        "colorDepth": 32,
        "hardwareConcurrency": 8,
        "deviceMemory": 8,
        "gpuRenderer": "ANGLE (Intel, Intel(R) Iris(R) Plus Graphics (0x00008A52) Direct3D11 vs_5_0 ps_5_0, D3D11)",
        "measuredRefreshRateHz": 36
      },
      "attention": {
        "visibilityEvents": [
          {
            "event": "blur",
            "state": "blurred",
            "timestamp": 1772777571693
          },
          {
            "event": "visibilitychange",
            "state": "hidden",
            "timestamp": 1772777571697
          },
          {
            "event": "visibilitychange",
            "state": "visible",
            "timestamp": 1772777604001
          },
          {
            "event": "focus",
            "state": "focused",
            "timestamp": 1772777604014
          }
        ]
      },
      "calibration": {
        "monitorWidthCm": 38,
        "viewingDistanceCm": 54,
        "pixelsPerDegree": 50
      },
      "parameters": {
        "coherence": 0.4,
        "apertureDeg": 5,
        "densityDotsPerDeg2": 40,
        "dotDiameterDeg": 0.035,
        "dotSpeedDegPerSec": 3,
        "lifetimeMs": 200,
        "fixationDurationMs": 1500,
        "faceDurationMs": 1500,
        "testDurationMs": 2000,
        "catchResponseMs": 3000
      },
      "prolific": {
        "prolificPid": "663eed3d72f4269ddd149f33",
        "studyId": "",
        "sessionId": ""
      },
      "timing": {
        "startTime": "2026-03-06T06:12:47.922Z",
        "endTime": "2026-03-06T06:30:21.490Z",
        "totalElapsedTimeMs": 1053568
      }
    },
    "trials": [
      {
        "trial_number": 0,
        "trial_index": 49,
        "rt": null,
        "correct": false,
        "response": null,
        "congruent": true,
        "gazeTowards": true,
        "gazeCondition": "towards",
        "faceOnLeft": true,
        "impliedDirection": 0,
        "testDirection": 0,
        "avgFps": 60,
        "minFps": 58,
        "maxFps": 63,
        "totalFrames": 120,
        "frameRates": 60
      },
      {
        "trial_number": 1,
        "trial_index": 54,
        "rt": 1523,
        "correct": true,
        "response": "ArrowRight",
        "congruent": true,
        "gazeTowards": true,
        "gazeCondition": "towards",
        "faceOnLeft": true,
        "impliedDirection": 0,
        "testDirection": 0,
        "avgFps": 60,
        "minFps": 58,
        "maxFps": 63,
        "totalFrames": 91,
        "frameRates": 60
      },
      {
        "trial_number": 2,
        "trial_index": 62,
        "rt": 879,
        "correct": true,
        "response": "ArrowLeft",
        "congruent": true,
        "gazeTowards": false,
        "gazeCondition": "away",
        "faceOnLeft": false,
        "impliedDirection": 180,
        "testDirection": 180,
        "avgFps": 60,
        "minFps": 58,
        "maxFps": 63,
        "totalFrames": 53,
        "frameRates": 60
      },
      {
        "trial_number": 3,
        "trial_index": 67,
        "rt": 1739,
        "correct": true,
        "response": "ArrowRight",
        "congruent": true,
        "gazeTowards": false,
        "gazeCondition": "away",
        "faceOnLeft": true,
        "impliedDirection": 0,
        "testDirection": 0,
        "avgFps": 60,
        "minFps": 58,
        "maxFps": 67,
        "totalFrames": 104,
        "frameRates": 60
      },
      {
        "trial_number": 4,
        "trial_index": 72,
        "rt": 903,
        "correct": true,
        "response": "ArrowLeft",
        "congruent": false,
        "gazeTowards": false,
        "gazeCondition": "away",
        "faceOnLeft": true,
        "impliedDirection": 0,
        "testDirection": 180,
        "avgFps": 60,
        "minFps": 58,
        "maxFps": 63,
        "totalFrames": 54,
        "frameRates": 60
      },
      {
        "trial_number": 5,
        "trial_index": 77,
        "rt": 1028,
        "correct": true,
        "response": "ArrowLeft",
        "congruent": false,
        "gazeTowards": true,
        "gazeCondition": "towards",
        "faceOnLeft": true,
        "impliedDirection": 0,
        "testDirection": 180,
        "avgFps": 60,
        "minFps": 58,
        "maxFps": 63,
        "totalFrames": 61,
        "frameRates": 60
      },
      {
        "trial_number": 6,
        "trial_index": 82,
        "rt": 1483,
        "correct": true,
        "response": "ArrowRight",
        "congruent": false,
        "gazeTowards": true,
        "gazeCondition": "towards",
        "faceOnLeft": false,
        "impliedDirection": 180,
        "testDirection": 0,
        "avgFps": 60,
        "minFps": 59,
        "maxFps": 62,
        "totalFrames": 89,
        "frameRates": 60
      },
      {
        "trial_number": 7,
        "trial_index": 87,
        "rt": 834,
        "correct": true,
        "response": "ArrowLeft",
        "congruent": false,
        "gazeTowards": true,
        "gazeCondition": "towards",
        "faceOnLeft": true,
        "impliedDirection": 0,
        "testDirection": 180,
        "avgFps": 60,
        "minFps": 56,
        "maxFps": 64,
        "totalFrames": 50,
        "frameRates": 60
      },
      {
        "trial_number": 8,
        "trial_index": 92,
        "rt": 1240,
        "correct": true,
        "response": "ArrowRight",
        "congruent": true,
        "gazeTowards": false,
        "gazeCondition": "away",
        "faceOnLeft": true,
        "impliedDirection": 0,
        "testDirection": 0,
        "avgFps": 60,
        "minFps": 57,
        "maxFps": 64,
        "totalFrames": 75,
        "frameRates": 60
      },
      {
        "trial_number": 9,
        "trial_index": 97,
        "rt": 1054,
        "correct": true,
        "response": "ArrowRight",
        "congruent": false,
        "gazeTowards": true,
        "gazeCondition": "towards",
        "faceOnLeft": false,
        "impliedDirection": 180,
        "testDirection": 0,
        "avgFps": 60,
        "minFps": 58,
        "maxFps": 64,
        "totalFrames": 64,
        "frameRates": 60
      },
      {
        "trial_number": 10,
        "trial_index": 102,
        "rt": 831,
        "correct": true,
        "response": "ArrowLeft",
        "congruent": true,
        "gazeTowards": true,
        "gazeCondition": "towards",
        "faceOnLeft": false,
        "impliedDirection": 180,
        "testDirection": 180,
        "avgFps": 60,
        "minFps": 58,
        "maxFps": 63,
        "totalFrames": 50,
        "frameRates": 60
      },
      {
        "trial_number": 11,
        "trial_index": 107,
        "rt": 1308,
        "correct": true,
        "response": "ArrowRight",
        "congruent": true,
        "gazeTowards": false,
        "gazeCondition": "away",
        "faceOnLeft": true,
        "impliedDirection": 0,
        "testDirection": 0,
        "avgFps": 60,
        "minFps": 57,
        "maxFps": 63,
        "totalFrames": 79,
        "frameRates": 60
      },
      {
        "trial_number": 12,
        "trial_index": 112,
        "rt": 1162,
        "correct": true,
        "response": "ArrowLeft",
        "congruent": false,
        "gazeTowards": false,
        "gazeCondition": "away",
        "faceOnLeft": true,
        "impliedDirection": 0,
        "testDirection": 180,
        "avgFps": 60,
        "minFps": 58,
        "maxFps": 63,
        "totalFrames": 70,
        "frameRates": 60
      },
      {
        "trial_number": 13,
        "trial_index": 117,
        "rt": 1166,
        "correct": true,
        "response": "ArrowRight",
        "congruent": true,
        "gazeTowards": false,
        "gazeCondition": "away",
        "faceOnLeft": true,
        "impliedDirection": 0,
        "testDirection": 0,
        "avgFps": 60,
        "minFps": 57,
        "maxFps": 62,
        "totalFrames": 70,
        "frameRates": 60
      },
      {
        "trial_number": 14,
        "trial_index": 122,
        "rt": 673,
        "correct": true,
        "response": "ArrowLeft",
        "congruent": false,
        "gazeTowards": true,
        "gazeCondition": "towards",
        "faceOnLeft": true,
        "impliedDirection": 0,
        "testDirection": 180,
        "avgFps": 60,
        "minFps": 58,
        "maxFps": 62,
        "totalFrames": 41,
        "frameRates": 60
      },
      {
        "trial_number": 15,
        "trial_index": 127,
        "rt": 993,
        "correct": true,
        "response": "ArrowLeft",
        "congruent": false,
        "gazeTowards": false,
        "gazeCondition": "away",
        "faceOnLeft": true,
        "impliedDirection": 0,
        "testDirection": 180,
        "avgFps": 60,
        "minFps": 55,
        "maxFps": 63,
        "totalFrames": 59,
        "frameRates": 60
      },
      {
        "trial_number": 16,
        "trial_index": 132,
        "rt": 1103,
        "correct": true,
        "response": "ArrowRight",
        "congruent": false,
        "gazeTowards": true,
        "gazeCondition": "towards",
        "faceOnLeft": false,
        "impliedDirection": 180,
        "testDirection": 0,
        "avgFps": 60,
        "minFps": 58,
        "maxFps": 63,
        "totalFrames": 66,
        "frameRates": 60
      },
      {
        "trial_number": 17,
        "trial_index": 137,
        "rt": 1007,
        "correct": true,
        "response": "ArrowLeft",
        "congruent": true,
        "gazeTowards": false,
        "gazeCondition": "away",
        "faceOnLeft": false,
        "impliedDirection": 180,
        "testDirection": 180,
        "avgFps": 60,
        "minFps": 51,
        "maxFps": 72,
        "totalFrames": 61,
        "frameRates": 60
      },
      {
        "trial_number": 18,
        "trial_index": 142,
        "rt": 1042,
        "correct": true,
        "response": "ArrowRight",
        "congruent": false,
        "gazeTowards": false,
        "gazeCondition": "away",
        "faceOnLeft": false,
        "impliedDirection": 180,
        "testDirection": 0,
        "avgFps": 60,
        "minFps": 58,
        "maxFps": 62,
        "totalFrames": 62,
        "frameRates": 60
      },
      {
        "trial_number": 19,
        "trial_index": 147,
        "rt": 1140,
        "correct": true,
        "response": "ArrowRight",
        "congruent": true,
        "gazeTowards": true,
        "gazeCondition": "towards",
        "faceOnLeft": true,
        "impliedDirection": 0,
        "testDirection": 0,
        "avgFps": 60,
        "minFps": 57,
        "maxFps": 62,
        "totalFrames": 68,
        "frameRates": 60
      },
      {
        "trial_number": 20,
        "trial_index": 152,
        "rt": 1349,
        "correct": true,
        "response": "ArrowRight",
        "congruent": true,
        "gazeTowards": true,
        "gazeCondition": "towards",
        "faceOnLeft": true,
        "impliedDirection": 0,
        "testDirection": 0,
        "avgFps": 60,
        "minFps": 58,
        "maxFps": 63,
        "totalFrames": 81,
        "frameRates": 60
      },
      {
        "trial_number": 21,
        "trial_index": 157,
        "rt": 1362,
        "correct": true,
        "response": "ArrowLeft",
        "congruent": true,
        "gazeTowards": false,
        "gazeCondition": "away",
        "faceOnLeft": false,
        "impliedDirection": 180,
        "testDirection": 180,
        "avgFps": 60,
        "minFps": 58,
        "maxFps": 64,
        "totalFrames": 82,
        "frameRates": 60
      },
      {
        "trial_number": 22,
        "trial_index": 162,
        "rt": 1028,
        "correct": true,
        "response": "ArrowLeft",
        "congruent": false,
        "gazeTowards": false,
        "gazeCondition": "away",
        "faceOnLeft": true,
        "impliedDirection": 0,
        "testDirection": 180,
        "avgFps": 60,
        "minFps": 58,
        "maxFps": 62,
        "totalFrames": 62,
        "frameRates": 60
      },
      {
        "trial_number": 23,
        "trial_index": 167,
        "rt": 1630,
        "correct": true,
        "response": "ArrowRight",
        "congruent": true,
        "gazeTowards": false,
        "gazeCondition": "away",
        "faceOnLeft": true,
        "impliedDirection": 0,
        "testDirection": 0,
        "avgFps": 60,
        "minFps": 57,
        "maxFps": 64,
        "totalFrames": 98,
        "frameRates": 60
      },
      {
        "trial_number": 24,
        "trial_index": 172,
        "rt": 1154,
        "correct": true,
        "response": "ArrowRight",
        "congruent": true,
        "gazeTowards": true,
        "gazeCondition": "towards",
        "faceOnLeft": true,
        "impliedDirection": 0,
        "testDirection": 0,
        "avgFps": 60,
        "minFps": 59,
        "maxFps": 63,
        "totalFrames": 68,
        "frameRates": 60
      },
      {
        "trial_number": 25,
        "trial_index": 177,
        "rt": 885,
        "correct": true,
        "response": "ArrowLeft",
        "congruent": true,
        "gazeTowards": true,
        "gazeCondition": "towards",
        "faceOnLeft": false,
        "impliedDirection": 180,
        "testDirection": 180,
        "avgFps": 60,
        "minFps": 59,
        "maxFps": 62,
        "totalFrames": 53,
        "frameRates": 60
      },
      {
        "trial_number": 26,
        "trial_index": 182,
        "rt": 1326,
        "correct": true,
        "response": "ArrowLeft",
        "congruent": false,
        "gazeTowards": false,
        "gazeCondition": "away",
        "faceOnLeft": true,
        "impliedDirection": 0,
        "testDirection": 180,
        "avgFps": 60,
        "minFps": 58,
        "maxFps": 64,
        "totalFrames": 79,
        "frameRates": 60
      },
      {
        "trial_number": 27,
        "trial_index": 190,
        "rt": 1138,
        "correct": true,
        "response": "ArrowRight",
        "congruent": true,
        "gazeTowards": true,
        "gazeCondition": "towards",
        "faceOnLeft": true,
        "impliedDirection": 0,
        "testDirection": 0,
        "avgFps": 60,
        "minFps": 57,
        "maxFps": 63,
        "totalFrames": 69,
        "frameRates": 60
      },
      {
        "trial_number": 28,
        "trial_index": 198,
        "rt": 1330,
        "correct": true,
        "response": "ArrowRight",
        "congruent": false,
        "gazeTowards": false,
        "gazeCondition": "away",
        "faceOnLeft": false,
        "impliedDirection": 180,
        "testDirection": 0,
        "avgFps": 60,
        "minFps": 57,
        "maxFps": 65,
        "totalFrames": 80,
        "frameRates": 60
      },
      {
        "trial_number": 29,
        "trial_index": 203,
        "rt": 1110,
        "correct": true,
        "response": "ArrowRight",
        "congruent": true,
        "gazeTowards": true,
        "gazeCondition": "towards",
        "faceOnLeft": true,
        "impliedDirection": 0,
        "testDirection": 0,
        "avgFps": 61,
        "minFps": 58,
        "maxFps": null,
        "totalFrames": 67,
        "frameRates": 61
      },
      {
        "trial_number": 30,
        "trial_index": 209,
        "rt": 1310,
        "correct": true,
        "response": "ArrowLeft",
        "congruent": true,
        "gazeTowards": true,
        "gazeCondition": "towards",
        "faceOnLeft": false,
        "impliedDirection": 180,
        "testDirection": 180,
        "avgFps": 60,
        "minFps": 57,
        "maxFps": 63,
        "totalFrames": 79,
        "frameRates": 60
      },
      {
        "trial_number": 31,
        "trial_index": 214,
        "rt": 1105,
        "correct": true,
        "response": "ArrowRight",
        "congruent": false,
        "gazeTowards": true,
        "gazeCondition": "towards",
        "faceOnLeft": false,
        "impliedDirection": 180,
        "testDirection": 0,
        "avgFps": 60,
        "minFps": 57,
        "maxFps": 64,
        "totalFrames": 66,
        "frameRates": 60
      },
      {
        "trial_number": 32,
        "trial_index": 219,
        "rt": 916,
        "correct": true,
        "response": "ArrowRight",
        "congruent": false,
        "gazeTowards": true,
        "gazeCondition": "towards",
        "faceOnLeft": false,
        "impliedDirection": 180,
        "testDirection": 0,
        "avgFps": 61,
        "minFps": 58,
        "maxFps": null,
        "totalFrames": 55,
        "frameRates": 61
      },
      {
        "trial_number": 33,
        "trial_index": 224,
        "rt": 1427,
        "correct": true,
        "response": "ArrowLeft",
        "congruent": true,
        "gazeTowards": true,
        "gazeCondition": "towards",
        "faceOnLeft": false,
        "impliedDirection": 180,
        "testDirection": 180,
        "avgFps": 60,
        "minFps": 58,
        "maxFps": 63,
        "totalFrames": 86,
        "frameRates": 60
      },
      {
        "trial_number": 34,
        "trial_index": 229,
        "rt": 1652,
        "correct": true,
        "response": "ArrowRight",
        "congruent": false,
        "gazeTowards": false,
        "gazeCondition": "away",
        "faceOnLeft": false,
        "impliedDirection": 180,
        "testDirection": 0,
        "avgFps": 60,
        "minFps": 50,
        "maxFps": 76,
        "totalFrames": 99,
        "frameRates": 60
      },
      {
        "trial_number": 35,
        "trial_index": 234,
        "rt": 1150,
        "correct": true,
        "response": "ArrowRight",
        "congruent": true,
        "gazeTowards": false,
        "gazeCondition": "away",
        "faceOnLeft": true,
        "impliedDirection": 0,
        "testDirection": 0,
        "avgFps": 60,
        "minFps": 57,
        "maxFps": 62,
        "totalFrames": 69,
        "frameRates": 60
      },
      {
        "trial_number": 36,
        "trial_index": 239,
        "rt": 1313,
        "correct": true,
        "response": "ArrowRight",
        "congruent": false,
        "gazeTowards": false,
        "gazeCondition": "away",
        "faceOnLeft": false,
        "impliedDirection": 180,
        "testDirection": 0,
        "avgFps": 60,
        "minFps": 58,
        "maxFps": 62,
        "totalFrames": 79,
        "frameRates": 60
      },
      {
        "trial_number": 37,
        "trial_index": 244,
        "rt": 925,
        "correct": true,
        "response": "ArrowLeft",
        "congruent": false,
        "gazeTowards": false,
        "gazeCondition": "away",
        "faceOnLeft": true,
        "impliedDirection": 0,
        "testDirection": 180,
        "avgFps": 60,
        "minFps": 58,
        "maxFps": 63,
        "totalFrames": 56,
        "frameRates": 60
      },
      {
        "trial_number": 38,
        "trial_index": 249,
        "rt": 1019,
        "correct": true,
        "response": "ArrowLeft",
        "congruent": false,
        "gazeTowards": false,
        "gazeCondition": "away",
        "faceOnLeft": true,
        "impliedDirection": 0,
        "testDirection": 180,
        "avgFps": 60,
        "minFps": 58,
        "maxFps": 62,
        "totalFrames": 61,
        "frameRates": 60
      },
      {
        "trial_number": 39,
        "trial_index": 254,
        "rt": 1252,
        "correct": true,
        "response": "ArrowLeft",
        "congruent": false,
        "gazeTowards": false,
        "gazeCondition": "away",
        "faceOnLeft": true,
        "impliedDirection": 0,
        "testDirection": 180,
        "avgFps": 60,
        "minFps": 58,
        "maxFps": 64,
        "totalFrames": 76,
        "frameRates": 60
      },
      {
        "trial_number": 40,
        "trial_index": 259,
        "rt": 943,
        "correct": true,
        "response": "ArrowLeft",
        "congruent": true,
        "gazeTowards": true,
        "gazeCondition": "towards",
        "faceOnLeft": false,
        "impliedDirection": 180,
        "testDirection": 180,
        "avgFps": 60,
        "minFps": 58,
        "maxFps": 63,
        "totalFrames": 57,
        "frameRates": 60
      },
      {
        "trial_number": 41,
        "trial_index": 264,
        "rt": 915,
        "correct": true,
        "response": "ArrowLeft",
        "congruent": true,
        "gazeTowards": false,
        "gazeCondition": "away",
        "faceOnLeft": false,
        "impliedDirection": 180,
        "testDirection": 180,
        "avgFps": 60,
        "minFps": 58,
        "maxFps": 62,
        "totalFrames": 54,
        "frameRates": 60
      },
      {
        "trial_number": 42,
        "trial_index": 272,
        "rt": null,
        "correct": false,
        "response": null,
        "congruent": false,
        "gazeTowards": true,
        "gazeCondition": "towards",
        "faceOnLeft": false,
        "impliedDirection": 180,
        "testDirection": 0,
        "avgFps": 60,
        "minFps": 30,
        "maxFps": 62,
        "totalFrames": 120,
        "frameRates": 60
      },
      {
        "trial_number": 43,
        "trial_index": 277,
        "rt": 752,
        "correct": true,
        "response": "ArrowLeft",
        "congruent": false,
        "gazeTowards": false,
        "gazeCondition": "away",
        "faceOnLeft": true,
        "impliedDirection": 0,
        "testDirection": 180,
        "avgFps": 60,
        "minFps": 57,
        "maxFps": 63,
        "totalFrames": 45,
        "frameRates": 60
      },
      {
        "trial_number": 44,
        "trial_index": 282,
        "rt": 963,
        "correct": true,
        "response": "ArrowLeft",
        "congruent": false,
        "gazeTowards": true,
        "gazeCondition": "towards",
        "faceOnLeft": true,
        "impliedDirection": 0,
        "testDirection": 180,
        "avgFps": 60,
        "minFps": 58,
        "maxFps": 63,
        "totalFrames": 57,
        "frameRates": 60
      },
      {
        "trial_number": 45,
        "trial_index": 290,
        "rt": 1258,
        "correct": true,
        "response": "ArrowRight",
        "congruent": false,
        "gazeTowards": true,
        "gazeCondition": "towards",
        "faceOnLeft": false,
        "impliedDirection": 180,
        "testDirection": 0,
        "avgFps": 60,
        "minFps": 59,
        "maxFps": 62,
        "totalFrames": 75,
        "frameRates": 60
      },
      {
        "trial_number": 46,
        "trial_index": 295,
        "rt": 1335,
        "correct": true,
        "response": "ArrowLeft",
        "congruent": false,
        "gazeTowards": false,
        "gazeCondition": "away",
        "faceOnLeft": true,
        "impliedDirection": 0,
        "testDirection": 180,
        "avgFps": 60,
        "minFps": 58,
        "maxFps": 63,
        "totalFrames": 80,
        "frameRates": 60
      },
      {
        "trial_number": 47,
        "trial_index": 303,
        "rt": 1083,
        "correct": true,
        "response": "ArrowRight",
        "congruent": false,
        "gazeTowards": true,
        "gazeCondition": "towards",
        "faceOnLeft": false,
        "impliedDirection": 180,
        "testDirection": 0,
        "avgFps": 59,
        "minFps": 30,
        "maxFps": 63,
        "totalFrames": 64,
        "frameRates": 59
      },
      {
        "trial_number": 48,
        "trial_index": 308,
        "rt": 1485,
        "correct": true,
        "response": "ArrowLeft",
        "congruent": true,
        "gazeTowards": false,
        "gazeCondition": "away",
        "faceOnLeft": false,
        "impliedDirection": 180,
        "testDirection": 180,
        "avgFps": 60,
        "minFps": 58,
        "maxFps": 65,
        "totalFrames": 89,
        "frameRates": 60
      },
      {
        "trial_number": 49,
        "trial_index": 313,
        "rt": 1156,
        "correct": true,
        "response": "ArrowLeft",
        "congruent": true,
        "gazeTowards": false,
        "gazeCondition": "away",
        "faceOnLeft": false,
        "impliedDirection": 180,
        "testDirection": 180,
        "avgFps": 60,
        "minFps": 58,
        "maxFps": 62,
        "totalFrames": 69,
        "frameRates": 60
      },
      {
        "trial_number": 50,
        "trial_index": 318,
        "rt": 1399,
        "correct": true,
        "response": "ArrowLeft",
        "congruent": true,
        "gazeTowards": false,
        "gazeCondition": "away",
        "faceOnLeft": false,
        "impliedDirection": 180,
        "testDirection": 180,
        "avgFps": 60,
        "minFps": 57,
        "maxFps": 63,
        "totalFrames": 84,
        "frameRates": 60
      },
      {
        "trial_number": 51,
        "trial_index": 323,
        "rt": 1494,
        "correct": true,
        "response": "ArrowRight",
        "congruent": true,
        "gazeTowards": true,
        "gazeCondition": "towards",
        "faceOnLeft": true,
        "impliedDirection": 0,
        "testDirection": 0,
        "avgFps": 60,
        "minFps": 57,
        "maxFps": 64,
        "totalFrames": 90,
        "frameRates": 60
      },
      {
        "trial_number": 52,
        "trial_index": 328,
        "rt": 1612,
        "correct": true,
        "response": "ArrowRight",
        "congruent": false,
        "gazeTowards": true,
        "gazeCondition": "towards",
        "faceOnLeft": false,
        "impliedDirection": 180,
        "testDirection": 0,
        "avgFps": 61,
        "minFps": 58,
        "maxFps": null,
        "totalFrames": 97,
        "frameRates": 61
      },
      {
        "trial_number": 53,
        "trial_index": 333,
        "rt": 938,
        "correct": true,
        "response": "ArrowLeft",
        "congruent": true,
        "gazeTowards": true,
        "gazeCondition": "towards",
        "faceOnLeft": false,
        "impliedDirection": 180,
        "testDirection": 180,
        "avgFps": 60,
        "minFps": 58,
        "maxFps": 63,
        "totalFrames": 57,
        "frameRates": 60
      },
      {
        "trial_number": 54,
        "trial_index": 338,
        "rt": 1063,
        "correct": true,
        "response": "ArrowLeft",
        "congruent": true,
        "gazeTowards": false,
        "gazeCondition": "away",
        "faceOnLeft": false,
        "impliedDirection": 180,
        "testDirection": 180,
        "avgFps": 60,
        "minFps": 57,
        "maxFps": 63,
        "totalFrames": 64,
        "frameRates": 60
      },
      {
        "trial_number": 55,
        "trial_index": 343,
        "rt": 1428,
        "correct": true,
        "response": "ArrowRight",
        "congruent": true,
        "gazeTowards": true,
        "gazeCondition": "towards",
        "faceOnLeft": true,
        "impliedDirection": 0,
        "testDirection": 0,
        "avgFps": 60,
        "minFps": 56,
        "maxFps": 66,
        "totalFrames": 85,
        "frameRates": 60
      },
      {
        "trial_number": 56,
        "trial_index": 348,
        "rt": 692,
        "correct": true,
        "response": "ArrowLeft",
        "congruent": true,
        "gazeTowards": false,
        "gazeCondition": "away",
        "faceOnLeft": false,
        "impliedDirection": 180,
        "testDirection": 180,
        "avgFps": 60,
        "minFps": 57,
        "maxFps": 63,
        "totalFrames": 42,
        "frameRates": 60
      },
      {
        "trial_number": 57,
        "trial_index": 353,
        "rt": 571,
        "correct": true,
        "response": "ArrowLeft",
        "congruent": false,
        "gazeTowards": false,
        "gazeCondition": "away",
        "faceOnLeft": true,
        "impliedDirection": 0,
        "testDirection": 180,
        "avgFps": 60,
        "minFps": 57,
        "maxFps": 63,
        "totalFrames": 34,
        "frameRates": 60
      },
      {
        "trial_number": 58,
        "trial_index": 358,
        "rt": 828,
        "correct": true,
        "response": "ArrowLeft",
        "congruent": true,
        "gazeTowards": true,
        "gazeCondition": "towards",
        "faceOnLeft": false,
        "impliedDirection": 180,
        "testDirection": 180,
        "avgFps": 61,
        "minFps": 58,
        "maxFps": null,
        "totalFrames": 50,
        "frameRates": 61
      },
      {
        "trial_number": 59,
        "trial_index": 363,
        "rt": 628,
        "correct": true,
        "response": "ArrowRight",
        "congruent": false,
        "gazeTowards": true,
        "gazeCondition": "towards",
        "faceOnLeft": false,
        "impliedDirection": 180,
        "testDirection": 0,
        "avgFps": 60,
        "minFps": 57,
        "maxFps": 63,
        "totalFrames": 38,
        "frameRates": 60
      },
      {
        "trial_number": 60,
        "trial_index": 369,
        "rt": 1000,
        "correct": true,
        "response": "ArrowRight",
        "congruent": true,
        "gazeTowards": false,
        "gazeCondition": "away",
        "faceOnLeft": true,
        "impliedDirection": 0,
        "testDirection": 0,
        "avgFps": 60,
        "minFps": 57,
        "maxFps": 68,
        "totalFrames": 60,
        "frameRates": 60
      },
      {
        "trial_number": 61,
        "trial_index": 374,
        "rt": 612,
        "correct": true,
        "response": "ArrowLeft",
        "congruent": false,
        "gazeTowards": true,
        "gazeCondition": "towards",
        "faceOnLeft": true,
        "impliedDirection": 0,
        "testDirection": 180,
        "avgFps": 60,
        "minFps": 58,
        "maxFps": 70,
        "totalFrames": 36,
        "frameRates": 60
      },
      {
        "trial_number": 62,
        "trial_index": 379,
        "rt": 630,
        "correct": true,
        "response": "ArrowRight",
        "congruent": false,
        "gazeTowards": true,
        "gazeCondition": "towards",
        "faceOnLeft": false,
        "impliedDirection": 180,
        "testDirection": 0,
        "avgFps": 60,
        "minFps": 57,
        "maxFps": 64,
        "totalFrames": 38,
        "frameRates": 60
      },
      {
        "trial_number": 63,
        "trial_index": 387,
        "rt": 911,
        "correct": true,
        "response": "ArrowRight",
        "congruent": false,
        "gazeTowards": true,
        "gazeCondition": "towards",
        "faceOnLeft": false,
        "impliedDirection": 180,
        "testDirection": 0,
        "avgFps": 61,
        "minFps": 57,
        "maxFps": null,
        "totalFrames": 55,
        "frameRates": 61
      },
      {
        "trial_number": 64,
        "trial_index": 392,
        "rt": 665,
        "correct": true,
        "response": "ArrowRight",
        "congruent": true,
        "gazeTowards": true,
        "gazeCondition": "towards",
        "faceOnLeft": true,
        "impliedDirection": 0,
        "testDirection": 0,
        "avgFps": 60,
        "minFps": 58,
        "maxFps": 62,
        "totalFrames": 40,
        "frameRates": 60
      },
      {
        "trial_number": 65,
        "trial_index": 397,
        "rt": 604,
        "correct": true,
        "response": "ArrowLeft",
        "congruent": false,
        "gazeTowards": false,
        "gazeCondition": "away",
        "faceOnLeft": true,
        "impliedDirection": 0,
        "testDirection": 180,
        "avgFps": 60,
        "minFps": 58,
        "maxFps": 64,
        "totalFrames": 37,
        "frameRates": 60
      },
      {
        "trial_number": 66,
        "trial_index": 402,
        "rt": 610,
        "correct": true,
        "response": "ArrowLeft",
        "congruent": true,
        "gazeTowards": false,
        "gazeCondition": "away",
        "faceOnLeft": false,
        "impliedDirection": 180,
        "testDirection": 180,
        "avgFps": 60,
        "minFps": 58,
        "maxFps": 62,
        "totalFrames": 37,
        "frameRates": 60
      },
      {
        "trial_number": 67,
        "trial_index": 407,
        "rt": 485,
        "correct": true,
        "response": "ArrowRight",
        "congruent": true,
        "gazeTowards": true,
        "gazeCondition": "towards",
        "faceOnLeft": true,
        "impliedDirection": 0,
        "testDirection": 0,
        "avgFps": 60,
        "minFps": 58,
        "maxFps": 63,
        "totalFrames": 29,
        "frameRates": 60
      },
      {
        "trial_number": 68,
        "trial_index": 412,
        "rt": 550,
        "correct": true,
        "response": "ArrowRight",
        "congruent": false,
        "gazeTowards": false,
        "gazeCondition": "away",
        "faceOnLeft": false,
        "impliedDirection": 180,
        "testDirection": 0,
        "avgFps": 60,
        "minFps": 59,
        "maxFps": 62,
        "totalFrames": 33,
        "frameRates": 60
      },
      {
        "trial_number": 69,
        "trial_index": 417,
        "rt": 551,
        "correct": true,
        "response": "ArrowRight",
        "congruent": true,
        "gazeTowards": true,
        "gazeCondition": "towards",
        "faceOnLeft": true,
        "impliedDirection": 0,
        "testDirection": 0,
        "avgFps": 60,
        "minFps": 58,
        "maxFps": 63,
        "totalFrames": 33,
        "frameRates": 60
      },
      {
        "trial_number": 70,
        "trial_index": 422,
        "rt": 1400,
        "correct": true,
        "response": "ArrowRight",
        "congruent": true,
        "gazeTowards": false,
        "gazeCondition": "away",
        "faceOnLeft": true,
        "impliedDirection": 0,
        "testDirection": 0,
        "avgFps": 60,
        "minFps": 57,
        "maxFps": 63,
        "totalFrames": 84,
        "frameRates": 60
      },
      {
        "trial_number": 71,
        "trial_index": 427,
        "rt": 737,
        "correct": true,
        "response": "ArrowLeft",
        "congruent": false,
        "gazeTowards": false,
        "gazeCondition": "away",
        "faceOnLeft": true,
        "impliedDirection": 0,
        "testDirection": 180,
        "avgFps": 61,
        "minFps": 57,
        "maxFps": null,
        "totalFrames": 45,
        "frameRates": 61
      },
      {
        "trial_number": 72,
        "trial_index": 432,
        "rt": 696,
        "correct": true,
        "response": "ArrowLeft",
        "congruent": true,
        "gazeTowards": false,
        "gazeCondition": "away",
        "faceOnLeft": false,
        "impliedDirection": 180,
        "testDirection": 180,
        "avgFps": 60,
        "minFps": 59,
        "maxFps": 63,
        "totalFrames": 42,
        "frameRates": 60
      },
      {
        "trial_number": 73,
        "trial_index": 437,
        "rt": 761,
        "correct": true,
        "response": "ArrowRight",
        "congruent": false,
        "gazeTowards": false,
        "gazeCondition": "away",
        "faceOnLeft": false,
        "impliedDirection": 180,
        "testDirection": 0,
        "avgFps": 61,
        "minFps": 57,
        "maxFps": null,
        "totalFrames": 46,
        "frameRates": 61
      },
      {
        "trial_number": 74,
        "trial_index": 442,
        "rt": 646,
        "correct": true,
        "response": "ArrowLeft",
        "congruent": true,
        "gazeTowards": false,
        "gazeCondition": "away",
        "faceOnLeft": false,
        "impliedDirection": 180,
        "testDirection": 180,
        "avgFps": 60,
        "minFps": 58,
        "maxFps": 62,
        "totalFrames": 39,
        "frameRates": 60
      },
      {
        "trial_number": 75,
        "trial_index": 447,
        "rt": 716,
        "correct": true,
        "response": "ArrowRight",
        "congruent": true,
        "gazeTowards": true,
        "gazeCondition": "towards",
        "faceOnLeft": true,
        "impliedDirection": 0,
        "testDirection": 0,
        "avgFps": 60,
        "minFps": 58,
        "maxFps": 62,
        "totalFrames": 42,
        "frameRates": 60
      },
      {
        "trial_number": 76,
        "trial_index": 452,
        "rt": 1190,
        "correct": true,
        "response": "ArrowRight",
        "congruent": true,
        "gazeTowards": false,
        "gazeCondition": "away",
        "faceOnLeft": true,
        "impliedDirection": 0,
        "testDirection": 0,
        "avgFps": 60,
        "minFps": 58,
        "maxFps": 62,
        "totalFrames": 71,
        "frameRates": 60
      },
      {
        "trial_number": 77,
        "trial_index": 457,
        "rt": 690,
        "correct": true,
        "response": "ArrowRight",
        "congruent": false,
        "gazeTowards": true,
        "gazeCondition": "towards",
        "faceOnLeft": false,
        "impliedDirection": 180,
        "testDirection": 0,
        "avgFps": 60,
        "minFps": 57,
        "maxFps": 62,
        "totalFrames": 42,
        "frameRates": 60
      },
      {
        "trial_number": 78,
        "trial_index": 462,
        "rt": 672,
        "correct": true,
        "response": "ArrowRight",
        "congruent": true,
        "gazeTowards": false,
        "gazeCondition": "away",
        "faceOnLeft": true,
        "impliedDirection": 0,
        "testDirection": 0,
        "avgFps": 60,
        "minFps": 57,
        "maxFps": 64,
        "totalFrames": 41,
        "frameRates": 60
      },
      {
        "trial_number": 79,
        "trial_index": 467,
        "rt": 889,
        "correct": true,
        "response": "ArrowLeft",
        "congruent": false,
        "gazeTowards": true,
        "gazeCondition": "towards",
        "faceOnLeft": true,
        "impliedDirection": 0,
        "testDirection": 180,
        "avgFps": 60,
        "minFps": 58,
        "maxFps": 62,
        "totalFrames": 53,
        "frameRates": 60
      },
      {
        "trial_number": 80,
        "trial_index": 472,
        "rt": 679,
        "correct": true,
        "response": "ArrowLeft",
        "congruent": false,
        "gazeTowards": true,
        "gazeCondition": "towards",
        "faceOnLeft": true,
        "impliedDirection": 0,
        "testDirection": 180,
        "avgFps": 60,
        "minFps": 58,
        "maxFps": 62,
        "totalFrames": 40,
        "frameRates": 60
      },
      {
        "trial_number": 81,
        "trial_index": 477,
        "rt": 1156,
        "correct": true,
        "response": "ArrowLeft",
        "congruent": true,
        "gazeTowards": true,
        "gazeCondition": "towards",
        "faceOnLeft": false,
        "impliedDirection": 180,
        "testDirection": 180,
        "avgFps": 60,
        "minFps": 57,
        "maxFps": 63,
        "totalFrames": 69,
        "frameRates": 60
      },
      {
        "trial_number": 82,
        "trial_index": 488,
        "rt": 787,
        "correct": true,
        "response": "ArrowLeft",
        "congruent": false,
        "gazeTowards": false,
        "gazeCondition": "away",
        "faceOnLeft": true,
        "impliedDirection": 0,
        "testDirection": 180,
        "avgFps": 60,
        "minFps": 58,
        "maxFps": 63,
        "totalFrames": 47,
        "frameRates": 60
      },
      {
        "trial_number": 83,
        "trial_index": 493,
        "rt": 1228,
        "correct": true,
        "response": "ArrowRight",
        "congruent": true,
        "gazeTowards": true,
        "gazeCondition": "towards",
        "faceOnLeft": true,
        "impliedDirection": 0,
        "testDirection": 0,
        "avgFps": 60,
        "minFps": 58,
        "maxFps": 63,
        "totalFrames": 73,
        "frameRates": 60
      },
      {
        "trial_number": 84,
        "trial_index": 498,
        "rt": 978,
        "correct": true,
        "response": "ArrowRight",
        "congruent": false,
        "gazeTowards": true,
        "gazeCondition": "towards",
        "faceOnLeft": false,
        "impliedDirection": 180,
        "testDirection": 0,
        "avgFps": 60,
        "minFps": 58,
        "maxFps": 63,
        "totalFrames": 58,
        "frameRates": 60
      },
      {
        "trial_number": 85,
        "trial_index": 503,
        "rt": 878,
        "correct": true,
        "response": "ArrowRight",
        "congruent": true,
        "gazeTowards": false,
        "gazeCondition": "away",
        "faceOnLeft": true,
        "impliedDirection": 0,
        "testDirection": 0,
        "avgFps": 60,
        "minFps": 58,
        "maxFps": 66,
        "totalFrames": 53,
        "frameRates": 60
      },
      {
        "trial_number": 86,
        "trial_index": 508,
        "rt": 752,
        "correct": true,
        "response": "ArrowLeft",
        "congruent": false,
        "gazeTowards": true,
        "gazeCondition": "towards",
        "faceOnLeft": true,
        "impliedDirection": 0,
        "testDirection": 180,
        "avgFps": 60,
        "minFps": 58,
        "maxFps": 63,
        "totalFrames": 45,
        "frameRates": 60
      },
      {
        "trial_number": 87,
        "trial_index": 513,
        "rt": 997,
        "correct": true,
        "response": "ArrowLeft",
        "congruent": false,
        "gazeTowards": true,
        "gazeCondition": "towards",
        "faceOnLeft": true,
        "impliedDirection": 0,
        "testDirection": 180,
        "avgFps": 60,
        "minFps": 58,
        "maxFps": 62,
        "totalFrames": 59,
        "frameRates": 60
      },
      {
        "trial_number": 88,
        "trial_index": 518,
        "rt": 655,
        "correct": true,
        "response": "ArrowLeft",
        "congruent": false,
        "gazeTowards": false,
        "gazeCondition": "away",
        "faceOnLeft": true,
        "impliedDirection": 0,
        "testDirection": 180,
        "avgFps": 60,
        "minFps": 58,
        "maxFps": 62,
        "totalFrames": 39,
        "frameRates": 60
      },
      {
        "trial_number": 89,
        "trial_index": 523,
        "rt": 702,
        "correct": true,
        "response": "ArrowLeft",
        "congruent": false,
        "gazeTowards": true,
        "gazeCondition": "towards",
        "faceOnLeft": true,
        "impliedDirection": 0,
        "testDirection": 180,
        "avgFps": 60,
        "minFps": 58,
        "maxFps": 63,
        "totalFrames": 42,
        "frameRates": 60
      },
      {
        "trial_number": 90,
        "trial_index": 529,
        "rt": 712,
        "correct": true,
        "response": "ArrowLeft",
        "congruent": false,
        "gazeTowards": true,
        "gazeCondition": "towards",
        "faceOnLeft": true,
        "impliedDirection": 0,
        "testDirection": 180,
        "avgFps": 60,
        "minFps": 58,
        "maxFps": 65,
        "totalFrames": 43,
        "frameRates": 60
      },
      {
        "trial_number": 91,
        "trial_index": 534,
        "rt": 867,
        "correct": true,
        "response": "ArrowLeft",
        "congruent": false,
        "gazeTowards": false,
        "gazeCondition": "away",
        "faceOnLeft": true,
        "impliedDirection": 0,
        "testDirection": 180,
        "avgFps": 60,
        "minFps": 58,
        "maxFps": 64,
        "totalFrames": 52,
        "frameRates": 60
      },
      {
        "trial_number": 92,
        "trial_index": 542,
        "rt": 928,
        "correct": true,
        "response": "ArrowLeft",
        "congruent": true,
        "gazeTowards": false,
        "gazeCondition": "away",
        "faceOnLeft": false,
        "impliedDirection": 180,
        "testDirection": 180,
        "avgFps": 60,
        "minFps": 58,
        "maxFps": 63,
        "totalFrames": 55,
        "frameRates": 60
      },
      {
        "trial_number": 93,
        "trial_index": 547,
        "rt": 1018,
        "correct": true,
        "response": "ArrowLeft",
        "congruent": true,
        "gazeTowards": true,
        "gazeCondition": "towards",
        "faceOnLeft": false,
        "impliedDirection": 180,
        "testDirection": 180,
        "avgFps": 60,
        "minFps": 58,
        "maxFps": 62,
        "totalFrames": 61,
        "frameRates": 60
      },
      {
        "trial_number": 94,
        "trial_index": 552,
        "rt": 1284,
        "correct": true,
        "response": "ArrowLeft",
        "congruent": true,
        "gazeTowards": false,
        "gazeCondition": "away",
        "faceOnLeft": false,
        "impliedDirection": 180,
        "testDirection": 180,
        "avgFps": 60,
        "minFps": 58,
        "maxFps": 62,
        "totalFrames": 76,
        "frameRates": 60
      },
      {
        "trial_number": 95,
        "trial_index": 557,
        "rt": 779,
        "correct": true,
        "response": "ArrowRight",
        "congruent": false,
        "gazeTowards": false,
        "gazeCondition": "away",
        "faceOnLeft": false,
        "impliedDirection": 180,
        "testDirection": 0,
        "avgFps": 60,
        "minFps": 58,
        "maxFps": 62,
        "totalFrames": 47,
        "frameRates": 60
      },
      {
        "trial_number": 96,
        "trial_index": 565,
        "rt": 888,
        "correct": true,
        "response": "ArrowLeft",
        "congruent": false,
        "gazeTowards": true,
        "gazeCondition": "towards",
        "faceOnLeft": true,
        "impliedDirection": 0,
        "testDirection": 180,
        "avgFps": 60,
        "minFps": 57,
        "maxFps": 62,
        "totalFrames": 53,
        "frameRates": 60
      },
      {
        "trial_number": 97,
        "trial_index": 570,
        "rt": 1072,
        "correct": true,
        "response": "ArrowRight",
        "congruent": true,
        "gazeTowards": true,
        "gazeCondition": "towards",
        "faceOnLeft": true,
        "impliedDirection": 0,
        "testDirection": 0,
        "avgFps": 60,
        "minFps": 58,
        "maxFps": 62,
        "totalFrames": 64,
        "frameRates": 60
      },
      {
        "trial_number": 98,
        "trial_index": 575,
        "rt": 1709,
        "correct": true,
        "response": "ArrowRight",
        "congruent": false,
        "gazeTowards": false,
        "gazeCondition": "away",
        "faceOnLeft": false,
        "impliedDirection": 180,
        "testDirection": 0,
        "avgFps": 60,
        "minFps": 57,
        "maxFps": 62,
        "totalFrames": 103,
        "frameRates": 60
      },
      {
        "trial_number": 99,
        "trial_index": 580,
        "rt": 965,
        "correct": true,
        "response": "ArrowLeft",
        "congruent": true,
        "gazeTowards": false,
        "gazeCondition": "away",
        "faceOnLeft": false,
        "impliedDirection": 180,
        "testDirection": 180,
        "avgFps": 60,
        "minFps": 58,
        "maxFps": 62,
        "totalFrames": 57,
        "frameRates": 60
      },
      {
        "trial_number": 100,
        "trial_index": 585,
        "rt": 1215,
        "correct": true,
        "response": "ArrowLeft",
        "congruent": true,
        "gazeTowards": true,
        "gazeCondition": "towards",
        "faceOnLeft": false,
        "impliedDirection": 180,
        "testDirection": 180,
        "avgFps": 60,
        "minFps": 58,
        "maxFps": 63,
        "totalFrames": 73,
        "frameRates": 60
      },
      {
        "trial_number": 101,
        "trial_index": 590,
        "rt": 1305,
        "correct": true,
        "response": "ArrowLeft",
        "congruent": false,
        "gazeTowards": false,
        "gazeCondition": "away",
        "faceOnLeft": true,
        "impliedDirection": 0,
        "testDirection": 180,
        "avgFps": 60,
        "minFps": 58,
        "maxFps": 62,
        "totalFrames": 78,
        "frameRates": 60
      },
      {
        "trial_number": 102,
        "trial_index": 595,
        "rt": 761,
        "correct": true,
        "response": "ArrowRight",
        "congruent": true,
        "gazeTowards": false,
        "gazeCondition": "away",
        "faceOnLeft": true,
        "impliedDirection": 0,
        "testDirection": 0,
        "avgFps": 60,
        "minFps": 58,
        "maxFps": 63,
        "totalFrames": 46,
        "frameRates": 60
      },
      {
        "trial_number": 103,
        "trial_index": 600,
        "rt": 901,
        "correct": true,
        "response": "ArrowRight",
        "congruent": true,
        "gazeTowards": true,
        "gazeCondition": "towards",
        "faceOnLeft": true,
        "impliedDirection": 0,
        "testDirection": 0,
        "avgFps": 60,
        "minFps": 57,
        "maxFps": 62,
        "totalFrames": 54,
        "frameRates": 60
      },
      {
        "trial_number": 104,
        "trial_index": 605,
        "rt": 910,
        "correct": true,
        "response": "ArrowRight",
        "congruent": false,
        "gazeTowards": false,
        "gazeCondition": "away",
        "faceOnLeft": false,
        "impliedDirection": 180,
        "testDirection": 0,
        "avgFps": 60,
        "minFps": 57,
        "maxFps": 63,
        "totalFrames": 55,
        "frameRates": 60
      },
      {
        "trial_number": 105,
        "trial_index": 610,
        "rt": 1121,
        "correct": true,
        "response": "ArrowRight",
        "congruent": true,
        "gazeTowards": true,
        "gazeCondition": "towards",
        "faceOnLeft": true,
        "impliedDirection": 0,
        "testDirection": 0,
        "avgFps": 59,
        "minFps": 30,
        "maxFps": 62,
        "totalFrames": 67,
        "frameRates": 59
      },
      {
        "trial_number": 106,
        "trial_index": 615,
        "rt": 1217,
        "correct": true,
        "response": "ArrowLeft",
        "congruent": false,
        "gazeTowards": true,
        "gazeCondition": "towards",
        "faceOnLeft": true,
        "impliedDirection": 0,
        "testDirection": 180,
        "avgFps": 60,
        "minFps": 58,
        "maxFps": 64,
        "totalFrames": 73,
        "frameRates": 60
      },
      {
        "trial_number": 107,
        "trial_index": 620,
        "rt": 1396,
        "correct": true,
        "response": "ArrowLeft",
        "congruent": true,
        "gazeTowards": true,
        "gazeCondition": "towards",
        "faceOnLeft": false,
        "impliedDirection": 180,
        "testDirection": 180,
        "avgFps": 60,
        "minFps": 58,
        "maxFps": 63,
        "totalFrames": 84,
        "frameRates": 60
      },
      {
        "trial_number": 108,
        "trial_index": 625,
        "rt": 1188,
        "correct": true,
        "response": "ArrowLeft",
        "congruent": true,
        "gazeTowards": true,
        "gazeCondition": "towards",
        "faceOnLeft": false,
        "impliedDirection": 180,
        "testDirection": 180,
        "avgFps": 60,
        "minFps": 57,
        "maxFps": 64,
        "totalFrames": 71,
        "frameRates": 60
      },
      {
        "trial_number": 109,
        "trial_index": 630,
        "rt": 1279,
        "correct": true,
        "response": "ArrowRight",
        "congruent": false,
        "gazeTowards": false,
        "gazeCondition": "away",
        "faceOnLeft": false,
        "impliedDirection": 180,
        "testDirection": 0,
        "avgFps": 60,
        "minFps": 58,
        "maxFps": 63,
        "totalFrames": 76,
        "frameRates": 60
      },
      {
        "trial_number": 110,
        "trial_index": 635,
        "rt": 849,
        "correct": true,
        "response": "ArrowLeft",
        "congruent": true,
        "gazeTowards": true,
        "gazeCondition": "towards",
        "faceOnLeft": false,
        "impliedDirection": 180,
        "testDirection": 180,
        "avgFps": 60,
        "minFps": 58,
        "maxFps": 63,
        "totalFrames": 51,
        "frameRates": 60
      },
      {
        "trial_number": 111,
        "trial_index": 640,
        "rt": 1142,
        "correct": true,
        "response": "ArrowRight",
        "congruent": false,
        "gazeTowards": false,
        "gazeCondition": "away",
        "faceOnLeft": false,
        "impliedDirection": 180,
        "testDirection": 0,
        "avgFps": 60,
        "minFps": 58,
        "maxFps": 63,
        "totalFrames": 69,
        "frameRates": 60
      },
      {
        "trial_number": 112,
        "trial_index": 645,
        "rt": 848,
        "correct": true,
        "response": "ArrowLeft",
        "congruent": false,
        "gazeTowards": true,
        "gazeCondition": "towards",
        "faceOnLeft": true,
        "impliedDirection": 0,
        "testDirection": 180,
        "avgFps": 60,
        "minFps": 58,
        "maxFps": 63,
        "totalFrames": 49,
        "frameRates": 60
      },
      {
        "trial_number": 113,
        "trial_index": 650,
        "rt": 976,
        "correct": true,
        "response": "ArrowRight",
        "congruent": false,
        "gazeTowards": false,
        "gazeCondition": "away",
        "faceOnLeft": false,
        "impliedDirection": 180,
        "testDirection": 0,
        "avgFps": 60,
        "minFps": 58,
        "maxFps": 61,
        "totalFrames": 58,
        "frameRates": 60
      },
      {
        "trial_number": 114,
        "trial_index": 655,
        "rt": 1409,
        "correct": true,
        "response": "ArrowLeft",
        "congruent": true,
        "gazeTowards": false,
        "gazeCondition": "away",
        "faceOnLeft": false,
        "impliedDirection": 180,
        "testDirection": 180,
        "avgFps": 59,
        "minFps": 30,
        "maxFps": 63,
        "totalFrames": 84,
        "frameRates": 59
      },
      {
        "trial_number": 115,
        "trial_index": 660,
        "rt": 1152,
        "correct": true,
        "response": "ArrowLeft",
        "congruent": false,
        "gazeTowards": true,
        "gazeCondition": "towards",
        "faceOnLeft": true,
        "impliedDirection": 0,
        "testDirection": 180,
        "avgFps": 60,
        "minFps": 57,
        "maxFps": 63,
        "totalFrames": 69,
        "frameRates": 60
      },
      {
        "trial_number": 116,
        "trial_index": 665,
        "rt": 1139,
        "correct": true,
        "response": "ArrowRight",
        "congruent": false,
        "gazeTowards": false,
        "gazeCondition": "away",
        "faceOnLeft": false,
        "impliedDirection": 180,
        "testDirection": 0,
        "avgFps": 60,
        "minFps": 58,
        "maxFps": 66,
        "totalFrames": 69,
        "frameRates": 60
      },
      {
        "trial_number": 117,
        "trial_index": 673,
        "rt": 999,
        "correct": true,
        "response": "ArrowLeft",
        "congruent": true,
        "gazeTowards": false,
        "gazeCondition": "away",
        "faceOnLeft": false,
        "impliedDirection": 180,
        "testDirection": 180,
        "avgFps": 60,
        "minFps": 58,
        "maxFps": 64,
        "totalFrames": 60,
        "frameRates": 60
      },
      {
        "trial_number": 118,
        "trial_index": 678,
        "rt": 939,
        "correct": true,
        "response": "ArrowLeft",
        "congruent": true,
        "gazeTowards": false,
        "gazeCondition": "away",
        "faceOnLeft": false,
        "impliedDirection": 180,
        "testDirection": 180,
        "avgFps": 60,
        "minFps": 58,
        "maxFps": 64,
        "totalFrames": 57,
        "frameRates": 60
      },
      {
        "trial_number": 119,
        "trial_index": 683,
        "rt": 840,
        "correct": true,
        "response": "ArrowLeft",
        "congruent": false,
        "gazeTowards": true,
        "gazeCondition": "towards",
        "faceOnLeft": true,
        "impliedDirection": 0,
        "testDirection": 180,
        "avgFps": 60,
        "minFps": 58,
        "maxFps": 62,
        "totalFrames": 50,
        "frameRates": 60
      }
    ],
    "catch": {
      "total": 12,
      "correct": 12,
      "accuracy": 100,
      "meanRT": 770,
      "trials": [
        {
          "trial_number": 0,
          "trial_index": 58,
          "rt": 910,
          "correct": true,
          "colorTarget": "tree",
          "gazeTowards": false,
          "gazeCondition": "away",
          "faceOnLeft": false
        },
        {
          "trial_number": 1,
          "trial_index": 186,
          "rt": 916,
          "correct": true,
          "colorTarget": "tree",
          "gazeTowards": false,
          "gazeCondition": "away",
          "faceOnLeft": false
        },
        {
          "trial_number": 2,
          "trial_index": 194,
          "rt": 592,
          "correct": true,
          "colorTarget": "tree",
          "gazeTowards": true,
          "gazeCondition": "towards",
          "faceOnLeft": true
        },
        {
          "trial_number": 3,
          "trial_index": 268,
          "rt": 1053,
          "correct": true,
          "colorTarget": "face",
          "gazeTowards": false,
          "gazeCondition": "away",
          "faceOnLeft": true
        },
        {
          "trial_number": 4,
          "trial_index": 286,
          "rt": 875,
          "correct": true,
          "colorTarget": "face",
          "gazeTowards": true,
          "gazeCondition": "towards",
          "faceOnLeft": true
        },
        {
          "trial_number": 5,
          "trial_index": 299,
          "rt": 729,
          "correct": true,
          "colorTarget": "face",
          "gazeTowards": false,
          "gazeCondition": "away",
          "faceOnLeft": false
        },
        {
          "trial_number": 6,
          "trial_index": 383,
          "rt": 724,
          "correct": true,
          "colorTarget": "tree",
          "gazeTowards": true,
          "gazeCondition": "towards",
          "faceOnLeft": true
        },
        {
          "trial_number": 7,
          "trial_index": 481,
          "rt": 656,
          "correct": true,
          "colorTarget": "face",
          "gazeTowards": false,
          "gazeCondition": "away",
          "faceOnLeft": true
        },
        {
          "trial_number": 8,
          "trial_index": 484,
          "rt": 680,
          "correct": true,
          "colorTarget": "face",
          "gazeTowards": false,
          "gazeCondition": "away",
          "faceOnLeft": true
        },
        {
          "trial_number": 9,
          "trial_index": 538,
          "rt": 787,
          "correct": true,
          "colorTarget": "face",
          "gazeTowards": true,
          "gazeCondition": "towards",
          "faceOnLeft": false
        },
        {
          "trial_number": 10,
          "trial_index": 561,
          "rt": 680,
          "correct": true,
          "colorTarget": "tree",
          "gazeTowards": false,
          "gazeCondition": "away",
          "faceOnLeft": true
        },
        {
          "trial_number": 11,
          "trial_index": 669,
          "rt": 633,
          "correct": true,
          "colorTarget": "tree",
          "gazeTowards": true,
          "gazeCondition": "towards",
          "faceOnLeft": false
        }
      ]
    },
    "practice": {
      "trials": [
        {
          "trial_number": 0,
          "rt": null,
          "correct": false,
          "direction": 0
        },
        {
          "trial_number": 1,
          "rt": 1098,
          "correct": true,
          "direction": 0
        },
        {
          "trial_number": 2,
          "rt": 1451,
          "correct": true,
          "direction": 0
        },
        {
          "trial_number": 3,
          "rt": 1124,
          "correct": true,
          "direction": 180
        },
        {
          "trial_number": 4,
          "rt": null,
          "correct": false,
          "direction": 180
        },
        {
          "trial_number": 5,
          "rt": 1294,
          "correct": true,
          "direction": 0
        },
        {
          "trial_number": 6,
          "rt": 1713,
          "correct": true,
          "direction": 0
        },
        {
          "trial_number": 7,
          "rt": 1058,
          "correct": true,
          "direction": 180
        },
        {
          "trial_number": 8,
          "rt": 897,
          "correct": true,
          "direction": 180
        },
        {
          "trial_number": 9,
          "rt": 1531,
          "correct": true,
          "direction": 0
        }
      ],
      "meanRT": 1271,
      "accuracy": 80
    }
  }
}