{
  "experiment": "rdk-face-1",
  "UUID": "0146fec3-ad2b-449d-a469-c3508f6f8b87",
  "data": {
    "session": {
      "experiment_version": "1.8.6",
      "treatment": "faces_towards_away_catch",
      "file_version": "1.8.6",
      "totalTrials": 120,
      "totalTrialsIncludingCatch": 132,
      "conditions": {
        "gazeTowardsCount": 60,
        "gazeAwayCount": 60,
        "gazeTowardsAccuracy": 98,
        "gazeAwayAccuracy": 95
      },
      "session_group": "default",
      "browserData": {
        "os": "Windows",
        "browser": "Chrome",
        "screenResolution": "1280x800",
        "browserViewport": "1280x800",
        "devicePixelRatio": 1.5,
        "colorDepth": 32,
        "hardwareConcurrency": 8,
        "deviceMemory": 8,
        "gpuRenderer": "ANGLE (Intel, Intel(R) Arc(TM) 130V GPU (8GB) (0x000064A0) Direct3D11 vs_5_0 ps_5_0, D3D11)",
        "measuredRefreshRateHz": 25
      },
      "attention": {
        "visibilityEvents": [
          {
            "event": "blur",
            "state": "blurred",
            "timestamp": 1772772305460
          },
          {
            "event": "visibilitychange",
            "state": "hidden",
            "timestamp": 1772772305467
          },
          {
            "event": "visibilitychange",
            "state": "visible",
            "timestamp": 1772772306287
          },
          {
            "event": "focus",
            "state": "focused",
            "timestamp": 1772772306292
          },
          {
            "event": "blur",
            "state": "blurred",
            "timestamp": 1772772346827
          },
          {
            "event": "focus",
            "state": "focused",
            "timestamp": 1772772347254
          }
        ]
      },
      "calibration": {
        "monitorWidthCm": 38,
        "viewingDistanceCm": 54,
        "pixelsPerDegree": 50
      },
      "parameters": {
        "coherence": 0.4,
        "apertureDeg": 5,
        "densityDotsPerDeg2": 40,
        "dotDiameterDeg": 0.035,
        "dotSpeedDegPerSec": 3,
        "lifetimeMs": 200,
        "fixationDurationMs": 1500,
        "faceDurationMs": 1500,
        "testDurationMs": 2000,
        "catchResponseMs": 3000
      },
      "prolific": {
        "prolificPid": "5e79b84d4633bc575ddb3812",
        "studyId": "",
        "sessionId": ""
      },
      "timing": {
        "startTime": "2026-03-06T04:45:05.070Z",
        "endTime": "2026-03-06T04:58:34.519Z",
        "totalElapsedTimeMs": 809449
      }
    },
    "trials": [
      {
        "trial_number": 0,
        "trial_index": 49,
        "rt": 839,
        "correct": true,
        "response": "ArrowLeft",
        "congruent": true,
        "gazeTowards": true,
        "gazeCondition": "towards",
        "faceOnLeft": false,
        "impliedDirection": 180,
        "testDirection": 180,
        "avgFps": 60,
        "minFps": 55,
        "maxFps": 67,
        "totalFrames": 50,
        "frameRates": 60
      },
      {
        "trial_number": 1,
        "trial_index": 54,
        "rt": 877,
        "correct": true,
        "response": "ArrowLeft",
        "congruent": true,
        "gazeTowards": true,
        "gazeCondition": "towards",
        "faceOnLeft": false,
        "impliedDirection": 180,
        "testDirection": 180,
        "avgFps": 61,
        "minFps": 59,
        "maxFps": null,
        "totalFrames": 53,
        "frameRates": 61
      },
      {
        "trial_number": 2,
        "trial_index": 59,
        "rt": 1035,
        "correct": false,
        "response": "ArrowRight",
        "congruent": true,
        "gazeTowards": false,
        "gazeCondition": "away",
        "faceOnLeft": false,
        "impliedDirection": 180,
        "testDirection": 180,
        "avgFps": 60,
        "minFps": 53,
        "maxFps": 68,
        "totalFrames": 62,
        "frameRates": 60
      },
      {
        "trial_number": 3,
        "trial_index": 67,
        "rt": 920,
        "correct": false,
        "response": "ArrowRight",
        "congruent": false,
        "gazeTowards": true,
        "gazeCondition": "towards",
        "faceOnLeft": true,
        "impliedDirection": 0,
        "testDirection": 180,
        "avgFps": 60,
        "minFps": 54,
        "maxFps": 65,
        "totalFrames": 55,
        "frameRates": 60
      },
      {
        "trial_number": 4,
        "trial_index": 72,
        "rt": 988,
        "correct": true,
        "response": "ArrowRight",
        "congruent": true,
        "gazeTowards": false,
        "gazeCondition": "away",
        "faceOnLeft": true,
        "impliedDirection": 0,
        "testDirection": 0,
        "avgFps": 60,
        "minFps": 44,
        "maxFps": 97,
        "totalFrames": 59,
        "frameRates": 60
      },
      {
        "trial_number": 5,
        "trial_index": 77,
        "rt": 898,
        "correct": true,
        "response": "ArrowLeft",
        "congruent": true,
        "gazeTowards": true,
        "gazeCondition": "towards",
        "faceOnLeft": false,
        "impliedDirection": 180,
        "testDirection": 180,
        "avgFps": 60,
        "minFps": 59,
        "maxFps": 62,
        "totalFrames": 54,
        "frameRates": 60
      },
      {
        "trial_number": 6,
        "trial_index": 82,
        "rt": 981,
        "correct": true,
        "response": "ArrowRight",
        "congruent": false,
        "gazeTowards": false,
        "gazeCondition": "away",
        "faceOnLeft": false,
        "impliedDirection": 180,
        "testDirection": 0,
        "avgFps": 60,
        "minFps": 58,
        "maxFps": 63,
        "totalFrames": 59,
        "frameRates": 60
      },
      {
        "trial_number": 7,
        "trial_index": 87,
        "rt": 1010,
        "correct": false,
        "response": "ArrowLeft",
        "congruent": true,
        "gazeTowards": false,
        "gazeCondition": "away",
        "faceOnLeft": true,
        "impliedDirection": 0,
        "testDirection": 0,
        "avgFps": 60,
        "minFps": 54,
        "maxFps": 68,
        "totalFrames": 61,
        "frameRates": 60
      },
      {
        "trial_number": 8,
        "trial_index": 92,
        "rt": 1136,
        "correct": true,
        "response": "ArrowLeft",
        "congruent": true,
        "gazeTowards": true,
        "gazeCondition": "towards",
        "faceOnLeft": false,
        "impliedDirection": 180,
        "testDirection": 180,
        "avgFps": 60,
        "minFps": 58,
        "maxFps": 62,
        "totalFrames": 68,
        "frameRates": 60
      },
      {
        "trial_number": 9,
        "trial_index": 100,
        "rt": 1104,
        "correct": true,
        "response": "ArrowLeft",
        "congruent": true,
        "gazeTowards": true,
        "gazeCondition": "towards",
        "faceOnLeft": false,
        "impliedDirection": 180,
        "testDirection": 180,
        "avgFps": 60,
        "minFps": 58,
        "maxFps": 62,
        "totalFrames": 66,
        "frameRates": 60
      },
      {
        "trial_number": 10,
        "trial_index": 105,
        "rt": 432,
        "correct": true,
        "response": "ArrowRight",
        "congruent": false,
        "gazeTowards": false,
        "gazeCondition": "away",
        "faceOnLeft": false,
        "impliedDirection": 180,
        "testDirection": 0,
        "avgFps": 60,
        "minFps": 58,
        "maxFps": 63,
        "totalFrames": 26,
        "frameRates": 60
      },
      {
        "trial_number": 11,
        "trial_index": 110,
        "rt": 475,
        "correct": true,
        "response": "ArrowLeft",
        "congruent": false,
        "gazeTowards": true,
        "gazeCondition": "towards",
        "faceOnLeft": true,
        "impliedDirection": 0,
        "testDirection": 180,
        "avgFps": 60,
        "minFps": 58,
        "maxFps": 66,
        "totalFrames": 29,
        "frameRates": 60
      },
      {
        "trial_number": 12,
        "trial_index": 115,
        "rt": 668,
        "correct": true,
        "response": "ArrowRight",
        "congruent": false,
        "gazeTowards": true,
        "gazeCondition": "towards",
        "faceOnLeft": false,
        "impliedDirection": 180,
        "testDirection": 0,
        "avgFps": 60,
        "minFps": 59,
        "maxFps": 61,
        "totalFrames": 40,
        "frameRates": 60
      },
      {
        "trial_number": 13,
        "trial_index": 120,
        "rt": 668,
        "correct": true,
        "response": "ArrowRight",
        "congruent": false,
        "gazeTowards": true,
        "gazeCondition": "towards",
        "faceOnLeft": false,
        "impliedDirection": 180,
        "testDirection": 0,
        "avgFps": 60,
        "minFps": 57,
        "maxFps": 64,
        "totalFrames": 40,
        "frameRates": 60
      },
      {
        "trial_number": 14,
        "trial_index": 125,
        "rt": 566,
        "correct": true,
        "response": "ArrowLeft",
        "congruent": false,
        "gazeTowards": false,
        "gazeCondition": "away",
        "faceOnLeft": true,
        "impliedDirection": 0,
        "testDirection": 180,
        "avgFps": 60,
        "minFps": 57,
        "maxFps": 64,
        "totalFrames": 34,
        "frameRates": 60
      },
      {
        "trial_number": 15,
        "trial_index": 130,
        "rt": 613,
        "correct": true,
        "response": "ArrowLeft",
        "congruent": false,
        "gazeTowards": false,
        "gazeCondition": "away",
        "faceOnLeft": true,
        "impliedDirection": 0,
        "testDirection": 180,
        "avgFps": 60,
        "minFps": 52,
        "maxFps": 74,
        "totalFrames": 37,
        "frameRates": 60
      },
      {
        "trial_number": 16,
        "trial_index": 135,
        "rt": 750,
        "correct": true,
        "response": "ArrowLeft",
        "congruent": true,
        "gazeTowards": false,
        "gazeCondition": "away",
        "faceOnLeft": false,
        "impliedDirection": 180,
        "testDirection": 180,
        "avgFps": 60,
        "minFps": 57,
        "maxFps": 64,
        "totalFrames": 44,
        "frameRates": 60
      },
      {
        "trial_number": 17,
        "trial_index": 140,
        "rt": 501,
        "correct": true,
        "response": "ArrowRight",
        "congruent": false,
        "gazeTowards": false,
        "gazeCondition": "away",
        "faceOnLeft": false,
        "impliedDirection": 180,
        "testDirection": 0,
        "avgFps": 60,
        "minFps": 59,
        "maxFps": 63,
        "totalFrames": 30,
        "frameRates": 60
      },
      {
        "trial_number": 18,
        "trial_index": 148,
        "rt": 634,
        "correct": true,
        "response": "ArrowRight",
        "congruent": true,
        "gazeTowards": true,
        "gazeCondition": "towards",
        "faceOnLeft": true,
        "impliedDirection": 0,
        "testDirection": 0,
        "avgFps": 60,
        "minFps": 58,
        "maxFps": 62,
        "totalFrames": 38,
        "frameRates": 60
      },
      {
        "trial_number": 19,
        "trial_index": 153,
        "rt": 559,
        "correct": true,
        "response": "ArrowLeft",
        "congruent": false,
        "gazeTowards": true,
        "gazeCondition": "towards",
        "faceOnLeft": true,
        "impliedDirection": 0,
        "testDirection": 180,
        "avgFps": 60,
        "minFps": 56,
        "maxFps": 66,
        "totalFrames": 33,
        "frameRates": 60
      },
      {
        "trial_number": 20,
        "trial_index": 158,
        "rt": 935,
        "correct": true,
        "response": "ArrowLeft",
        "congruent": false,
        "gazeTowards": false,
        "gazeCondition": "away",
        "faceOnLeft": true,
        "impliedDirection": 0,
        "testDirection": 180,
        "avgFps": 60,
        "minFps": 59,
        "maxFps": 63,
        "totalFrames": 56,
        "frameRates": 60
      },
      {
        "trial_number": 21,
        "trial_index": 163,
        "rt": 747,
        "correct": false,
        "response": "ArrowRight",
        "congruent": false,
        "gazeTowards": false,
        "gazeCondition": "away",
        "faceOnLeft": true,
        "impliedDirection": 0,
        "testDirection": 180,
        "avgFps": 60,
        "minFps": 56,
        "maxFps": 63,
        "totalFrames": 45,
        "frameRates": 60
      },
      {
        "trial_number": 22,
        "trial_index": 168,
        "rt": 578,
        "correct": true,
        "response": "ArrowRight",
        "congruent": false,
        "gazeTowards": false,
        "gazeCondition": "away",
        "faceOnLeft": false,
        "impliedDirection": 180,
        "testDirection": 0,
        "avgFps": 60,
        "minFps": 59,
        "maxFps": 63,
        "totalFrames": 35,
        "frameRates": 60
      },
      {
        "trial_number": 23,
        "trial_index": 173,
        "rt": 428,
        "correct": true,
        "response": "ArrowRight",
        "congruent": false,
        "gazeTowards": false,
        "gazeCondition": "away",
        "faceOnLeft": false,
        "impliedDirection": 180,
        "testDirection": 0,
        "avgFps": 60,
        "minFps": 54,
        "maxFps": 68,
        "totalFrames": 26,
        "frameRates": 60
      },
      {
        "trial_number": 24,
        "trial_index": 178,
        "rt": 827,
        "correct": true,
        "response": "ArrowRight",
        "congruent": false,
        "gazeTowards": true,
        "gazeCondition": "towards",
        "faceOnLeft": false,
        "impliedDirection": 180,
        "testDirection": 0,
        "avgFps": 60,
        "minFps": 52,
        "maxFps": 72,
        "totalFrames": 49,
        "frameRates": 60
      },
      {
        "trial_number": 25,
        "trial_index": 183,
        "rt": 752,
        "correct": true,
        "response": "ArrowRight",
        "congruent": true,
        "gazeTowards": true,
        "gazeCondition": "towards",
        "faceOnLeft": true,
        "impliedDirection": 0,
        "testDirection": 0,
        "avgFps": 60,
        "minFps": 58,
        "maxFps": 61,
        "totalFrames": 45,
        "frameRates": 60
      },
      {
        "trial_number": 26,
        "trial_index": 188,
        "rt": 780,
        "correct": true,
        "response": "ArrowRight",
        "congruent": false,
        "gazeTowards": false,
        "gazeCondition": "away",
        "faceOnLeft": false,
        "impliedDirection": 180,
        "testDirection": 0,
        "avgFps": 60,
        "minFps": 58,
        "maxFps": 62,
        "totalFrames": 47,
        "frameRates": 60
      },
      {
        "trial_number": 27,
        "trial_index": 193,
        "rt": 1154,
        "correct": true,
        "response": "ArrowRight",
        "congruent": true,
        "gazeTowards": false,
        "gazeCondition": "away",
        "faceOnLeft": true,
        "impliedDirection": 0,
        "testDirection": 0,
        "avgFps": 60,
        "minFps": 56,
        "maxFps": 66,
        "totalFrames": 69,
        "frameRates": 60
      },
      {
        "trial_number": 28,
        "trial_index": 198,
        "rt": 1878,
        "correct": true,
        "response": "ArrowRight",
        "congruent": true,
        "gazeTowards": false,
        "gazeCondition": "away",
        "faceOnLeft": true,
        "impliedDirection": 0,
        "testDirection": 0,
        "avgFps": 60,
        "minFps": 50,
        "maxFps": 74,
        "totalFrames": 113,
        "frameRates": 60
      },
      {
        "trial_number": 29,
        "trial_index": 203,
        "rt": 813,
        "correct": true,
        "response": "ArrowLeft",
        "congruent": false,
        "gazeTowards": false,
        "gazeCondition": "away",
        "faceOnLeft": true,
        "impliedDirection": 0,
        "testDirection": 180,
        "avgFps": 60,
        "minFps": 58,
        "maxFps": 62,
        "totalFrames": 49,
        "frameRates": 60
      },
      {
        "trial_number": 30,
        "trial_index": 209,
        "rt": 1014,
        "correct": true,
        "response": "ArrowLeft",
        "congruent": false,
        "gazeTowards": false,
        "gazeCondition": "away",
        "faceOnLeft": true,
        "impliedDirection": 0,
        "testDirection": 180,
        "avgFps": 60,
        "minFps": 54,
        "maxFps": 68,
        "totalFrames": 61,
        "frameRates": 60
      },
      {
        "trial_number": 31,
        "trial_index": 214,
        "rt": 637,
        "correct": true,
        "response": "ArrowLeft",
        "congruent": true,
        "gazeTowards": true,
        "gazeCondition": "towards",
        "faceOnLeft": false,
        "impliedDirection": 180,
        "testDirection": 180,
        "avgFps": 60,
        "minFps": 59,
        "maxFps": 63,
        "totalFrames": 38,
        "frameRates": 60
      },
      {
        "trial_number": 32,
        "trial_index": 219,
        "rt": 942,
        "correct": true,
        "response": "ArrowLeft",
        "congruent": false,
        "gazeTowards": true,
        "gazeCondition": "towards",
        "faceOnLeft": true,
        "impliedDirection": 0,
        "testDirection": 180,
        "avgFps": 60,
        "minFps": 55,
        "maxFps": 68,
        "totalFrames": 57,
        "frameRates": 60
      },
      {
        "trial_number": 33,
        "trial_index": 224,
        "rt": 1063,
        "correct": true,
        "response": "ArrowLeft",
        "congruent": true,
        "gazeTowards": false,
        "gazeCondition": "away",
        "faceOnLeft": false,
        "impliedDirection": 180,
        "testDirection": 180,
        "avgFps": 60,
        "minFps": 54,
        "maxFps": 69,
        "totalFrames": 64,
        "frameRates": 60
      },
      {
        "trial_number": 34,
        "trial_index": 229,
        "rt": 566,
        "correct": true,
        "response": "ArrowRight",
        "congruent": true,
        "gazeTowards": true,
        "gazeCondition": "towards",
        "faceOnLeft": true,
        "impliedDirection": 0,
        "testDirection": 0,
        "avgFps": 60,
        "minFps": 55,
        "maxFps": 66,
        "totalFrames": 34,
        "frameRates": 60
      },
      {
        "trial_number": 35,
        "trial_index": 234,
        "rt": 642,
        "correct": true,
        "response": "ArrowRight",
        "congruent": true,
        "gazeTowards": true,
        "gazeCondition": "towards",
        "faceOnLeft": true,
        "impliedDirection": 0,
        "testDirection": 0,
        "avgFps": 60,
        "minFps": 57,
        "maxFps": 63,
        "totalFrames": 39,
        "frameRates": 60
      },
      {
        "trial_number": 36,
        "trial_index": 239,
        "rt": 696,
        "correct": true,
        "response": "ArrowLeft",
        "congruent": true,
        "gazeTowards": true,
        "gazeCondition": "towards",
        "faceOnLeft": false,
        "impliedDirection": 180,
        "testDirection": 180,
        "avgFps": 60,
        "minFps": 56,
        "maxFps": 65,
        "totalFrames": 41,
        "frameRates": 60
      },
      {
        "trial_number": 37,
        "trial_index": 244,
        "rt": 965,
        "correct": true,
        "response": "ArrowRight",
        "congruent": true,
        "gazeTowards": false,
        "gazeCondition": "away",
        "faceOnLeft": true,
        "impliedDirection": 0,
        "testDirection": 0,
        "avgFps": 60,
        "minFps": 54,
        "maxFps": 69,
        "totalFrames": 58,
        "frameRates": 60
      },
      {
        "trial_number": 38,
        "trial_index": 249,
        "rt": 821,
        "correct": true,
        "response": "ArrowRight",
        "congruent": false,
        "gazeTowards": true,
        "gazeCondition": "towards",
        "faceOnLeft": false,
        "impliedDirection": 180,
        "testDirection": 0,
        "avgFps": 60,
        "minFps": 56,
        "maxFps": 64,
        "totalFrames": 49,
        "frameRates": 60
      },
      {
        "trial_number": 39,
        "trial_index": 254,
        "rt": 805,
        "correct": true,
        "response": "ArrowLeft",
        "congruent": true,
        "gazeTowards": false,
        "gazeCondition": "away",
        "faceOnLeft": false,
        "impliedDirection": 180,
        "testDirection": 180,
        "avgFps": 60,
        "minFps": 56,
        "maxFps": 64,
        "totalFrames": 48,
        "frameRates": 60
      },
      {
        "trial_number": 40,
        "trial_index": 259,
        "rt": 675,
        "correct": true,
        "response": "ArrowRight",
        "congruent": false,
        "gazeTowards": true,
        "gazeCondition": "towards",
        "faceOnLeft": false,
        "impliedDirection": 180,
        "testDirection": 0,
        "avgFps": 60,
        "minFps": 58,
        "maxFps": 62,
        "totalFrames": 41,
        "frameRates": 60
      },
      {
        "trial_number": 41,
        "trial_index": 264,
        "rt": 896,
        "correct": true,
        "response": "ArrowLeft",
        "congruent": true,
        "gazeTowards": false,
        "gazeCondition": "away",
        "faceOnLeft": false,
        "impliedDirection": 180,
        "testDirection": 180,
        "avgFps": 60,
        "minFps": 55,
        "maxFps": 68,
        "totalFrames": 54,
        "frameRates": 60
      },
      {
        "trial_number": 42,
        "trial_index": 269,
        "rt": 693,
        "correct": true,
        "response": "ArrowRight",
        "congruent": true,
        "gazeTowards": false,
        "gazeCondition": "away",
        "faceOnLeft": true,
        "impliedDirection": 0,
        "testDirection": 0,
        "avgFps": 60,
        "minFps": 53,
        "maxFps": 68,
        "totalFrames": 42,
        "frameRates": 60
      },
      {
        "trial_number": 43,
        "trial_index": 274,
        "rt": 751,
        "correct": true,
        "response": "ArrowRight",
        "congruent": true,
        "gazeTowards": false,
        "gazeCondition": "away",
        "faceOnLeft": true,
        "impliedDirection": 0,
        "testDirection": 0,
        "avgFps": 60,
        "minFps": 59,
        "maxFps": 62,
        "totalFrames": 45,
        "frameRates": 60
      },
      {
        "trial_number": 44,
        "trial_index": 279,
        "rt": 860,
        "correct": true,
        "response": "ArrowLeft",
        "congruent": false,
        "gazeTowards": false,
        "gazeCondition": "away",
        "faceOnLeft": true,
        "impliedDirection": 0,
        "testDirection": 180,
        "avgFps": 60,
        "minFps": 58,
        "maxFps": 62,
        "totalFrames": 51,
        "frameRates": 60
      },
      {
        "trial_number": 45,
        "trial_index": 284,
        "rt": 695,
        "correct": true,
        "response": "ArrowRight",
        "congruent": false,
        "gazeTowards": true,
        "gazeCondition": "towards",
        "faceOnLeft": false,
        "impliedDirection": 180,
        "testDirection": 0,
        "avgFps": 60,
        "minFps": 59,
        "maxFps": 62,
        "totalFrames": 42,
        "frameRates": 60
      },
      {
        "trial_number": 46,
        "trial_index": 289,
        "rt": 592,
        "correct": true,
        "response": "ArrowLeft",
        "congruent": true,
        "gazeTowards": false,
        "gazeCondition": "away",
        "faceOnLeft": false,
        "impliedDirection": 180,
        "testDirection": 180,
        "avgFps": 60,
        "minFps": 58,
        "maxFps": 63,
        "totalFrames": 36,
        "frameRates": 60
      },
      {
        "trial_number": 47,
        "trial_index": 297,
        "rt": 728,
        "correct": true,
        "response": "ArrowRight",
        "congruent": true,
        "gazeTowards": true,
        "gazeCondition": "towards",
        "faceOnLeft": true,
        "impliedDirection": 0,
        "testDirection": 0,
        "avgFps": 60,
        "minFps": 53,
        "maxFps": 69,
        "totalFrames": 43,
        "frameRates": 60
      },
      {
        "trial_number": 48,
        "trial_index": 302,
        "rt": 760,
        "correct": true,
        "response": "ArrowLeft",
        "congruent": true,
        "gazeTowards": false,
        "gazeCondition": "away",
        "faceOnLeft": false,
        "impliedDirection": 180,
        "testDirection": 180,
        "avgFps": 60,
        "minFps": 58,
        "maxFps": 62,
        "totalFrames": 46,
        "frameRates": 60
      },
      {
        "trial_number": 49,
        "trial_index": 307,
        "rt": 939,
        "correct": true,
        "response": "ArrowLeft",
        "congruent": false,
        "gazeTowards": false,
        "gazeCondition": "away",
        "faceOnLeft": true,
        "impliedDirection": 0,
        "testDirection": 180,
        "avgFps": 60,
        "minFps": 56,
        "maxFps": 66,
        "totalFrames": 56,
        "frameRates": 60
      },
      {
        "trial_number": 50,
        "trial_index": 312,
        "rt": 905,
        "correct": true,
        "response": "ArrowLeft",
        "congruent": true,
        "gazeTowards": false,
        "gazeCondition": "away",
        "faceOnLeft": false,
        "impliedDirection": 180,
        "testDirection": 180,
        "avgFps": 60,
        "minFps": 57,
        "maxFps": 64,
        "totalFrames": 54,
        "frameRates": 60
      },
      {
        "trial_number": 51,
        "trial_index": 317,
        "rt": 705,
        "correct": true,
        "response": "ArrowLeft",
        "congruent": false,
        "gazeTowards": true,
        "gazeCondition": "towards",
        "faceOnLeft": true,
        "impliedDirection": 0,
        "testDirection": 180,
        "avgFps": 60,
        "minFps": 55,
        "maxFps": 69,
        "totalFrames": 42,
        "frameRates": 60
      },
      {
        "trial_number": 52,
        "trial_index": 325,
        "rt": 789,
        "correct": true,
        "response": "ArrowRight",
        "congruent": false,
        "gazeTowards": false,
        "gazeCondition": "away",
        "faceOnLeft": false,
        "impliedDirection": 180,
        "testDirection": 0,
        "avgFps": 61,
        "minFps": 58,
        "maxFps": null,
        "totalFrames": 48,
        "frameRates": 61
      },
      {
        "trial_number": 53,
        "trial_index": 330,
        "rt": 614,
        "correct": true,
        "response": "ArrowRight",
        "congruent": true,
        "gazeTowards": true,
        "gazeCondition": "towards",
        "faceOnLeft": true,
        "impliedDirection": 0,
        "testDirection": 0,
        "avgFps": 60,
        "minFps": 51,
        "maxFps": 74,
        "totalFrames": 37,
        "frameRates": 60
      },
      {
        "trial_number": 54,
        "trial_index": 335,
        "rt": 868,
        "correct": true,
        "response": "ArrowRight",
        "congruent": false,
        "gazeTowards": true,
        "gazeCondition": "towards",
        "faceOnLeft": false,
        "impliedDirection": 180,
        "testDirection": 0,
        "avgFps": 60,
        "minFps": 55,
        "maxFps": 66,
        "totalFrames": 52,
        "frameRates": 60
      },
      {
        "trial_number": 55,
        "trial_index": 340,
        "rt": 1007,
        "correct": true,
        "response": "ArrowRight",
        "congruent": false,
        "gazeTowards": false,
        "gazeCondition": "away",
        "faceOnLeft": false,
        "impliedDirection": 180,
        "testDirection": 0,
        "avgFps": 60,
        "minFps": 55,
        "maxFps": 68,
        "totalFrames": 60,
        "frameRates": 60
      },
      {
        "trial_number": 56,
        "trial_index": 345,
        "rt": 681,
        "correct": true,
        "response": "ArrowRight",
        "congruent": false,
        "gazeTowards": false,
        "gazeCondition": "away",
        "faceOnLeft": false,
        "impliedDirection": 180,
        "testDirection": 0,
        "avgFps": 60,
        "minFps": 53,
        "maxFps": 68,
        "totalFrames": 41,
        "frameRates": 60
      },
      {
        "trial_number": 57,
        "trial_index": 350,
        "rt": 1071,
        "correct": true,
        "response": "ArrowLeft",
        "congruent": true,
        "gazeTowards": true,
        "gazeCondition": "towards",
        "faceOnLeft": false,
        "impliedDirection": 180,
        "testDirection": 180,
        "avgFps": 61,
        "minFps": 57,
        "maxFps": null,
        "totalFrames": 65,
        "frameRates": 61
      },
      {
        "trial_number": 58,
        "trial_index": 355,
        "rt": 691,
        "correct": true,
        "response": "ArrowLeft",
        "congruent": false,
        "gazeTowards": false,
        "gazeCondition": "away",
        "faceOnLeft": true,
        "impliedDirection": 0,
        "testDirection": 180,
        "avgFps": 60,
        "minFps": 57,
        "maxFps": 66,
        "totalFrames": 41,
        "frameRates": 60
      },
      {
        "trial_number": 59,
        "trial_index": 360,
        "rt": 557,
        "correct": true,
        "response": "ArrowLeft",
        "congruent": false,
        "gazeTowards": true,
        "gazeCondition": "towards",
        "faceOnLeft": true,
        "impliedDirection": 0,
        "testDirection": 180,
        "avgFps": 60,
        "minFps": 58,
        "maxFps": 62,
        "totalFrames": 34,
        "frameRates": 60
      },
      {
        "trial_number": 60,
        "trial_index": 365,
        "rt": 632,
        "correct": true,
        "response": "ArrowLeft",
        "congruent": true,
        "gazeTowards": true,
        "gazeCondition": "towards",
        "faceOnLeft": false,
        "impliedDirection": 180,
        "testDirection": 180,
        "avgFps": 62,
        "minFps": 56,
        "maxFps": null,
        "totalFrames": 38,
        "frameRates": 62
      },
      {
        "trial_number": 61,
        "trial_index": 371,
        "rt": 403,
        "correct": true,
        "response": "ArrowRight",
        "congruent": false,
        "gazeTowards": true,
        "gazeCondition": "towards",
        "faceOnLeft": false,
        "impliedDirection": 180,
        "testDirection": 0,
        "avgFps": 60,
        "minFps": 59,
        "maxFps": 61,
        "totalFrames": 24,
        "frameRates": 60
      },
      {
        "trial_number": 62,
        "trial_index": 376,
        "rt": 637,
        "correct": true,
        "response": "ArrowLeft",
        "congruent": true,
        "gazeTowards": true,
        "gazeCondition": "towards",
        "faceOnLeft": false,
        "impliedDirection": 180,
        "testDirection": 180,
        "avgFps": 60,
        "minFps": 54,
        "maxFps": 69,
        "totalFrames": 38,
        "frameRates": 60
      },
      {
        "trial_number": 63,
        "trial_index": 381,
        "rt": 568,
        "correct": true,
        "response": "ArrowLeft",
        "congruent": false,
        "gazeTowards": false,
        "gazeCondition": "away",
        "faceOnLeft": true,
        "impliedDirection": 0,
        "testDirection": 180,
        "avgFps": 60,
        "minFps": 53,
        "maxFps": 69,
        "totalFrames": 34,
        "frameRates": 60
      },
      {
        "trial_number": 64,
        "trial_index": 386,
        "rt": 708,
        "correct": true,
        "response": "ArrowLeft",
        "congruent": false,
        "gazeTowards": true,
        "gazeCondition": "towards",
        "faceOnLeft": true,
        "impliedDirection": 0,
        "testDirection": 180,
        "avgFps": 60,
        "minFps": 53,
        "maxFps": 69,
        "totalFrames": 42,
        "frameRates": 60
      },
      {
        "trial_number": 65,
        "trial_index": 391,
        "rt": 613,
        "correct": true,
        "response": "ArrowRight",
        "congruent": true,
        "gazeTowards": false,
        "gazeCondition": "away",
        "faceOnLeft": true,
        "impliedDirection": 0,
        "testDirection": 0,
        "avgFps": 60,
        "minFps": 53,
        "maxFps": 69,
        "totalFrames": 36,
        "frameRates": 60
      },
      {
        "trial_number": 66,
        "trial_index": 396,
        "rt": 675,
        "correct": true,
        "response": "ArrowLeft",
        "congruent": false,
        "gazeTowards": true,
        "gazeCondition": "towards",
        "faceOnLeft": true,
        "impliedDirection": 0,
        "testDirection": 180,
        "avgFps": 60,
        "minFps": 56,
        "maxFps": 65,
        "totalFrames": 41,
        "frameRates": 60
      },
      {
        "trial_number": 67,
        "trial_index": 401,
        "rt": 733,
        "correct": true,
        "response": "ArrowLeft",
        "congruent": false,
        "gazeTowards": true,
        "gazeCondition": "towards",
        "faceOnLeft": true,
        "impliedDirection": 0,
        "testDirection": 180,
        "avgFps": 60,
        "minFps": 55,
        "maxFps": 66,
        "totalFrames": 44,
        "frameRates": 60
      },
      {
        "trial_number": 68,
        "trial_index": 409,
        "rt": 496,
        "correct": true,
        "response": "ArrowLeft",
        "congruent": false,
        "gazeTowards": true,
        "gazeCondition": "towards",
        "faceOnLeft": true,
        "impliedDirection": 0,
        "testDirection": 180,
        "avgFps": 60,
        "minFps": 59,
        "maxFps": 62,
        "totalFrames": 29,
        "frameRates": 60
      },
      {
        "trial_number": 69,
        "trial_index": 417,
        "rt": 783,
        "correct": true,
        "response": "ArrowRight",
        "congruent": false,
        "gazeTowards": true,
        "gazeCondition": "towards",
        "faceOnLeft": false,
        "impliedDirection": 180,
        "testDirection": 0,
        "avgFps": 60,
        "minFps": 58,
        "maxFps": 66,
        "totalFrames": 47,
        "frameRates": 60
      },
      {
        "trial_number": 70,
        "trial_index": 428,
        "rt": 883,
        "correct": true,
        "response": "ArrowLeft",
        "congruent": false,
        "gazeTowards": false,
        "gazeCondition": "away",
        "faceOnLeft": true,
        "impliedDirection": 0,
        "testDirection": 180,
        "avgFps": 60,
        "minFps": 51,
        "maxFps": 74,
        "totalFrames": 53,
        "frameRates": 60
      },
      {
        "trial_number": 71,
        "trial_index": 433,
        "rt": 878,
        "correct": true,
        "response": "ArrowRight",
        "congruent": true,
        "gazeTowards": true,
        "gazeCondition": "towards",
        "faceOnLeft": true,
        "impliedDirection": 0,
        "testDirection": 0,
        "avgFps": 60,
        "minFps": 59,
        "maxFps": 61,
        "totalFrames": 53,
        "frameRates": 60
      },
      {
        "trial_number": 72,
        "trial_index": 438,
        "rt": 754,
        "correct": true,
        "response": "ArrowRight",
        "congruent": false,
        "gazeTowards": true,
        "gazeCondition": "towards",
        "faceOnLeft": false,
        "impliedDirection": 180,
        "testDirection": 0,
        "avgFps": 60,
        "minFps": 55,
        "maxFps": 68,
        "totalFrames": 45,
        "frameRates": 60
      },
      {
        "trial_number": 73,
        "trial_index": 443,
        "rt": 695,
        "correct": true,
        "response": "ArrowLeft",
        "congruent": true,
        "gazeTowards": false,
        "gazeCondition": "away",
        "faceOnLeft": false,
        "impliedDirection": 180,
        "testDirection": 180,
        "avgFps": 60,
        "minFps": 58,
        "maxFps": 61,
        "totalFrames": 42,
        "frameRates": 60
      },
      {
        "trial_number": 74,
        "trial_index": 448,
        "rt": 960,
        "correct": true,
        "response": "ArrowRight",
        "congruent": false,
        "gazeTowards": false,
        "gazeCondition": "away",
        "faceOnLeft": false,
        "impliedDirection": 180,
        "testDirection": 0,
        "avgFps": 60,
        "minFps": 58,
        "maxFps": 63,
        "totalFrames": 57,
        "frameRates": 60
      },
      {
        "trial_number": 75,
        "trial_index": 453,
        "rt": 575,
        "correct": true,
        "response": "ArrowRight",
        "congruent": true,
        "gazeTowards": true,
        "gazeCondition": "towards",
        "faceOnLeft": true,
        "impliedDirection": 0,
        "testDirection": 0,
        "avgFps": 62,
        "minFps": 58,
        "maxFps": null,
        "totalFrames": 35,
        "frameRates": 62
      },
      {
        "trial_number": 76,
        "trial_index": 458,
        "rt": 634,
        "correct": true,
        "response": "ArrowRight",
        "congruent": false,
        "gazeTowards": false,
        "gazeCondition": "away",
        "faceOnLeft": false,
        "impliedDirection": 180,
        "testDirection": 0,
        "avgFps": 60,
        "minFps": 52,
        "maxFps": 70,
        "totalFrames": 38,
        "frameRates": 60
      },
      {
        "trial_number": 77,
        "trial_index": 463,
        "rt": 602,
        "correct": true,
        "response": "ArrowLeft",
        "congruent": true,
        "gazeTowards": false,
        "gazeCondition": "away",
        "faceOnLeft": false,
        "impliedDirection": 180,
        "testDirection": 180,
        "avgFps": 62,
        "minFps": 58,
        "maxFps": null,
        "totalFrames": 37,
        "frameRates": 62
      },
      {
        "trial_number": 78,
        "trial_index": 468,
        "rt": 1068,
        "correct": true,
        "response": "ArrowLeft",
        "congruent": false,
        "gazeTowards": false,
        "gazeCondition": "away",
        "faceOnLeft": true,
        "impliedDirection": 0,
        "testDirection": 180,
        "avgFps": 60,
        "minFps": 58,
        "maxFps": 64,
        "totalFrames": 64,
        "frameRates": 60
      },
      {
        "trial_number": 79,
        "trial_index": 473,
        "rt": 701,
        "correct": true,
        "response": "ArrowRight",
        "congruent": true,
        "gazeTowards": false,
        "gazeCondition": "away",
        "faceOnLeft": true,
        "impliedDirection": 0,
        "testDirection": 0,
        "avgFps": 60,
        "minFps": 59,
        "maxFps": 64,
        "totalFrames": 42,
        "frameRates": 60
      },
      {
        "trial_number": 80,
        "trial_index": 478,
        "rt": 723,
        "correct": true,
        "response": "ArrowRight",
        "congruent": true,
        "gazeTowards": true,
        "gazeCondition": "towards",
        "faceOnLeft": true,
        "impliedDirection": 0,
        "testDirection": 0,
        "avgFps": 60,
        "minFps": 55,
        "maxFps": 67,
        "totalFrames": 43,
        "frameRates": 60
      },
      {
        "trial_number": 81,
        "trial_index": 483,
        "rt": 1048,
        "correct": true,
        "response": "ArrowLeft",
        "congruent": false,
        "gazeTowards": false,
        "gazeCondition": "away",
        "faceOnLeft": true,
        "impliedDirection": 0,
        "testDirection": 180,
        "avgFps": 60,
        "minFps": 56,
        "maxFps": 65,
        "totalFrames": 63,
        "frameRates": 60
      },
      {
        "trial_number": 82,
        "trial_index": 488,
        "rt": 651,
        "correct": true,
        "response": "ArrowRight",
        "congruent": true,
        "gazeTowards": true,
        "gazeCondition": "towards",
        "faceOnLeft": true,
        "impliedDirection": 0,
        "testDirection": 0,
        "avgFps": 60,
        "minFps": 58,
        "maxFps": 64,
        "totalFrames": 39,
        "frameRates": 60
      },
      {
        "trial_number": 83,
        "trial_index": 493,
        "rt": 689,
        "correct": true,
        "response": "ArrowRight",
        "congruent": false,
        "gazeTowards": false,
        "gazeCondition": "away",
        "faceOnLeft": false,
        "impliedDirection": 180,
        "testDirection": 0,
        "avgFps": 62,
        "minFps": 58,
        "maxFps": null,
        "totalFrames": 42,
        "frameRates": 62
      },
      {
        "trial_number": 84,
        "trial_index": 498,
        "rt": 724,
        "correct": true,
        "response": "ArrowLeft",
        "congruent": true,
        "gazeTowards": false,
        "gazeCondition": "away",
        "faceOnLeft": false,
        "impliedDirection": 180,
        "testDirection": 180,
        "avgFps": 60,
        "minFps": 56,
        "maxFps": 66,
        "totalFrames": 43,
        "frameRates": 60
      },
      {
        "trial_number": 85,
        "trial_index": 503,
        "rt": 687,
        "correct": true,
        "response": "ArrowLeft",
        "congruent": true,
        "gazeTowards": false,
        "gazeCondition": "away",
        "faceOnLeft": false,
        "impliedDirection": 180,
        "testDirection": 180,
        "avgFps": 60,
        "minFps": 58,
        "maxFps": 62,
        "totalFrames": 41,
        "frameRates": 60
      },
      {
        "trial_number": 86,
        "trial_index": 508,
        "rt": 875,
        "correct": true,
        "response": "ArrowLeft",
        "congruent": false,
        "gazeTowards": true,
        "gazeCondition": "towards",
        "faceOnLeft": true,
        "impliedDirection": 0,
        "testDirection": 180,
        "avgFps": 60,
        "minFps": 58,
        "maxFps": 63,
        "totalFrames": 53,
        "frameRates": 60
      },
      {
        "trial_number": 87,
        "trial_index": 513,
        "rt": 794,
        "correct": true,
        "response": "ArrowLeft",
        "congruent": true,
        "gazeTowards": false,
        "gazeCondition": "away",
        "faceOnLeft": false,
        "impliedDirection": 180,
        "testDirection": 180,
        "avgFps": 60,
        "minFps": 58,
        "maxFps": 65,
        "totalFrames": 48,
        "frameRates": 60
      },
      {
        "trial_number": 88,
        "trial_index": 518,
        "rt": 714,
        "correct": true,
        "response": "ArrowLeft",
        "congruent": true,
        "gazeTowards": true,
        "gazeCondition": "towards",
        "faceOnLeft": false,
        "impliedDirection": 180,
        "testDirection": 180,
        "avgFps": 60,
        "minFps": 56,
        "maxFps": 66,
        "totalFrames": 43,
        "frameRates": 60
      },
      {
        "trial_number": 89,
        "trial_index": 523,
        "rt": 543,
        "correct": true,
        "response": "ArrowRight",
        "congruent": false,
        "gazeTowards": true,
        "gazeCondition": "towards",
        "faceOnLeft": false,
        "impliedDirection": 180,
        "testDirection": 0,
        "avgFps": 60,
        "minFps": 54,
        "maxFps": 68,
        "totalFrames": 32,
        "frameRates": 60
      },
      {
        "trial_number": 90,
        "trial_index": 529,
        "rt": 660,
        "correct": true,
        "response": "ArrowRight",
        "congruent": false,
        "gazeTowards": false,
        "gazeCondition": "away",
        "faceOnLeft": false,
        "impliedDirection": 180,
        "testDirection": 0,
        "avgFps": 60,
        "minFps": 59,
        "maxFps": 62,
        "totalFrames": 39,
        "frameRates": 60
      },
      {
        "trial_number": 91,
        "trial_index": 534,
        "rt": 762,
        "correct": true,
        "response": "ArrowRight",
        "congruent": true,
        "gazeTowards": false,
        "gazeCondition": "away",
        "faceOnLeft": true,
        "impliedDirection": 0,
        "testDirection": 0,
        "avgFps": 60,
        "minFps": 56,
        "maxFps": 64,
        "totalFrames": 46,
        "frameRates": 60
      },
      {
        "trial_number": 92,
        "trial_index": 539,
        "rt": 633,
        "correct": true,
        "response": "ArrowLeft",
        "congruent": true,
        "gazeTowards": true,
        "gazeCondition": "towards",
        "faceOnLeft": false,
        "impliedDirection": 180,
        "testDirection": 180,
        "avgFps": 60,
        "minFps": 53,
        "maxFps": 73,
        "totalFrames": 38,
        "frameRates": 60
      },
      {
        "trial_number": 93,
        "trial_index": 544,
        "rt": 928,
        "correct": true,
        "response": "ArrowLeft",
        "congruent": false,
        "gazeTowards": false,
        "gazeCondition": "away",
        "faceOnLeft": true,
        "impliedDirection": 0,
        "testDirection": 180,
        "avgFps": 60,
        "minFps": 57,
        "maxFps": 63,
        "totalFrames": 55,
        "frameRates": 60
      },
      {
        "trial_number": 94,
        "trial_index": 549,
        "rt": 515,
        "correct": true,
        "response": "ArrowRight",
        "congruent": false,
        "gazeTowards": true,
        "gazeCondition": "towards",
        "faceOnLeft": false,
        "impliedDirection": 180,
        "testDirection": 0,
        "avgFps": 60,
        "minFps": 55,
        "maxFps": 64,
        "totalFrames": 31,
        "frameRates": 60
      },
      {
        "trial_number": 95,
        "trial_index": 557,
        "rt": 582,
        "correct": true,
        "response": "ArrowRight",
        "congruent": true,
        "gazeTowards": true,
        "gazeCondition": "towards",
        "faceOnLeft": true,
        "impliedDirection": 0,
        "testDirection": 0,
        "avgFps": 60,
        "minFps": 56,
        "maxFps": 65,
        "totalFrames": 35,
        "frameRates": 60
      },
      {
        "trial_number": 96,
        "trial_index": 562,
        "rt": 533,
        "correct": true,
        "response": "ArrowLeft",
        "congruent": true,
        "gazeTowards": true,
        "gazeCondition": "towards",
        "faceOnLeft": false,
        "impliedDirection": 180,
        "testDirection": 180,
        "avgFps": 60,
        "minFps": 57,
        "maxFps": 65,
        "totalFrames": 32,
        "frameRates": 60
      },
      {
        "trial_number": 97,
        "trial_index": 567,
        "rt": 641,
        "correct": true,
        "response": "ArrowRight",
        "congruent": false,
        "gazeTowards": true,
        "gazeCondition": "towards",
        "faceOnLeft": false,
        "impliedDirection": 180,
        "testDirection": 0,
        "avgFps": 60,
        "minFps": 56,
        "maxFps": 65,
        "totalFrames": 38,
        "frameRates": 60
      },
      {
        "trial_number": 98,
        "trial_index": 572,
        "rt": 893,
        "correct": true,
        "response": "ArrowRight",
        "congruent": true,
        "gazeTowards": false,
        "gazeCondition": "away",
        "faceOnLeft": true,
        "impliedDirection": 0,
        "testDirection": 0,
        "avgFps": 60,
        "minFps": 57,
        "maxFps": 64,
        "totalFrames": 54,
        "frameRates": 60
      },
      {
        "trial_number": 99,
        "trial_index": 577,
        "rt": 575,
        "correct": true,
        "response": "ArrowRight",
        "congruent": true,
        "gazeTowards": true,
        "gazeCondition": "towards",
        "faceOnLeft": true,
        "impliedDirection": 0,
        "testDirection": 0,
        "avgFps": 60,
        "minFps": 58,
        "maxFps": 66,
        "totalFrames": 35,
        "frameRates": 60
      },
      {
        "trial_number": 100,
        "trial_index": 585,
        "rt": 950,
        "correct": true,
        "response": "ArrowRight",
        "congruent": true,
        "gazeTowards": true,
        "gazeCondition": "towards",
        "faceOnLeft": true,
        "impliedDirection": 0,
        "testDirection": 0,
        "avgFps": 60,
        "minFps": 58,
        "maxFps": 63,
        "totalFrames": 57,
        "frameRates": 60
      },
      {
        "trial_number": 101,
        "trial_index": 590,
        "rt": 1132,
        "correct": true,
        "response": "ArrowRight",
        "congruent": false,
        "gazeTowards": false,
        "gazeCondition": "away",
        "faceOnLeft": false,
        "impliedDirection": 180,
        "testDirection": 0,
        "avgFps": 60,
        "minFps": 53,
        "maxFps": 71,
        "totalFrames": 68,
        "frameRates": 60
      },
      {
        "trial_number": 102,
        "trial_index": 595,
        "rt": 637,
        "correct": true,
        "response": "ArrowLeft",
        "congruent": true,
        "gazeTowards": true,
        "gazeCondition": "towards",
        "faceOnLeft": false,
        "impliedDirection": 180,
        "testDirection": 180,
        "avgFps": 60,
        "minFps": 58,
        "maxFps": 63,
        "totalFrames": 38,
        "frameRates": 60
      },
      {
        "trial_number": 103,
        "trial_index": 603,
        "rt": 764,
        "correct": true,
        "response": "ArrowLeft",
        "congruent": true,
        "gazeTowards": false,
        "gazeCondition": "away",
        "faceOnLeft": false,
        "impliedDirection": 180,
        "testDirection": 180,
        "avgFps": 60,
        "minFps": 53,
        "maxFps": 70,
        "totalFrames": 46,
        "frameRates": 60
      },
      {
        "trial_number": 104,
        "trial_index": 608,
        "rt": 748,
        "correct": true,
        "response": "ArrowLeft",
        "congruent": true,
        "gazeTowards": false,
        "gazeCondition": "away",
        "faceOnLeft": false,
        "impliedDirection": 180,
        "testDirection": 180,
        "avgFps": 60,
        "minFps": 56,
        "maxFps": 66,
        "totalFrames": 45,
        "frameRates": 60
      },
      {
        "trial_number": 105,
        "trial_index": 613,
        "rt": 604,
        "correct": true,
        "response": "ArrowRight",
        "congruent": false,
        "gazeTowards": true,
        "gazeCondition": "towards",
        "faceOnLeft": false,
        "impliedDirection": 180,
        "testDirection": 0,
        "avgFps": 60,
        "minFps": 58,
        "maxFps": 63,
        "totalFrames": 36,
        "frameRates": 60
      },
      {
        "trial_number": 106,
        "trial_index": 618,
        "rt": 657,
        "correct": true,
        "response": "ArrowRight",
        "congruent": true,
        "gazeTowards": true,
        "gazeCondition": "towards",
        "faceOnLeft": true,
        "impliedDirection": 0,
        "testDirection": 0,
        "avgFps": 62,
        "minFps": 59,
        "maxFps": null,
        "totalFrames": 40,
        "frameRates": 62
      },
      {
        "trial_number": 107,
        "trial_index": 623,
        "rt": 650,
        "correct": true,
        "response": "ArrowLeft",
        "congruent": true,
        "gazeTowards": true,
        "gazeCondition": "towards",
        "faceOnLeft": false,
        "impliedDirection": 180,
        "testDirection": 180,
        "avgFps": 60,
        "minFps": 58,
        "maxFps": 63,
        "totalFrames": 38,
        "frameRates": 60
      },
      {
        "trial_number": 108,
        "trial_index": 628,
        "rt": 827,
        "correct": true,
        "response": "ArrowLeft",
        "congruent": true,
        "gazeTowards": false,
        "gazeCondition": "away",
        "faceOnLeft": false,
        "impliedDirection": 180,
        "testDirection": 180,
        "avgFps": 60,
        "minFps": 56,
        "maxFps": 64,
        "totalFrames": 49,
        "frameRates": 60
      },
      {
        "trial_number": 109,
        "trial_index": 633,
        "rt": 719,
        "correct": true,
        "response": "ArrowLeft",
        "congruent": false,
        "gazeTowards": false,
        "gazeCondition": "away",
        "faceOnLeft": true,
        "impliedDirection": 0,
        "testDirection": 180,
        "avgFps": 60,
        "minFps": 58,
        "maxFps": 63,
        "totalFrames": 43,
        "frameRates": 60
      },
      {
        "trial_number": 110,
        "trial_index": 638,
        "rt": 1031,
        "correct": true,
        "response": "ArrowRight",
        "congruent": true,
        "gazeTowards": false,
        "gazeCondition": "away",
        "faceOnLeft": true,
        "impliedDirection": 0,
        "testDirection": 0,
        "avgFps": 60,
        "minFps": 54,
        "maxFps": 69,
        "totalFrames": 62,
        "frameRates": 60
      },
      {
        "trial_number": 111,
        "trial_index": 643,
        "rt": 656,
        "correct": true,
        "response": "ArrowRight",
        "congruent": false,
        "gazeTowards": false,
        "gazeCondition": "away",
        "faceOnLeft": false,
        "impliedDirection": 180,
        "testDirection": 0,
        "avgFps": 61,
        "minFps": 58,
        "maxFps": 83,
        "totalFrames": 39,
        "frameRates": 61
      },
      {
        "trial_number": 112,
        "trial_index": 648,
        "rt": 784,
        "correct": true,
        "response": "ArrowRight",
        "congruent": true,
        "gazeTowards": true,
        "gazeCondition": "towards",
        "faceOnLeft": true,
        "impliedDirection": 0,
        "testDirection": 0,
        "avgFps": 60,
        "minFps": 57,
        "maxFps": 63,
        "totalFrames": 47,
        "frameRates": 60
      },
      {
        "trial_number": 113,
        "trial_index": 653,
        "rt": 587,
        "correct": true,
        "response": "ArrowLeft",
        "congruent": false,
        "gazeTowards": true,
        "gazeCondition": "towards",
        "faceOnLeft": true,
        "impliedDirection": 0,
        "testDirection": 180,
        "avgFps": 60,
        "minFps": 58,
        "maxFps": 64,
        "totalFrames": 35,
        "frameRates": 60
      },
      {
        "trial_number": 114,
        "trial_index": 658,
        "rt": 951,
        "correct": true,
        "response": "ArrowRight",
        "congruent": true,
        "gazeTowards": false,
        "gazeCondition": "away",
        "faceOnLeft": true,
        "impliedDirection": 0,
        "testDirection": 0,
        "avgFps": 60,
        "minFps": 58,
        "maxFps": 62,
        "totalFrames": 57,
        "frameRates": 60
      },
      {
        "trial_number": 115,
        "trial_index": 663,
        "rt": 1051,
        "correct": true,
        "response": "ArrowLeft",
        "congruent": false,
        "gazeTowards": true,
        "gazeCondition": "towards",
        "faceOnLeft": true,
        "impliedDirection": 0,
        "testDirection": 180,
        "avgFps": 60,
        "minFps": 54,
        "maxFps": 69,
        "totalFrames": 63,
        "frameRates": 60
      },
      {
        "trial_number": 116,
        "trial_index": 668,
        "rt": 659,
        "correct": true,
        "response": "ArrowRight",
        "congruent": true,
        "gazeTowards": false,
        "gazeCondition": "away",
        "faceOnLeft": true,
        "impliedDirection": 0,
        "testDirection": 0,
        "avgFps": 60,
        "minFps": 54,
        "maxFps": 77,
        "totalFrames": 40,
        "frameRates": 60
      },
      {
        "trial_number": 117,
        "trial_index": 673,
        "rt": 573,
        "correct": true,
        "response": "ArrowRight",
        "congruent": false,
        "gazeTowards": true,
        "gazeCondition": "towards",
        "faceOnLeft": false,
        "impliedDirection": 180,
        "testDirection": 0,
        "avgFps": 60,
        "minFps": 58,
        "maxFps": 61,
        "totalFrames": 34,
        "frameRates": 60
      },
      {
        "trial_number": 118,
        "trial_index": 678,
        "rt": 1279,
        "correct": true,
        "response": "ArrowRight",
        "congruent": false,
        "gazeTowards": true,
        "gazeCondition": "towards",
        "faceOnLeft": false,
        "impliedDirection": 180,
        "testDirection": 0,
        "avgFps": 61,
        "minFps": 56,
        "maxFps": null,
        "totalFrames": 77,
        "frameRates": 61
      },
      {
        "trial_number": 119,
        "trial_index": 683,
        "rt": 1029,
        "correct": true,
        "response": "ArrowRight",
        "congruent": false,
        "gazeTowards": true,
        "gazeCondition": "towards",
        "faceOnLeft": false,
        "impliedDirection": 180,
        "testDirection": 0,
        "avgFps": 60,
        "minFps": 55,
        "maxFps": 66,
        "totalFrames": 62,
        "frameRates": 60
      }
    ],
    "catch": {
      "total": 12,
      "correct": 12,
      "accuracy": 100,
      "meanRT": 546,
      "trials": [
        {
          "trial_number": 0,
          "trial_index": 63,
          "rt": 650,
          "correct": true,
          "colorTarget": "face",
          "gazeTowards": true,
          "gazeCondition": "towards",
          "faceOnLeft": true
        },
        {
          "trial_number": 1,
          "trial_index": 96,
          "rt": 480,
          "correct": true,
          "colorTarget": "face",
          "gazeTowards": true,
          "gazeCondition": "towards",
          "faceOnLeft": true
        },
        {
          "trial_number": 2,
          "trial_index": 144,
          "rt": 576,
          "correct": true,
          "colorTarget": "tree",
          "gazeTowards": true,
          "gazeCondition": "towards",
          "faceOnLeft": false
        },
        {
          "trial_number": 3,
          "trial_index": 293,
          "rt": 656,
          "correct": true,
          "colorTarget": "tree",
          "gazeTowards": false,
          "gazeCondition": "away",
          "faceOnLeft": true
        },
        {
          "trial_number": 4,
          "trial_index": 321,
          "rt": 501,
          "correct": true,
          "colorTarget": "tree",
          "gazeTowards": false,
          "gazeCondition": "away",
          "faceOnLeft": false
        },
        {
          "trial_number": 5,
          "trial_index": 405,
          "rt": 611,
          "correct": true,
          "colorTarget": "face",
          "gazeTowards": true,
          "gazeCondition": "towards",
          "faceOnLeft": true
        },
        {
          "trial_number": 6,
          "trial_index": 413,
          "rt": 523,
          "correct": true,
          "colorTarget": "face",
          "gazeTowards": true,
          "gazeCondition": "towards",
          "faceOnLeft": false
        },
        {
          "trial_number": 7,
          "trial_index": 421,
          "rt": 524,
          "correct": true,
          "colorTarget": "tree",
          "gazeTowards": true,
          "gazeCondition": "towards",
          "faceOnLeft": true
        },
        {
          "trial_number": 8,
          "trial_index": 424,
          "rt": 339,
          "correct": true,
          "colorTarget": "tree",
          "gazeTowards": true,
          "gazeCondition": "towards",
          "faceOnLeft": true
        },
        {
          "trial_number": 9,
          "trial_index": 553,
          "rt": 552,
          "correct": true,
          "colorTarget": "face",
          "gazeTowards": true,
          "gazeCondition": "towards",
          "faceOnLeft": true
        },
        {
          "trial_number": 10,
          "trial_index": 581,
          "rt": 578,
          "correct": true,
          "colorTarget": "tree",
          "gazeTowards": false,
          "gazeCondition": "away",
          "faceOnLeft": false
        },
        {
          "trial_number": 11,
          "trial_index": 599,
          "rt": 566,
          "correct": true,
          "colorTarget": "face",
          "gazeTowards": true,
          "gazeCondition": "towards",
          "faceOnLeft": false
        }
      ]
    },
    "practice": {
      "trials": [
        {
          "trial_number": 0,
          "rt": null,
          "correct": false,
          "direction": 180
        },
        {
          "trial_number": 1,
          "rt": 399,
          "correct": false,
          "direction": 0
        },
        {
          "trial_number": 2,
          "rt": 448,
          "correct": true,
          "direction": 0
        },
        {
          "trial_number": 3,
          "rt": 427,
          "correct": true,
          "direction": 0
        },
        {
          "trial_number": 4,
          "rt": 390,
          "correct": true,
          "direction": 180
        },
        {
          "trial_number": 5,
          "rt": 620,
          "correct": true,
          "direction": 180
        },
        {
          "trial_number": 6,
          "rt": 544,
          "correct": true,
          "direction": 0
        },
        {
          "trial_number": 7,
          "rt": 542,
          "correct": true,
          "direction": 0
        },
        {
          "trial_number": 8,
          "rt": 519,
          "correct": true,
          "direction": 0
        },
        {
          "trial_number": 9,
          "rt": 532,
          "correct": true,
          "direction": 180
        }
      ],
      "meanRT": 491,
      "accuracy": 80
    }
  }
}