{
  "experiment": "rdk-face-1",
  "UUID": "e82f1f92-cdff-4494-9f04-17568a751abf",
  "data": {
    "session": {
      "experiment_version": "1.8.6",
      "treatment": "faces_towards_away_catch",
      "file_version": "1.8.6",
      "totalTrials": 120,
      "totalTrialsIncludingCatch": 132,
      "conditions": {
        "gazeTowardsCount": 60,
        "gazeAwayCount": 60,
        "gazeTowardsAccuracy": 77,
        "gazeAwayAccuracy": 75
      },
      "session_group": "default",
      "browserData": {
        "os": "Windows",
        "browser": "Chrome",
        "screenResolution": "2560x1440",
        "browserViewport": "2560x1440",
        "devicePixelRatio": 1,
        "colorDepth": 32,
        "hardwareConcurrency": 12,
        "deviceMemory": 8,
        "gpuRenderer": "ANGLE (Microsoft, Microsoft Basic Render Driver (0x0000008C) Direct3D11 vs_5_0 ps_5_0, D3D11)",
        "measuredRefreshRateHz": 150
      },
      "attention": {
        "visibilityEvents": [
          {
            "event": "blur",
            "state": "blurred",
            "timestamp": 1772773877845
          },
          {
            "event": "visibilitychange",
            "state": "hidden",
            "timestamp": 1772773877937
          },
          {
            "event": "focus",
            "state": "focused",
            "timestamp": 1772773877995
          },
          {
            "event": "visibilitychange",
            "state": "visible",
            "timestamp": 1772773878013
          },
          {
            "event": "blur",
            "state": "blurred",
            "timestamp": 1772773878499
          },
          {
            "event": "visibilitychange",
            "state": "hidden",
            "timestamp": 1772773878502
          },
          {
            "event": "visibilitychange",
            "state": "visible",
            "timestamp": 1772773878531
          },
          {
            "event": "focus",
            "state": "focused",
            "timestamp": 1772773878551
          },
          {
            "event": "blur",
            "state": "blurred",
            "timestamp": 1772773880194
          },
          {
            "event": "focus",
            "state": "focused",
            "timestamp": 1772773880972
          }
        ]
      },
      "calibration": {
        "monitorWidthCm": 38,
        "viewingDistanceCm": 54,
        "pixelsPerDegree": 50
      },
      "parameters": {
        "coherence": 0.4,
        "apertureDeg": 5,
        "densityDotsPerDeg2": 40,
        "dotDiameterDeg": 0.035,
        "dotSpeedDegPerSec": 3,
        "lifetimeMs": 200,
        "fixationDurationMs": 1500,
        "faceDurationMs": 1500,
        "testDurationMs": 2000,
        "catchResponseMs": 3000
      },
      "prolific": {
        "prolificPid": "6932f8200cc88ea0570aabba",
        "studyId": "",
        "sessionId": ""
      },
      "timing": {
        "startTime": "2026-03-06T05:11:15.405Z",
        "endTime": "2026-03-06T05:26:27.661Z",
        "totalElapsedTimeMs": 912256
      }
    },
    "trials": [
      {
        "trial_number": 0,
        "trial_index": 49,
        "rt": 1014,
        "correct": true,
        "response": "ArrowLeft",
        "congruent": false,
        "gazeTowards": true,
        "gazeCondition": "towards",
        "faceOnLeft": true,
        "impliedDirection": 0,
        "testDirection": 180,
        "avgFps": 180,
        "minFps": 175,
        "maxFps": 185,
        "totalFrames": 182,
        "frameRates": 180
      },
      {
        "trial_number": 1,
        "trial_index": 54,
        "rt": 803,
        "correct": false,
        "response": "ArrowLeft",
        "congruent": false,
        "gazeTowards": false,
        "gazeCondition": "away",
        "faceOnLeft": false,
        "impliedDirection": 180,
        "testDirection": 0,
        "avgFps": 180,
        "minFps": 172,
        "maxFps": 186,
        "totalFrames": 144,
        "frameRates": 180
      },
      {
        "trial_number": 2,
        "trial_index": 59,
        "rt": 1534,
        "correct": false,
        "response": "ArrowLeft",
        "congruent": false,
        "gazeTowards": false,
        "gazeCondition": "away",
        "faceOnLeft": false,
        "impliedDirection": 180,
        "testDirection": 0,
        "avgFps": 180,
        "minFps": 172,
        "maxFps": 185,
        "totalFrames": 276,
        "frameRates": 180
      },
      {
        "trial_number": 3,
        "trial_index": 64,
        "rt": 981,
        "correct": true,
        "response": "ArrowLeft",
        "congruent": false,
        "gazeTowards": true,
        "gazeCondition": "towards",
        "faceOnLeft": true,
        "impliedDirection": 0,
        "testDirection": 180,
        "avgFps": 181,
        "minFps": 172,
        "maxFps": null,
        "totalFrames": 177,
        "frameRates": 181
      },
      {
        "trial_number": 4,
        "trial_index": 69,
        "rt": 1322,
        "correct": false,
        "response": "ArrowLeft",
        "congruent": false,
        "gazeTowards": true,
        "gazeCondition": "towards",
        "faceOnLeft": false,
        "impliedDirection": 180,
        "testDirection": 0,
        "avgFps": 180,
        "minFps": 167,
        "maxFps": 204,
        "totalFrames": 238,
        "frameRates": 180
      },
      {
        "trial_number": 5,
        "trial_index": 74,
        "rt": 1179,
        "correct": false,
        "response": "ArrowLeft",
        "congruent": true,
        "gazeTowards": true,
        "gazeCondition": "towards",
        "faceOnLeft": true,
        "impliedDirection": 0,
        "testDirection": 0,
        "avgFps": 180,
        "minFps": 172,
        "maxFps": 185,
        "totalFrames": 212,
        "frameRates": 180
      },
      {
        "trial_number": 6,
        "trial_index": 79,
        "rt": 891,
        "correct": true,
        "response": "ArrowLeft",
        "congruent": true,
        "gazeTowards": true,
        "gazeCondition": "towards",
        "faceOnLeft": false,
        "impliedDirection": 180,
        "testDirection": 180,
        "avgFps": 180,
        "minFps": 175,
        "maxFps": 185,
        "totalFrames": 160,
        "frameRates": 180
      },
      {
        "trial_number": 7,
        "trial_index": 84,
        "rt": 1321,
        "correct": true,
        "response": "ArrowLeft",
        "congruent": true,
        "gazeTowards": true,
        "gazeCondition": "towards",
        "faceOnLeft": false,
        "impliedDirection": 180,
        "testDirection": 180,
        "avgFps": 180,
        "minFps": 175,
        "maxFps": 185,
        "totalFrames": 237,
        "frameRates": 180
      },
      {
        "trial_number": 8,
        "trial_index": 89,
        "rt": 1655,
        "correct": true,
        "response": "ArrowLeft",
        "congruent": true,
        "gazeTowards": false,
        "gazeCondition": "away",
        "faceOnLeft": false,
        "impliedDirection": 180,
        "testDirection": 180,
        "avgFps": 180,
        "minFps": 172,
        "maxFps": 185,
        "totalFrames": 297,
        "frameRates": 180
      },
      {
        "trial_number": 9,
        "trial_index": 94,
        "rt": 1151,
        "correct": true,
        "response": "ArrowRight",
        "congruent": false,
        "gazeTowards": true,
        "gazeCondition": "towards",
        "faceOnLeft": false,
        "impliedDirection": 180,
        "testDirection": 0,
        "avgFps": 180,
        "minFps": 161,
        "maxFps": 204,
        "totalFrames": 207,
        "frameRates": 180
      },
      {
        "trial_number": 10,
        "trial_index": 102,
        "rt": 1690,
        "correct": false,
        "response": "ArrowLeft",
        "congruent": false,
        "gazeTowards": true,
        "gazeCondition": "towards",
        "faceOnLeft": false,
        "impliedDirection": 180,
        "testDirection": 0,
        "avgFps": 180,
        "minFps": 175,
        "maxFps": 185,
        "totalFrames": 304,
        "frameRates": 180
      },
      {
        "trial_number": 11,
        "trial_index": 107,
        "rt": 1633,
        "correct": false,
        "response": "ArrowLeft",
        "congruent": true,
        "gazeTowards": true,
        "gazeCondition": "towards",
        "faceOnLeft": true,
        "impliedDirection": 0,
        "testDirection": 0,
        "avgFps": 180,
        "minFps": 172,
        "maxFps": 185,
        "totalFrames": 294,
        "frameRates": 180
      },
      {
        "trial_number": 12,
        "trial_index": 112,
        "rt": 1897,
        "correct": true,
        "response": "ArrowRight",
        "congruent": false,
        "gazeTowards": false,
        "gazeCondition": "away",
        "faceOnLeft": false,
        "impliedDirection": 180,
        "testDirection": 0,
        "avgFps": 180,
        "minFps": 161,
        "maxFps": 200,
        "totalFrames": 341,
        "frameRates": 180
      },
      {
        "trial_number": 13,
        "trial_index": 117,
        "rt": 1630,
        "correct": false,
        "response": "ArrowLeft",
        "congruent": true,
        "gazeTowards": false,
        "gazeCondition": "away",
        "faceOnLeft": true,
        "impliedDirection": 0,
        "testDirection": 0,
        "avgFps": 180,
        "minFps": 172,
        "maxFps": 185,
        "totalFrames": 293,
        "frameRates": 180
      },
      {
        "trial_number": 14,
        "trial_index": 122,
        "rt": 1502,
        "correct": true,
        "response": "ArrowRight",
        "congruent": false,
        "gazeTowards": true,
        "gazeCondition": "towards",
        "faceOnLeft": false,
        "impliedDirection": 180,
        "testDirection": 0,
        "avgFps": 180,
        "minFps": 172,
        "maxFps": 200,
        "totalFrames": 270,
        "frameRates": 180
      },
      {
        "trial_number": 15,
        "trial_index": 127,
        "rt": 1537,
        "correct": true,
        "response": "ArrowLeft",
        "congruent": true,
        "gazeTowards": true,
        "gazeCondition": "towards",
        "faceOnLeft": false,
        "impliedDirection": 180,
        "testDirection": 180,
        "avgFps": 180,
        "minFps": 143,
        "maxFps": 250,
        "totalFrames": 276,
        "frameRates": 180
      },
      {
        "trial_number": 16,
        "trial_index": 132,
        "rt": 1615,
        "correct": true,
        "response": "ArrowLeft",
        "congruent": false,
        "gazeTowards": true,
        "gazeCondition": "towards",
        "faceOnLeft": true,
        "impliedDirection": 0,
        "testDirection": 180,
        "avgFps": 180,
        "minFps": 172,
        "maxFps": 189,
        "totalFrames": 291,
        "frameRates": 180
      },
      {
        "trial_number": 17,
        "trial_index": 137,
        "rt": 1430,
        "correct": true,
        "response": "ArrowRight",
        "congruent": true,
        "gazeTowards": true,
        "gazeCondition": "towards",
        "faceOnLeft": true,
        "impliedDirection": 0,
        "testDirection": 0,
        "avgFps": 180,
        "minFps": 172,
        "maxFps": 185,
        "totalFrames": 258,
        "frameRates": 180
      },
      {
        "trial_number": 18,
        "trial_index": 142,
        "rt": 885,
        "correct": true,
        "response": "ArrowRight",
        "congruent": false,
        "gazeTowards": true,
        "gazeCondition": "towards",
        "faceOnLeft": false,
        "impliedDirection": 180,
        "testDirection": 0,
        "avgFps": 180,
        "minFps": 167,
        "maxFps": 204,
        "totalFrames": 159,
        "frameRates": 180
      },
      {
        "trial_number": 19,
        "trial_index": 147,
        "rt": 855,
        "correct": true,
        "response": "ArrowLeft",
        "congruent": true,
        "gazeTowards": false,
        "gazeCondition": "away",
        "faceOnLeft": false,
        "impliedDirection": 180,
        "testDirection": 180,
        "avgFps": 180,
        "minFps": 169,
        "maxFps": 200,
        "totalFrames": 154,
        "frameRates": 180
      },
      {
        "trial_number": 20,
        "trial_index": 152,
        "rt": 806,
        "correct": true,
        "response": "ArrowRight",
        "congruent": true,
        "gazeTowards": false,
        "gazeCondition": "away",
        "faceOnLeft": true,
        "impliedDirection": 0,
        "testDirection": 0,
        "avgFps": 180,
        "minFps": 175,
        "maxFps": 185,
        "totalFrames": 145,
        "frameRates": 180
      },
      {
        "trial_number": 21,
        "trial_index": 160,
        "rt": 1126,
        "correct": true,
        "response": "ArrowRight",
        "congruent": false,
        "gazeTowards": false,
        "gazeCondition": "away",
        "faceOnLeft": false,
        "impliedDirection": 180,
        "testDirection": 0,
        "avgFps": 180,
        "minFps": 169,
        "maxFps": 192,
        "totalFrames": 202,
        "frameRates": 180
      },
      {
        "trial_number": 22,
        "trial_index": 165,
        "rt": 823,
        "correct": true,
        "response": "ArrowLeft",
        "congruent": true,
        "gazeTowards": false,
        "gazeCondition": "away",
        "faceOnLeft": false,
        "impliedDirection": 180,
        "testDirection": 180,
        "avgFps": 181,
        "minFps": 172,
        "maxFps": 11905,
        "totalFrames": 148,
        "frameRates": 181
      },
      {
        "trial_number": 23,
        "trial_index": 170,
        "rt": 803,
        "correct": true,
        "response": "ArrowLeft",
        "congruent": true,
        "gazeTowards": true,
        "gazeCondition": "towards",
        "faceOnLeft": false,
        "impliedDirection": 180,
        "testDirection": 180,
        "avgFps": 180,
        "minFps": 175,
        "maxFps": 185,
        "totalFrames": 144,
        "frameRates": 180
      },
      {
        "trial_number": 24,
        "trial_index": 175,
        "rt": 894,
        "correct": false,
        "response": "ArrowLeft",
        "congruent": false,
        "gazeTowards": false,
        "gazeCondition": "away",
        "faceOnLeft": false,
        "impliedDirection": 180,
        "testDirection": 0,
        "avgFps": 180,
        "minFps": 175,
        "maxFps": 185,
        "totalFrames": 160,
        "frameRates": 180
      },
      {
        "trial_number": 25,
        "trial_index": 180,
        "rt": 1283,
        "correct": true,
        "response": "ArrowLeft",
        "congruent": false,
        "gazeTowards": false,
        "gazeCondition": "away",
        "faceOnLeft": true,
        "impliedDirection": 0,
        "testDirection": 180,
        "avgFps": 180,
        "minFps": 175,
        "maxFps": 185,
        "totalFrames": 230,
        "frameRates": 180
      },
      {
        "trial_number": 26,
        "trial_index": 185,
        "rt": 1049,
        "correct": true,
        "response": "ArrowLeft",
        "congruent": false,
        "gazeTowards": true,
        "gazeCondition": "towards",
        "faceOnLeft": true,
        "impliedDirection": 0,
        "testDirection": 180,
        "avgFps": 180,
        "minFps": 172,
        "maxFps": 185,
        "totalFrames": 189,
        "frameRates": 180
      },
      {
        "trial_number": 27,
        "trial_index": 190,
        "rt": 1283,
        "correct": true,
        "response": "ArrowRight",
        "congruent": true,
        "gazeTowards": false,
        "gazeCondition": "away",
        "faceOnLeft": true,
        "impliedDirection": 0,
        "testDirection": 0,
        "avgFps": 179,
        "minFps": 91,
        "maxFps": 208,
        "totalFrames": 230,
        "frameRates": 179
      },
      {
        "trial_number": 28,
        "trial_index": 195,
        "rt": 694,
        "correct": false,
        "response": "ArrowLeft",
        "congruent": true,
        "gazeTowards": true,
        "gazeCondition": "towards",
        "faceOnLeft": true,
        "impliedDirection": 0,
        "testDirection": 0,
        "avgFps": 180,
        "minFps": 175,
        "maxFps": 185,
        "totalFrames": 125,
        "frameRates": 180
      },
      {
        "trial_number": 29,
        "trial_index": 200,
        "rt": 1363,
        "correct": false,
        "response": "ArrowRight",
        "congruent": true,
        "gazeTowards": true,
        "gazeCondition": "towards",
        "faceOnLeft": false,
        "impliedDirection": 180,
        "testDirection": 180,
        "avgFps": 180,
        "minFps": 175,
        "maxFps": 185,
        "totalFrames": 245,
        "frameRates": 180
      },
      {
        "trial_number": 30,
        "trial_index": 205,
        "rt": 1430,
        "correct": false,
        "response": "ArrowRight",
        "congruent": true,
        "gazeTowards": true,
        "gazeCondition": "towards",
        "faceOnLeft": false,
        "impliedDirection": 180,
        "testDirection": 180,
        "avgFps": 180,
        "minFps": 169,
        "maxFps": 196,
        "totalFrames": 257,
        "frameRates": 180
      },
      {
        "trial_number": 31,
        "trial_index": 211,
        "rt": 880,
        "correct": true,
        "response": "ArrowRight",
        "congruent": false,
        "gazeTowards": true,
        "gazeCondition": "towards",
        "faceOnLeft": false,
        "impliedDirection": 180,
        "testDirection": 0,
        "avgFps": 180,
        "minFps": 169,
        "maxFps": 189,
        "totalFrames": 158,
        "frameRates": 180
      },
      {
        "trial_number": 32,
        "trial_index": 219,
        "rt": 1522,
        "correct": true,
        "response": "ArrowLeft",
        "congruent": false,
        "gazeTowards": true,
        "gazeCondition": "towards",
        "faceOnLeft": true,
        "impliedDirection": 0,
        "testDirection": 180,
        "avgFps": 180,
        "minFps": 161,
        "maxFps": 208,
        "totalFrames": 274,
        "frameRates": 180
      },
      {
        "trial_number": 33,
        "trial_index": 224,
        "rt": 1171,
        "correct": false,
        "response": "ArrowRight",
        "congruent": true,
        "gazeTowards": false,
        "gazeCondition": "away",
        "faceOnLeft": false,
        "impliedDirection": 180,
        "testDirection": 180,
        "avgFps": 180,
        "minFps": 161,
        "maxFps": 213,
        "totalFrames": 211,
        "frameRates": 180
      },
      {
        "trial_number": 34,
        "trial_index": 229,
        "rt": 1029,
        "correct": true,
        "response": "ArrowRight",
        "congruent": false,
        "gazeTowards": true,
        "gazeCondition": "towards",
        "faceOnLeft": false,
        "impliedDirection": 180,
        "testDirection": 0,
        "avgFps": 180,
        "minFps": 172,
        "maxFps": 189,
        "totalFrames": 185,
        "frameRates": 180
      },
      {
        "trial_number": 35,
        "trial_index": 234,
        "rt": 1402,
        "correct": true,
        "response": "ArrowLeft",
        "congruent": false,
        "gazeTowards": true,
        "gazeCondition": "towards",
        "faceOnLeft": true,
        "impliedDirection": 0,
        "testDirection": 180,
        "avgFps": 180,
        "minFps": 175,
        "maxFps": 185,
        "totalFrames": 252,
        "frameRates": 180
      },
      {
        "trial_number": 36,
        "trial_index": 239,
        "rt": 1784,
        "correct": false,
        "response": "ArrowRight",
        "congruent": false,
        "gazeTowards": true,
        "gazeCondition": "towards",
        "faceOnLeft": true,
        "impliedDirection": 0,
        "testDirection": 180,
        "avgFps": 180,
        "minFps": 172,
        "maxFps": 189,
        "totalFrames": 321,
        "frameRates": 180
      },
      {
        "trial_number": 37,
        "trial_index": 244,
        "rt": 1530,
        "correct": false,
        "response": "ArrowRight",
        "congruent": true,
        "gazeTowards": true,
        "gazeCondition": "towards",
        "faceOnLeft": false,
        "impliedDirection": 180,
        "testDirection": 180,
        "avgFps": 180,
        "minFps": 172,
        "maxFps": 185,
        "totalFrames": 275,
        "frameRates": 180
      },
      {
        "trial_number": 38,
        "trial_index": 249,
        "rt": 1146,
        "correct": true,
        "response": "ArrowRight",
        "congruent": true,
        "gazeTowards": true,
        "gazeCondition": "towards",
        "faceOnLeft": true,
        "impliedDirection": 0,
        "testDirection": 0,
        "avgFps": 180,
        "minFps": 175,
        "maxFps": 185,
        "totalFrames": 206,
        "frameRates": 180
      },
      {
        "trial_number": 39,
        "trial_index": 254,
        "rt": 903,
        "correct": true,
        "response": "ArrowRight",
        "congruent": true,
        "gazeTowards": true,
        "gazeCondition": "towards",
        "faceOnLeft": true,
        "impliedDirection": 0,
        "testDirection": 0,
        "avgFps": 180,
        "minFps": 172,
        "maxFps": 185,
        "totalFrames": 162,
        "frameRates": 180
      },
      {
        "trial_number": 40,
        "trial_index": 259,
        "rt": 1290,
        "correct": true,
        "response": "ArrowLeft",
        "congruent": true,
        "gazeTowards": true,
        "gazeCondition": "towards",
        "faceOnLeft": false,
        "impliedDirection": 180,
        "testDirection": 180,
        "avgFps": 180,
        "minFps": 167,
        "maxFps": 200,
        "totalFrames": 232,
        "frameRates": 180
      },
      {
        "trial_number": 41,
        "trial_index": 264,
        "rt": null,
        "correct": false,
        "response": null,
        "congruent": true,
        "gazeTowards": false,
        "gazeCondition": "away",
        "faceOnLeft": false,
        "impliedDirection": 180,
        "testDirection": 180,
        "avgFps": 180,
        "minFps": 175,
        "maxFps": 185,
        "totalFrames": 360,
        "frameRates": 180
      },
      {
        "trial_number": 42,
        "trial_index": 269,
        "rt": 974,
        "correct": true,
        "response": "ArrowLeft",
        "congruent": false,
        "gazeTowards": false,
        "gazeCondition": "away",
        "faceOnLeft": true,
        "impliedDirection": 0,
        "testDirection": 180,
        "avgFps": 180,
        "minFps": 175,
        "maxFps": 185,
        "totalFrames": 175,
        "frameRates": 180
      },
      {
        "trial_number": 43,
        "trial_index": 274,
        "rt": 1127,
        "correct": false,
        "response": "ArrowRight",
        "congruent": false,
        "gazeTowards": false,
        "gazeCondition": "away",
        "faceOnLeft": true,
        "impliedDirection": 0,
        "testDirection": 180,
        "avgFps": 181,
        "minFps": 172,
        "maxFps": null,
        "totalFrames": 203,
        "frameRates": 181
      },
      {
        "trial_number": 44,
        "trial_index": 285,
        "rt": 941,
        "correct": true,
        "response": "ArrowRight",
        "congruent": false,
        "gazeTowards": true,
        "gazeCondition": "towards",
        "faceOnLeft": false,
        "impliedDirection": 180,
        "testDirection": 0,
        "avgFps": 180,
        "minFps": 175,
        "maxFps": 185,
        "totalFrames": 169,
        "frameRates": 180
      },
      {
        "trial_number": 45,
        "trial_index": 290,
        "rt": 919,
        "correct": true,
        "response": "ArrowRight",
        "congruent": false,
        "gazeTowards": false,
        "gazeCondition": "away",
        "faceOnLeft": false,
        "impliedDirection": 180,
        "testDirection": 0,
        "avgFps": 180,
        "minFps": 175,
        "maxFps": 185,
        "totalFrames": 165,
        "frameRates": 180
      },
      {
        "trial_number": 46,
        "trial_index": 295,
        "rt": 830,
        "correct": true,
        "response": "ArrowRight",
        "congruent": true,
        "gazeTowards": false,
        "gazeCondition": "away",
        "faceOnLeft": true,
        "impliedDirection": 0,
        "testDirection": 0,
        "avgFps": 180,
        "minFps": 169,
        "maxFps": 185,
        "totalFrames": 149,
        "frameRates": 180
      },
      {
        "trial_number": 47,
        "trial_index": 300,
        "rt": 1368,
        "correct": true,
        "response": "ArrowRight",
        "congruent": false,
        "gazeTowards": true,
        "gazeCondition": "towards",
        "faceOnLeft": false,
        "impliedDirection": 180,
        "testDirection": 0,
        "avgFps": 180,
        "minFps": 169,
        "maxFps": 196,
        "totalFrames": 246,
        "frameRates": 180
      },
      {
        "trial_number": 48,
        "trial_index": 308,
        "rt": 1149,
        "correct": true,
        "response": "ArrowLeft",
        "congruent": false,
        "gazeTowards": false,
        "gazeCondition": "away",
        "faceOnLeft": true,
        "impliedDirection": 0,
        "testDirection": 180,
        "avgFps": 180,
        "minFps": 175,
        "maxFps": 185,
        "totalFrames": 206,
        "frameRates": 180
      },
      {
        "trial_number": 49,
        "trial_index": 313,
        "rt": 1221,
        "correct": false,
        "response": "ArrowRight",
        "congruent": false,
        "gazeTowards": false,
        "gazeCondition": "away",
        "faceOnLeft": true,
        "impliedDirection": 0,
        "testDirection": 180,
        "avgFps": 180,
        "minFps": 175,
        "maxFps": 185,
        "totalFrames": 219,
        "frameRates": 180
      },
      {
        "trial_number": 50,
        "trial_index": 318,
        "rt": 1091,
        "correct": true,
        "response": "ArrowLeft",
        "congruent": true,
        "gazeTowards": false,
        "gazeCondition": "away",
        "faceOnLeft": false,
        "impliedDirection": 180,
        "testDirection": 180,
        "avgFps": 180,
        "minFps": 175,
        "maxFps": 185,
        "totalFrames": 196,
        "frameRates": 180
      },
      {
        "trial_number": 51,
        "trial_index": 323,
        "rt": 664,
        "correct": true,
        "response": "ArrowRight",
        "congruent": false,
        "gazeTowards": true,
        "gazeCondition": "towards",
        "faceOnLeft": false,
        "impliedDirection": 180,
        "testDirection": 0,
        "avgFps": 180,
        "minFps": 167,
        "maxFps": 196,
        "totalFrames": 119,
        "frameRates": 180
      },
      {
        "trial_number": 52,
        "trial_index": 328,
        "rt": 900,
        "correct": false,
        "response": "ArrowRight",
        "congruent": false,
        "gazeTowards": true,
        "gazeCondition": "towards",
        "faceOnLeft": true,
        "impliedDirection": 0,
        "testDirection": 180,
        "avgFps": 180,
        "minFps": 172,
        "maxFps": 185,
        "totalFrames": 162,
        "frameRates": 180
      },
      {
        "trial_number": 53,
        "trial_index": 333,
        "rt": 781,
        "correct": true,
        "response": "ArrowRight",
        "congruent": false,
        "gazeTowards": false,
        "gazeCondition": "away",
        "faceOnLeft": false,
        "impliedDirection": 180,
        "testDirection": 0,
        "avgFps": 180,
        "minFps": 172,
        "maxFps": 185,
        "totalFrames": 140,
        "frameRates": 180
      },
      {
        "trial_number": 54,
        "trial_index": 338,
        "rt": 756,
        "correct": true,
        "response": "ArrowRight",
        "congruent": false,
        "gazeTowards": true,
        "gazeCondition": "towards",
        "faceOnLeft": false,
        "impliedDirection": 180,
        "testDirection": 0,
        "avgFps": 180,
        "minFps": 175,
        "maxFps": 185,
        "totalFrames": 136,
        "frameRates": 180
      },
      {
        "trial_number": 55,
        "trial_index": 343,
        "rt": 711,
        "correct": true,
        "response": "ArrowRight",
        "congruent": false,
        "gazeTowards": false,
        "gazeCondition": "away",
        "faceOnLeft": false,
        "impliedDirection": 180,
        "testDirection": 0,
        "avgFps": 180,
        "minFps": 164,
        "maxFps": 196,
        "totalFrames": 127,
        "frameRates": 180
      },
      {
        "trial_number": 56,
        "trial_index": 348,
        "rt": 904,
        "correct": false,
        "response": "ArrowRight",
        "congruent": true,
        "gazeTowards": false,
        "gazeCondition": "away",
        "faceOnLeft": false,
        "impliedDirection": 180,
        "testDirection": 180,
        "avgFps": 180,
        "minFps": 167,
        "maxFps": 200,
        "totalFrames": 162,
        "frameRates": 180
      },
      {
        "trial_number": 57,
        "trial_index": 353,
        "rt": 794,
        "correct": true,
        "response": "ArrowRight",
        "congruent": false,
        "gazeTowards": true,
        "gazeCondition": "towards",
        "faceOnLeft": false,
        "impliedDirection": 180,
        "testDirection": 0,
        "avgFps": 180,
        "minFps": 175,
        "maxFps": 185,
        "totalFrames": 142,
        "frameRates": 180
      },
      {
        "trial_number": 58,
        "trial_index": 358,
        "rt": 903,
        "correct": true,
        "response": "ArrowLeft",
        "congruent": false,
        "gazeTowards": false,
        "gazeCondition": "away",
        "faceOnLeft": true,
        "impliedDirection": 0,
        "testDirection": 180,
        "avgFps": 180,
        "minFps": 175,
        "maxFps": 185,
        "totalFrames": 162,
        "frameRates": 180
      },
      {
        "trial_number": 59,
        "trial_index": 363,
        "rt": 1246,
        "correct": true,
        "response": "ArrowRight",
        "congruent": true,
        "gazeTowards": true,
        "gazeCondition": "towards",
        "faceOnLeft": true,
        "impliedDirection": 0,
        "testDirection": 0,
        "avgFps": 180,
        "minFps": 175,
        "maxFps": 185,
        "totalFrames": 224,
        "frameRates": 180
      },
      {
        "trial_number": 60,
        "trial_index": 369,
        "rt": 1298,
        "correct": true,
        "response": "ArrowRight",
        "congruent": false,
        "gazeTowards": true,
        "gazeCondition": "towards",
        "faceOnLeft": false,
        "impliedDirection": 180,
        "testDirection": 0,
        "avgFps": 180,
        "minFps": 156,
        "maxFps": 217,
        "totalFrames": 233,
        "frameRates": 180
      },
      {
        "trial_number": 61,
        "trial_index": 374,
        "rt": 1020,
        "correct": true,
        "response": "ArrowRight",
        "congruent": true,
        "gazeTowards": true,
        "gazeCondition": "towards",
        "faceOnLeft": true,
        "impliedDirection": 0,
        "testDirection": 0,
        "avgFps": 180,
        "minFps": 172,
        "maxFps": 185,
        "totalFrames": 184,
        "frameRates": 180
      },
      {
        "trial_number": 62,
        "trial_index": 379,
        "rt": 733,
        "correct": true,
        "response": "ArrowRight",
        "congruent": true,
        "gazeTowards": true,
        "gazeCondition": "towards",
        "faceOnLeft": true,
        "impliedDirection": 0,
        "testDirection": 0,
        "avgFps": 180,
        "minFps": 172,
        "maxFps": 185,
        "totalFrames": 131,
        "frameRates": 180
      },
      {
        "trial_number": 63,
        "trial_index": 384,
        "rt": 1010,
        "correct": true,
        "response": "ArrowRight",
        "congruent": true,
        "gazeTowards": true,
        "gazeCondition": "towards",
        "faceOnLeft": true,
        "impliedDirection": 0,
        "testDirection": 0,
        "avgFps": 180,
        "minFps": 175,
        "maxFps": 189,
        "totalFrames": 181,
        "frameRates": 180
      },
      {
        "trial_number": 64,
        "trial_index": 389,
        "rt": 618,
        "correct": true,
        "response": "ArrowRight",
        "congruent": false,
        "gazeTowards": false,
        "gazeCondition": "away",
        "faceOnLeft": false,
        "impliedDirection": 180,
        "testDirection": 0,
        "avgFps": 180,
        "minFps": 172,
        "maxFps": 192,
        "totalFrames": 111,
        "frameRates": 180
      },
      {
        "trial_number": 65,
        "trial_index": 394,
        "rt": 538,
        "correct": true,
        "response": "ArrowRight",
        "congruent": false,
        "gazeTowards": false,
        "gazeCondition": "away",
        "faceOnLeft": false,
        "impliedDirection": 180,
        "testDirection": 0,
        "avgFps": 180,
        "minFps": 175,
        "maxFps": 185,
        "totalFrames": 96,
        "frameRates": 180
      },
      {
        "trial_number": 66,
        "trial_index": 399,
        "rt": 600,
        "correct": true,
        "response": "ArrowLeft",
        "congruent": false,
        "gazeTowards": true,
        "gazeCondition": "towards",
        "faceOnLeft": true,
        "impliedDirection": 0,
        "testDirection": 180,
        "avgFps": 180,
        "minFps": 175,
        "maxFps": 185,
        "totalFrames": 108,
        "frameRates": 180
      },
      {
        "trial_number": 67,
        "trial_index": 404,
        "rt": 666,
        "correct": true,
        "response": "ArrowRight",
        "congruent": false,
        "gazeTowards": false,
        "gazeCondition": "away",
        "faceOnLeft": false,
        "impliedDirection": 180,
        "testDirection": 0,
        "avgFps": 180,
        "minFps": 172,
        "maxFps": 185,
        "totalFrames": 120,
        "frameRates": 180
      },
      {
        "trial_number": 68,
        "trial_index": 409,
        "rt": 758,
        "correct": true,
        "response": "ArrowRight",
        "congruent": true,
        "gazeTowards": true,
        "gazeCondition": "towards",
        "faceOnLeft": true,
        "impliedDirection": 0,
        "testDirection": 0,
        "avgFps": 180,
        "minFps": 172,
        "maxFps": 185,
        "totalFrames": 136,
        "frameRates": 180
      },
      {
        "trial_number": 69,
        "trial_index": 414,
        "rt": 842,
        "correct": true,
        "response": "ArrowLeft",
        "congruent": true,
        "gazeTowards": false,
        "gazeCondition": "away",
        "faceOnLeft": false,
        "impliedDirection": 180,
        "testDirection": 180,
        "avgFps": 180,
        "minFps": 172,
        "maxFps": 185,
        "totalFrames": 151,
        "frameRates": 180
      },
      {
        "trial_number": 70,
        "trial_index": 419,
        "rt": 846,
        "correct": true,
        "response": "ArrowRight",
        "congruent": true,
        "gazeTowards": false,
        "gazeCondition": "away",
        "faceOnLeft": true,
        "impliedDirection": 0,
        "testDirection": 0,
        "avgFps": 180,
        "minFps": 169,
        "maxFps": 192,
        "totalFrames": 152,
        "frameRates": 180
      },
      {
        "trial_number": 71,
        "trial_index": 424,
        "rt": 761,
        "correct": true,
        "response": "ArrowRight",
        "congruent": true,
        "gazeTowards": true,
        "gazeCondition": "towards",
        "faceOnLeft": true,
        "impliedDirection": 0,
        "testDirection": 0,
        "avgFps": 180,
        "minFps": 175,
        "maxFps": 185,
        "totalFrames": 136,
        "frameRates": 180
      },
      {
        "trial_number": 72,
        "trial_index": 429,
        "rt": 656,
        "correct": true,
        "response": "ArrowLeft",
        "congruent": false,
        "gazeTowards": false,
        "gazeCondition": "away",
        "faceOnLeft": true,
        "impliedDirection": 0,
        "testDirection": 180,
        "avgFps": 180,
        "minFps": 175,
        "maxFps": 185,
        "totalFrames": 118,
        "frameRates": 180
      },
      {
        "trial_number": 73,
        "trial_index": 434,
        "rt": 651,
        "correct": true,
        "response": "ArrowLeft",
        "congruent": true,
        "gazeTowards": false,
        "gazeCondition": "away",
        "faceOnLeft": false,
        "impliedDirection": 180,
        "testDirection": 180,
        "avgFps": 180,
        "minFps": 175,
        "maxFps": 189,
        "totalFrames": 117,
        "frameRates": 180
      },
      {
        "trial_number": 74,
        "trial_index": 439,
        "rt": 898,
        "correct": true,
        "response": "ArrowLeft",
        "congruent": false,
        "gazeTowards": false,
        "gazeCondition": "away",
        "faceOnLeft": true,
        "impliedDirection": 0,
        "testDirection": 180,
        "avgFps": 180,
        "minFps": 172,
        "maxFps": 185,
        "totalFrames": 161,
        "frameRates": 180
      },
      {
        "trial_number": 75,
        "trial_index": 444,
        "rt": 641,
        "correct": true,
        "response": "ArrowLeft",
        "congruent": true,
        "gazeTowards": false,
        "gazeCondition": "away",
        "faceOnLeft": false,
        "impliedDirection": 180,
        "testDirection": 180,
        "avgFps": 180,
        "minFps": 175,
        "maxFps": 185,
        "totalFrames": 115,
        "frameRates": 180
      },
      {
        "trial_number": 76,
        "trial_index": 449,
        "rt": 563,
        "correct": false,
        "response": "ArrowLeft",
        "congruent": false,
        "gazeTowards": false,
        "gazeCondition": "away",
        "faceOnLeft": false,
        "impliedDirection": 180,
        "testDirection": 0,
        "avgFps": 180,
        "minFps": 159,
        "maxFps": 213,
        "totalFrames": 101,
        "frameRates": 180
      },
      {
        "trial_number": 77,
        "trial_index": 457,
        "rt": 877,
        "correct": true,
        "response": "ArrowLeft",
        "congruent": true,
        "gazeTowards": false,
        "gazeCondition": "away",
        "faceOnLeft": false,
        "impliedDirection": 180,
        "testDirection": 180,
        "avgFps": 180,
        "minFps": 175,
        "maxFps": 185,
        "totalFrames": 157,
        "frameRates": 180
      },
      {
        "trial_number": 78,
        "trial_index": 462,
        "rt": 566,
        "correct": false,
        "response": "ArrowLeft",
        "congruent": true,
        "gazeTowards": true,
        "gazeCondition": "towards",
        "faceOnLeft": true,
        "impliedDirection": 0,
        "testDirection": 0,
        "avgFps": 180,
        "minFps": 175,
        "maxFps": 185,
        "totalFrames": 102,
        "frameRates": 180
      },
      {
        "trial_number": 79,
        "trial_index": 467,
        "rt": 1117,
        "correct": true,
        "response": "ArrowRight",
        "congruent": false,
        "gazeTowards": true,
        "gazeCondition": "towards",
        "faceOnLeft": false,
        "impliedDirection": 180,
        "testDirection": 0,
        "avgFps": 180,
        "minFps": 175,
        "maxFps": 185,
        "totalFrames": 201,
        "frameRates": 180
      },
      {
        "trial_number": 80,
        "trial_index": 472,
        "rt": 620,
        "correct": true,
        "response": "ArrowLeft",
        "congruent": true,
        "gazeTowards": true,
        "gazeCondition": "towards",
        "faceOnLeft": false,
        "impliedDirection": 180,
        "testDirection": 180,
        "avgFps": 180,
        "minFps": 175,
        "maxFps": 185,
        "totalFrames": 111,
        "frameRates": 180
      },
      {
        "trial_number": 81,
        "trial_index": 477,
        "rt": 556,
        "correct": true,
        "response": "ArrowLeft",
        "congruent": false,
        "gazeTowards": false,
        "gazeCondition": "away",
        "faceOnLeft": true,
        "impliedDirection": 0,
        "testDirection": 180,
        "avgFps": 180,
        "minFps": 172,
        "maxFps": 189,
        "totalFrames": 100,
        "frameRates": 180
      },
      {
        "trial_number": 82,
        "trial_index": 482,
        "rt": 845,
        "correct": true,
        "response": "ArrowRight",
        "congruent": true,
        "gazeTowards": true,
        "gazeCondition": "towards",
        "faceOnLeft": true,
        "impliedDirection": 0,
        "testDirection": 0,
        "avgFps": 180,
        "minFps": 172,
        "maxFps": 189,
        "totalFrames": 152,
        "frameRates": 180
      },
      {
        "trial_number": 83,
        "trial_index": 487,
        "rt": 966,
        "correct": true,
        "response": "ArrowLeft",
        "congruent": false,
        "gazeTowards": false,
        "gazeCondition": "away",
        "faceOnLeft": true,
        "impliedDirection": 0,
        "testDirection": 180,
        "avgFps": 180,
        "minFps": 169,
        "maxFps": 192,
        "totalFrames": 174,
        "frameRates": 180
      },
      {
        "trial_number": 84,
        "trial_index": 495,
        "rt": 860,
        "correct": false,
        "response": "ArrowLeft",
        "congruent": true,
        "gazeTowards": false,
        "gazeCondition": "away",
        "faceOnLeft": true,
        "impliedDirection": 0,
        "testDirection": 0,
        "avgFps": 180,
        "minFps": 154,
        "maxFps": 217,
        "totalFrames": 154,
        "frameRates": 180
      },
      {
        "trial_number": 85,
        "trial_index": 500,
        "rt": 1290,
        "correct": false,
        "response": "ArrowRight",
        "congruent": true,
        "gazeTowards": false,
        "gazeCondition": "away",
        "faceOnLeft": false,
        "impliedDirection": 180,
        "testDirection": 180,
        "avgFps": 180,
        "minFps": 172,
        "maxFps": 185,
        "totalFrames": 232,
        "frameRates": 180
      },
      {
        "trial_number": 86,
        "trial_index": 505,
        "rt": 866,
        "correct": true,
        "response": "ArrowRight",
        "congruent": true,
        "gazeTowards": false,
        "gazeCondition": "away",
        "faceOnLeft": true,
        "impliedDirection": 0,
        "testDirection": 0,
        "avgFps": 180,
        "minFps": 172,
        "maxFps": 189,
        "totalFrames": 156,
        "frameRates": 180
      },
      {
        "trial_number": 87,
        "trial_index": 510,
        "rt": 777,
        "correct": true,
        "response": "ArrowRight",
        "congruent": false,
        "gazeTowards": false,
        "gazeCondition": "away",
        "faceOnLeft": false,
        "impliedDirection": 180,
        "testDirection": 0,
        "avgFps": 180,
        "minFps": 175,
        "maxFps": 189,
        "totalFrames": 139,
        "frameRates": 180
      },
      {
        "trial_number": 88,
        "trial_index": 515,
        "rt": 843,
        "correct": false,
        "response": "ArrowRight",
        "congruent": false,
        "gazeTowards": true,
        "gazeCondition": "towards",
        "faceOnLeft": true,
        "impliedDirection": 0,
        "testDirection": 180,
        "avgFps": 181,
        "minFps": 172,
        "maxFps": null,
        "totalFrames": 152,
        "frameRates": 181
      },
      {
        "trial_number": 89,
        "trial_index": 520,
        "rt": 1236,
        "correct": true,
        "response": "ArrowRight",
        "congruent": false,
        "gazeTowards": true,
        "gazeCondition": "towards",
        "faceOnLeft": false,
        "impliedDirection": 180,
        "testDirection": 0,
        "avgFps": 180,
        "minFps": 149,
        "maxFps": 227,
        "totalFrames": 223,
        "frameRates": 180
      },
      {
        "trial_number": 90,
        "trial_index": 525,
        "rt": 1113,
        "correct": true,
        "response": "ArrowRight",
        "congruent": true,
        "gazeTowards": false,
        "gazeCondition": "away",
        "faceOnLeft": true,
        "impliedDirection": 0,
        "testDirection": 0,
        "avgFps": 180,
        "minFps": 175,
        "maxFps": 185,
        "totalFrames": 200,
        "frameRates": 180
      },
      {
        "trial_number": 91,
        "trial_index": 531,
        "rt": 679,
        "correct": true,
        "response": "ArrowLeft",
        "congruent": true,
        "gazeTowards": true,
        "gazeCondition": "towards",
        "faceOnLeft": false,
        "impliedDirection": 180,
        "testDirection": 180,
        "avgFps": 180,
        "minFps": 175,
        "maxFps": 185,
        "totalFrames": 122,
        "frameRates": 180
      },
      {
        "trial_number": 92,
        "trial_index": 536,
        "rt": 622,
        "correct": true,
        "response": "ArrowRight",
        "congruent": true,
        "gazeTowards": false,
        "gazeCondition": "away",
        "faceOnLeft": true,
        "impliedDirection": 0,
        "testDirection": 0,
        "avgFps": 180,
        "minFps": 175,
        "maxFps": 185,
        "totalFrames": 112,
        "frameRates": 180
      },
      {
        "trial_number": 93,
        "trial_index": 544,
        "rt": 791,
        "correct": true,
        "response": "ArrowRight",
        "congruent": false,
        "gazeTowards": true,
        "gazeCondition": "towards",
        "faceOnLeft": false,
        "impliedDirection": 180,
        "testDirection": 0,
        "avgFps": 180,
        "minFps": 167,
        "maxFps": 196,
        "totalFrames": 142,
        "frameRates": 180
      },
      {
        "trial_number": 94,
        "trial_index": 549,
        "rt": 855,
        "correct": true,
        "response": "ArrowRight",
        "congruent": false,
        "gazeTowards": false,
        "gazeCondition": "away",
        "faceOnLeft": false,
        "impliedDirection": 180,
        "testDirection": 0,
        "avgFps": 180,
        "minFps": 172,
        "maxFps": 192,
        "totalFrames": 153,
        "frameRates": 180
      },
      {
        "trial_number": 95,
        "trial_index": 557,
        "rt": 589,
        "correct": true,
        "response": "ArrowLeft",
        "congruent": false,
        "gazeTowards": false,
        "gazeCondition": "away",
        "faceOnLeft": true,
        "impliedDirection": 0,
        "testDirection": 180,
        "avgFps": 180,
        "minFps": 175,
        "maxFps": 185,
        "totalFrames": 106,
        "frameRates": 180
      },
      {
        "trial_number": 96,
        "trial_index": 565,
        "rt": 570,
        "correct": true,
        "response": "ArrowRight",
        "congruent": true,
        "gazeTowards": true,
        "gazeCondition": "towards",
        "faceOnLeft": true,
        "impliedDirection": 0,
        "testDirection": 0,
        "avgFps": 180,
        "minFps": 175,
        "maxFps": 185,
        "totalFrames": 103,
        "frameRates": 180
      },
      {
        "trial_number": 97,
        "trial_index": 570,
        "rt": 561,
        "correct": true,
        "response": "ArrowLeft",
        "congruent": true,
        "gazeTowards": false,
        "gazeCondition": "away",
        "faceOnLeft": false,
        "impliedDirection": 180,
        "testDirection": 180,
        "avgFps": 180,
        "minFps": 156,
        "maxFps": 213,
        "totalFrames": 101,
        "frameRates": 180
      },
      {
        "trial_number": 98,
        "trial_index": 575,
        "rt": 673,
        "correct": true,
        "response": "ArrowRight",
        "congruent": false,
        "gazeTowards": false,
        "gazeCondition": "away",
        "faceOnLeft": false,
        "impliedDirection": 180,
        "testDirection": 0,
        "avgFps": 180,
        "minFps": 175,
        "maxFps": 185,
        "totalFrames": 121,
        "frameRates": 180
      },
      {
        "trial_number": 99,
        "trial_index": 580,
        "rt": 801,
        "correct": true,
        "response": "ArrowLeft",
        "congruent": false,
        "gazeTowards": true,
        "gazeCondition": "towards",
        "faceOnLeft": true,
        "impliedDirection": 0,
        "testDirection": 180,
        "avgFps": 180,
        "minFps": 167,
        "maxFps": 196,
        "totalFrames": 144,
        "frameRates": 180
      },
      {
        "trial_number": 100,
        "trial_index": 585,
        "rt": 558,
        "correct": true,
        "response": "ArrowRight",
        "congruent": true,
        "gazeTowards": false,
        "gazeCondition": "away",
        "faceOnLeft": true,
        "impliedDirection": 0,
        "testDirection": 0,
        "avgFps": 182,
        "minFps": 143,
        "maxFps": 11905,
        "totalFrames": 100,
        "frameRates": 182
      },
      {
        "trial_number": 101,
        "trial_index": 590,
        "rt": 1134,
        "correct": false,
        "response": "ArrowRight",
        "congruent": false,
        "gazeTowards": false,
        "gazeCondition": "away",
        "faceOnLeft": true,
        "impliedDirection": 0,
        "testDirection": 180,
        "avgFps": 180,
        "minFps": 175,
        "maxFps": 185,
        "totalFrames": 204,
        "frameRates": 180
      },
      {
        "trial_number": 102,
        "trial_index": 595,
        "rt": 588,
        "correct": true,
        "response": "ArrowRight",
        "congruent": true,
        "gazeTowards": true,
        "gazeCondition": "towards",
        "faceOnLeft": true,
        "impliedDirection": 0,
        "testDirection": 0,
        "avgFps": 180,
        "minFps": 175,
        "maxFps": 189,
        "totalFrames": 106,
        "frameRates": 180
      },
      {
        "trial_number": 103,
        "trial_index": 600,
        "rt": 691,
        "correct": true,
        "response": "ArrowRight",
        "congruent": false,
        "gazeTowards": true,
        "gazeCondition": "towards",
        "faceOnLeft": false,
        "impliedDirection": 180,
        "testDirection": 0,
        "avgFps": 180,
        "minFps": 172,
        "maxFps": 185,
        "totalFrames": 124,
        "frameRates": 180
      },
      {
        "trial_number": 104,
        "trial_index": 605,
        "rt": 480,
        "correct": true,
        "response": "ArrowRight",
        "congruent": true,
        "gazeTowards": false,
        "gazeCondition": "away",
        "faceOnLeft": true,
        "impliedDirection": 0,
        "testDirection": 0,
        "avgFps": 180,
        "minFps": 159,
        "maxFps": 213,
        "totalFrames": 86,
        "frameRates": 180
      },
      {
        "trial_number": 105,
        "trial_index": 610,
        "rt": 727,
        "correct": false,
        "response": "ArrowRight",
        "congruent": false,
        "gazeTowards": false,
        "gazeCondition": "away",
        "faceOnLeft": true,
        "impliedDirection": 0,
        "testDirection": 180,
        "avgFps": 180,
        "minFps": 172,
        "maxFps": 189,
        "totalFrames": 130,
        "frameRates": 180
      },
      {
        "trial_number": 106,
        "trial_index": 615,
        "rt": 579,
        "correct": true,
        "response": "ArrowRight",
        "congruent": false,
        "gazeTowards": true,
        "gazeCondition": "towards",
        "faceOnLeft": false,
        "impliedDirection": 180,
        "testDirection": 0,
        "avgFps": 180,
        "minFps": 175,
        "maxFps": 185,
        "totalFrames": 104,
        "frameRates": 180
      },
      {
        "trial_number": 107,
        "trial_index": 620,
        "rt": 557,
        "correct": true,
        "response": "ArrowRight",
        "congruent": true,
        "gazeTowards": false,
        "gazeCondition": "away",
        "faceOnLeft": true,
        "impliedDirection": 0,
        "testDirection": 0,
        "avgFps": 180,
        "minFps": 175,
        "maxFps": 185,
        "totalFrames": 100,
        "frameRates": 180
      },
      {
        "trial_number": 108,
        "trial_index": 628,
        "rt": 555,
        "correct": true,
        "response": "ArrowRight",
        "congruent": false,
        "gazeTowards": false,
        "gazeCondition": "away",
        "faceOnLeft": false,
        "impliedDirection": 180,
        "testDirection": 0,
        "avgFps": 180,
        "minFps": 172,
        "maxFps": 185,
        "totalFrames": 99,
        "frameRates": 180
      },
      {
        "trial_number": 109,
        "trial_index": 633,
        "rt": 722,
        "correct": false,
        "response": "ArrowRight",
        "congruent": true,
        "gazeTowards": true,
        "gazeCondition": "towards",
        "faceOnLeft": false,
        "impliedDirection": 180,
        "testDirection": 180,
        "avgFps": 180,
        "minFps": 175,
        "maxFps": 185,
        "totalFrames": 130,
        "frameRates": 180
      },
      {
        "trial_number": 110,
        "trial_index": 638,
        "rt": 697,
        "correct": false,
        "response": "ArrowRight",
        "congruent": true,
        "gazeTowards": false,
        "gazeCondition": "away",
        "faceOnLeft": false,
        "impliedDirection": 180,
        "testDirection": 180,
        "avgFps": 180,
        "minFps": 175,
        "maxFps": 185,
        "totalFrames": 125,
        "frameRates": 180
      },
      {
        "trial_number": 111,
        "trial_index": 643,
        "rt": 945,
        "correct": true,
        "response": "ArrowLeft",
        "congruent": true,
        "gazeTowards": false,
        "gazeCondition": "away",
        "faceOnLeft": false,
        "impliedDirection": 180,
        "testDirection": 180,
        "avgFps": 180,
        "minFps": 175,
        "maxFps": 185,
        "totalFrames": 170,
        "frameRates": 180
      },
      {
        "trial_number": 112,
        "trial_index": 648,
        "rt": 898,
        "correct": false,
        "response": "ArrowRight",
        "congruent": true,
        "gazeTowards": true,
        "gazeCondition": "towards",
        "faceOnLeft": false,
        "impliedDirection": 180,
        "testDirection": 180,
        "avgFps": 180,
        "minFps": 175,
        "maxFps": 185,
        "totalFrames": 162,
        "frameRates": 180
      },
      {
        "trial_number": 113,
        "trial_index": 653,
        "rt": 562,
        "correct": true,
        "response": "ArrowRight",
        "congruent": true,
        "gazeTowards": true,
        "gazeCondition": "towards",
        "faceOnLeft": true,
        "impliedDirection": 0,
        "testDirection": 0,
        "avgFps": 180,
        "minFps": 169,
        "maxFps": 189,
        "totalFrames": 101,
        "frameRates": 180
      },
      {
        "trial_number": 114,
        "trial_index": 658,
        "rt": 652,
        "correct": true,
        "response": "ArrowRight",
        "congruent": false,
        "gazeTowards": true,
        "gazeCondition": "towards",
        "faceOnLeft": false,
        "impliedDirection": 180,
        "testDirection": 0,
        "avgFps": 180,
        "minFps": 172,
        "maxFps": 189,
        "totalFrames": 117,
        "frameRates": 180
      },
      {
        "trial_number": 115,
        "trial_index": 663,
        "rt": 1025,
        "correct": true,
        "response": "ArrowLeft",
        "congruent": true,
        "gazeTowards": false,
        "gazeCondition": "away",
        "faceOnLeft": false,
        "impliedDirection": 180,
        "testDirection": 180,
        "avgFps": 180,
        "minFps": 172,
        "maxFps": 185,
        "totalFrames": 184,
        "frameRates": 180
      },
      {
        "trial_number": 116,
        "trial_index": 668,
        "rt": 900,
        "correct": true,
        "response": "ArrowLeft",
        "congruent": true,
        "gazeTowards": true,
        "gazeCondition": "towards",
        "faceOnLeft": false,
        "impliedDirection": 180,
        "testDirection": 180,
        "avgFps": 180,
        "minFps": 175,
        "maxFps": 185,
        "totalFrames": 161,
        "frameRates": 180
      },
      {
        "trial_number": 117,
        "trial_index": 673,
        "rt": 791,
        "correct": true,
        "response": "ArrowRight",
        "congruent": true,
        "gazeTowards": false,
        "gazeCondition": "away",
        "faceOnLeft": true,
        "impliedDirection": 0,
        "testDirection": 0,
        "avgFps": 180,
        "minFps": 175,
        "maxFps": 185,
        "totalFrames": 142,
        "frameRates": 180
      },
      {
        "trial_number": 118,
        "trial_index": 678,
        "rt": 1166,
        "correct": true,
        "response": "ArrowLeft",
        "congruent": true,
        "gazeTowards": false,
        "gazeCondition": "away",
        "faceOnLeft": false,
        "impliedDirection": 180,
        "testDirection": 180,
        "avgFps": 180,
        "minFps": 172,
        "maxFps": 185,
        "totalFrames": 209,
        "frameRates": 180
      },
      {
        "trial_number": 119,
        "trial_index": 683,
        "rt": 795,
        "correct": true,
        "response": "ArrowLeft",
        "congruent": false,
        "gazeTowards": false,
        "gazeCondition": "away",
        "faceOnLeft": true,
        "impliedDirection": 0,
        "testDirection": 180,
        "avgFps": 180,
        "minFps": 175,
        "maxFps": 189,
        "totalFrames": 143,
        "frameRates": 180
      }
    ],
    "catch": {
      "total": 12,
      "correct": 12,
      "accuracy": 100,
      "meanRT": 648,
      "trials": [
        {
          "trial_number": 0,
          "trial_index": 98,
          "rt": 556,
          "correct": true,
          "colorTarget": "face",
          "gazeTowards": true,
          "gazeCondition": "towards",
          "faceOnLeft": false
        },
        {
          "trial_number": 1,
          "trial_index": 156,
          "rt": 688,
          "correct": true,
          "colorTarget": "tree",
          "gazeTowards": false,
          "gazeCondition": "away",
          "faceOnLeft": false
        },
        {
          "trial_number": 2,
          "trial_index": 215,
          "rt": 678,
          "correct": true,
          "colorTarget": "face",
          "gazeTowards": false,
          "gazeCondition": "away",
          "faceOnLeft": true
        },
        {
          "trial_number": 3,
          "trial_index": 278,
          "rt": 565,
          "correct": true,
          "colorTarget": "face",
          "gazeTowards": true,
          "gazeCondition": "towards",
          "faceOnLeft": true
        },
        {
          "trial_number": 4,
          "trial_index": 281,
          "rt": 737,
          "correct": true,
          "colorTarget": "tree",
          "gazeTowards": false,
          "gazeCondition": "away",
          "faceOnLeft": true
        },
        {
          "trial_number": 5,
          "trial_index": 304,
          "rt": 575,
          "correct": true,
          "colorTarget": "tree",
          "gazeTowards": false,
          "gazeCondition": "away",
          "faceOnLeft": true
        },
        {
          "trial_number": 6,
          "trial_index": 453,
          "rt": 639,
          "correct": true,
          "colorTarget": "tree",
          "gazeTowards": false,
          "gazeCondition": "away",
          "faceOnLeft": false
        },
        {
          "trial_number": 7,
          "trial_index": 491,
          "rt": 746,
          "correct": true,
          "colorTarget": "face",
          "gazeTowards": false,
          "gazeCondition": "away",
          "faceOnLeft": true
        },
        {
          "trial_number": 8,
          "trial_index": 540,
          "rt": 691,
          "correct": true,
          "colorTarget": "tree",
          "gazeTowards": true,
          "gazeCondition": "towards",
          "faceOnLeft": false
        },
        {
          "trial_number": 9,
          "trial_index": 553,
          "rt": 594,
          "correct": true,
          "colorTarget": "face",
          "gazeTowards": false,
          "gazeCondition": "away",
          "faceOnLeft": true
        },
        {
          "trial_number": 10,
          "trial_index": 561,
          "rt": 699,
          "correct": true,
          "colorTarget": "face",
          "gazeTowards": false,
          "gazeCondition": "away",
          "faceOnLeft": false
        },
        {
          "trial_number": 11,
          "trial_index": 624,
          "rt": 610,
          "correct": true,
          "colorTarget": "tree",
          "gazeTowards": true,
          "gazeCondition": "towards",
          "faceOnLeft": false
        }
      ]
    },
    "practice": {
      "trials": [
        {
          "trial_number": 0,
          "rt": null,
          "correct": false,
          "direction": 180
        },
        {
          "trial_number": 1,
          "rt": 802,
          "correct": true,
          "direction": 180
        },
        {
          "trial_number": 2,
          "rt": 877,
          "correct": true,
          "direction": 0
        },
        {
          "trial_number": 3,
          "rt": 799,
          "correct": true,
          "direction": 0
        },
        {
          "trial_number": 4,
          "rt": 1353,
          "correct": true,
          "direction": 0
        },
        {
          "trial_number": 5,
          "rt": 888,
          "correct": true,
          "direction": 180
        },
        {
          "trial_number": 6,
          "rt": 684,
          "correct": true,
          "direction": 180
        },
        {
          "trial_number": 7,
          "rt": 722,
          "correct": true,
          "direction": 0
        },
        {
          "trial_number": 8,
          "rt": 658,
          "correct": true,
          "direction": 180
        },
        {
          "trial_number": 9,
          "rt": 714,
          "correct": true,
          "direction": 180
        }
      ],
      "meanRT": 833,
      "accuracy": 90
    }
  }
}