{
  "experiment": "rdk-face-1",
  "UUID": "248ddff7-c8e8-4f43-8401-bf55d9ce1724",
  "data": {
    "session": {
      "experiment_version": "1.8.6",
      "treatment": "faces_towards_away_catch",
      "file_version": "1.8.6",
      "totalTrials": 120,
      "totalTrialsIncludingCatch": 132,
      "conditions": {
        "gazeTowardsCount": 60,
        "gazeAwayCount": 60,
        "gazeTowardsAccuracy": 100,
        "gazeAwayAccuracy": 100
      },
      "session_group": "default",
      "browserData": {
        "os": "Windows",
        "browser": "Chrome",
        "screenResolution": "1316x740",
        "browserViewport": "1316x740",
        "devicePixelRatio": 1.4600000381469727,
        "colorDepth": 32,
        "hardwareConcurrency": 16,
        "deviceMemory": 8,
        "gpuRenderer": "ANGLE (Intel, Intel(R) UHD Graphics (0x00009A60) Direct3D11 vs_5_0 ps_5_0, D3D11)",
        "measuredRefreshRateHz": 125
      },
      "attention": {
        "visibilityEvents": [
          {
            "event": "blur",
            "state": "blurred",
            "timestamp": 1772774094892
          },
          {
            "event": "visibilitychange",
            "state": "hidden",
            "timestamp": 1772774094895
          },
          {
            "event": "visibilitychange",
            "state": "visible",
            "timestamp": 1772774096829
          },
          {
            "event": "focus",
            "state": "focused",
            "timestamp": 1772774096830
          }
        ]
      },
      "calibration": {
        "monitorWidthCm": 38,
        "viewingDistanceCm": 54,
        "pixelsPerDegree": 50
      },
      "parameters": {
        "coherence": 0.4,
        "apertureDeg": 5,
        "densityDotsPerDeg2": 40,
        "dotDiameterDeg": 0.035,
        "dotSpeedDegPerSec": 3,
        "lifetimeMs": 200,
        "fixationDurationMs": 1500,
        "faceDurationMs": 1500,
        "testDurationMs": 2000,
        "catchResponseMs": 3000
      },
      "prolific": {
        "prolificPid": "6062b93c144a15d18ddc2461",
        "studyId": "",
        "sessionId": ""
      },
      "timing": {
        "startTime": "2026-03-06T05:14:52.760Z",
        "endTime": "2026-03-06T05:29:24.899Z",
        "totalElapsedTimeMs": 872139
      }
    },
    "trials": [
      {
        "trial_number": 0,
        "trial_index": 49,
        "rt": 1836,
        "correct": true,
        "response": "ArrowRight",
        "congruent": true,
        "gazeTowards": true,
        "gazeCondition": "towards",
        "faceOnLeft": true,
        "impliedDirection": 0,
        "testDirection": 0,
        "avgFps": 144,
        "minFps": 139,
        "maxFps": 149,
        "totalFrames": 264,
        "frameRates": 144
      },
      {
        "trial_number": 1,
        "trial_index": 57,
        "rt": 1101,
        "correct": true,
        "response": "ArrowRight",
        "congruent": true,
        "gazeTowards": false,
        "gazeCondition": "away",
        "faceOnLeft": true,
        "impliedDirection": 0,
        "testDirection": 0,
        "avgFps": 144,
        "minFps": 139,
        "maxFps": 147,
        "totalFrames": 159,
        "frameRates": 144
      },
      {
        "trial_number": 2,
        "trial_index": 62,
        "rt": 1057,
        "correct": true,
        "response": "ArrowRight",
        "congruent": true,
        "gazeTowards": true,
        "gazeCondition": "towards",
        "faceOnLeft": true,
        "impliedDirection": 0,
        "testDirection": 0,
        "avgFps": 144,
        "minFps": 141,
        "maxFps": 149,
        "totalFrames": 152,
        "frameRates": 144
      },
      {
        "trial_number": 3,
        "trial_index": 67,
        "rt": 1003,
        "correct": true,
        "response": "ArrowLeft",
        "congruent": false,
        "gazeTowards": false,
        "gazeCondition": "away",
        "faceOnLeft": true,
        "impliedDirection": 0,
        "testDirection": 180,
        "avgFps": 144,
        "minFps": 139,
        "maxFps": 149,
        "totalFrames": 145,
        "frameRates": 144
      },
      {
        "trial_number": 4,
        "trial_index": 72,
        "rt": 929,
        "correct": true,
        "response": "ArrowLeft",
        "congruent": false,
        "gazeTowards": false,
        "gazeCondition": "away",
        "faceOnLeft": true,
        "impliedDirection": 0,
        "testDirection": 180,
        "avgFps": 144,
        "minFps": 141,
        "maxFps": 147,
        "totalFrames": 134,
        "frameRates": 144
      },
      {
        "trial_number": 5,
        "trial_index": 77,
        "rt": 893,
        "correct": true,
        "response": "ArrowLeft",
        "congruent": false,
        "gazeTowards": true,
        "gazeCondition": "towards",
        "faceOnLeft": true,
        "impliedDirection": 0,
        "testDirection": 180,
        "avgFps": 144,
        "minFps": 141,
        "maxFps": 147,
        "totalFrames": 129,
        "frameRates": 144
      },
      {
        "trial_number": 6,
        "trial_index": 85,
        "rt": 836,
        "correct": true,
        "response": "ArrowLeft",
        "congruent": false,
        "gazeTowards": true,
        "gazeCondition": "towards",
        "faceOnLeft": true,
        "impliedDirection": 0,
        "testDirection": 180,
        "avgFps": 144,
        "minFps": 141,
        "maxFps": 149,
        "totalFrames": 121,
        "frameRates": 144
      },
      {
        "trial_number": 7,
        "trial_index": 90,
        "rt": 747,
        "correct": true,
        "response": "ArrowLeft",
        "congruent": true,
        "gazeTowards": false,
        "gazeCondition": "away",
        "faceOnLeft": false,
        "impliedDirection": 180,
        "testDirection": 180,
        "avgFps": 144,
        "minFps": 141,
        "maxFps": 149,
        "totalFrames": 107,
        "frameRates": 144
      },
      {
        "trial_number": 8,
        "trial_index": 95,
        "rt": 808,
        "correct": true,
        "response": "ArrowRight",
        "congruent": true,
        "gazeTowards": true,
        "gazeCondition": "towards",
        "faceOnLeft": true,
        "impliedDirection": 0,
        "testDirection": 0,
        "avgFps": 144,
        "minFps": 139,
        "maxFps": 149,
        "totalFrames": 117,
        "frameRates": 144
      },
      {
        "trial_number": 9,
        "trial_index": 100,
        "rt": 1289,
        "correct": true,
        "response": "ArrowRight",
        "congruent": false,
        "gazeTowards": false,
        "gazeCondition": "away",
        "faceOnLeft": false,
        "impliedDirection": 180,
        "testDirection": 0,
        "avgFps": 144,
        "minFps": 139,
        "maxFps": 266,
        "totalFrames": 186,
        "frameRates": 144
      },
      {
        "trial_number": 10,
        "trial_index": 105,
        "rt": 984,
        "correct": true,
        "response": "ArrowRight",
        "congruent": true,
        "gazeTowards": true,
        "gazeCondition": "towards",
        "faceOnLeft": true,
        "impliedDirection": 0,
        "testDirection": 0,
        "avgFps": 144,
        "minFps": 141,
        "maxFps": 147,
        "totalFrames": 142,
        "frameRates": 144
      },
      {
        "trial_number": 11,
        "trial_index": 110,
        "rt": 675,
        "correct": true,
        "response": "ArrowLeft",
        "congruent": false,
        "gazeTowards": true,
        "gazeCondition": "towards",
        "faceOnLeft": true,
        "impliedDirection": 0,
        "testDirection": 180,
        "avgFps": 144,
        "minFps": 141,
        "maxFps": 149,
        "totalFrames": 97,
        "frameRates": 144
      },
      {
        "trial_number": 12,
        "trial_index": 115,
        "rt": 686,
        "correct": true,
        "response": "ArrowRight",
        "congruent": true,
        "gazeTowards": false,
        "gazeCondition": "away",
        "faceOnLeft": true,
        "impliedDirection": 0,
        "testDirection": 0,
        "avgFps": 144,
        "minFps": 124,
        "maxFps": 179,
        "totalFrames": 98,
        "frameRates": 144
      },
      {
        "trial_number": 13,
        "trial_index": 120,
        "rt": 750,
        "correct": true,
        "response": "ArrowLeft",
        "congruent": true,
        "gazeTowards": false,
        "gazeCondition": "away",
        "faceOnLeft": false,
        "impliedDirection": 180,
        "testDirection": 180,
        "avgFps": 144,
        "minFps": 141,
        "maxFps": 147,
        "totalFrames": 108,
        "frameRates": 144
      },
      {
        "trial_number": 14,
        "trial_index": 125,
        "rt": 742,
        "correct": true,
        "response": "ArrowLeft",
        "congruent": false,
        "gazeTowards": true,
        "gazeCondition": "towards",
        "faceOnLeft": true,
        "impliedDirection": 0,
        "testDirection": 180,
        "avgFps": 144,
        "minFps": 141,
        "maxFps": 147,
        "totalFrames": 107,
        "frameRates": 144
      },
      {
        "trial_number": 15,
        "trial_index": 130,
        "rt": 812,
        "correct": true,
        "response": "ArrowLeft",
        "congruent": true,
        "gazeTowards": false,
        "gazeCondition": "away",
        "faceOnLeft": false,
        "impliedDirection": 180,
        "testDirection": 180,
        "avgFps": 144,
        "minFps": 141,
        "maxFps": 149,
        "totalFrames": 117,
        "frameRates": 144
      },
      {
        "trial_number": 16,
        "trial_index": 135,
        "rt": 703,
        "correct": true,
        "response": "ArrowRight",
        "congruent": false,
        "gazeTowards": false,
        "gazeCondition": "away",
        "faceOnLeft": false,
        "impliedDirection": 180,
        "testDirection": 0,
        "avgFps": 143,
        "minFps": 93,
        "maxFps": 147,
        "totalFrames": 101,
        "frameRates": 143
      },
      {
        "trial_number": 17,
        "trial_index": 140,
        "rt": 872,
        "correct": true,
        "response": "ArrowLeft",
        "congruent": true,
        "gazeTowards": false,
        "gazeCondition": "away",
        "faceOnLeft": false,
        "impliedDirection": 180,
        "testDirection": 180,
        "avgFps": 144,
        "minFps": 141,
        "maxFps": 187,
        "totalFrames": 125,
        "frameRates": 144
      },
      {
        "trial_number": 18,
        "trial_index": 145,
        "rt": 804,
        "correct": true,
        "response": "ArrowRight",
        "congruent": true,
        "gazeTowards": false,
        "gazeCondition": "away",
        "faceOnLeft": true,
        "impliedDirection": 0,
        "testDirection": 0,
        "avgFps": 144,
        "minFps": 139,
        "maxFps": 149,
        "totalFrames": 116,
        "frameRates": 144
      },
      {
        "trial_number": 19,
        "trial_index": 150,
        "rt": 695,
        "correct": true,
        "response": "ArrowLeft",
        "congruent": false,
        "gazeTowards": true,
        "gazeCondition": "towards",
        "faceOnLeft": true,
        "impliedDirection": 0,
        "testDirection": 180,
        "avgFps": 144,
        "minFps": 141,
        "maxFps": 147,
        "totalFrames": 100,
        "frameRates": 144
      },
      {
        "trial_number": 20,
        "trial_index": 155,
        "rt": 676,
        "correct": true,
        "response": "ArrowRight",
        "congruent": false,
        "gazeTowards": false,
        "gazeCondition": "away",
        "faceOnLeft": false,
        "impliedDirection": 180,
        "testDirection": 0,
        "avgFps": 143,
        "minFps": 92,
        "maxFps": 147,
        "totalFrames": 97,
        "frameRates": 143
      },
      {
        "trial_number": 21,
        "trial_index": 160,
        "rt": 609,
        "correct": true,
        "response": "ArrowLeft",
        "congruent": false,
        "gazeTowards": true,
        "gazeCondition": "towards",
        "faceOnLeft": true,
        "impliedDirection": 0,
        "testDirection": 180,
        "avgFps": 142,
        "minFps": 73,
        "maxFps": 147,
        "totalFrames": 87,
        "frameRates": 142
      },
      {
        "trial_number": 22,
        "trial_index": 165,
        "rt": 732,
        "correct": true,
        "response": "ArrowLeft",
        "congruent": false,
        "gazeTowards": false,
        "gazeCondition": "away",
        "faceOnLeft": true,
        "impliedDirection": 0,
        "testDirection": 180,
        "avgFps": 144,
        "minFps": 141,
        "maxFps": 148,
        "totalFrames": 105,
        "frameRates": 144
      },
      {
        "trial_number": 23,
        "trial_index": 170,
        "rt": 986,
        "correct": true,
        "response": "ArrowRight",
        "congruent": false,
        "gazeTowards": true,
        "gazeCondition": "towards",
        "faceOnLeft": false,
        "impliedDirection": 180,
        "testDirection": 0,
        "avgFps": 144,
        "minFps": 139,
        "maxFps": 149,
        "totalFrames": 142,
        "frameRates": 144
      },
      {
        "trial_number": 24,
        "trial_index": 175,
        "rt": 1141,
        "correct": true,
        "response": "ArrowRight",
        "congruent": false,
        "gazeTowards": true,
        "gazeCondition": "towards",
        "faceOnLeft": false,
        "impliedDirection": 180,
        "testDirection": 0,
        "avgFps": 144,
        "minFps": 139,
        "maxFps": 149,
        "totalFrames": 164,
        "frameRates": 144
      },
      {
        "trial_number": 25,
        "trial_index": 180,
        "rt": 624,
        "correct": true,
        "response": "ArrowLeft",
        "congruent": true,
        "gazeTowards": false,
        "gazeCondition": "away",
        "faceOnLeft": false,
        "impliedDirection": 180,
        "testDirection": 180,
        "avgFps": 144,
        "minFps": 141,
        "maxFps": 147,
        "totalFrames": 90,
        "frameRates": 144
      },
      {
        "trial_number": 26,
        "trial_index": 191,
        "rt": 568,
        "correct": true,
        "response": "ArrowLeft",
        "congruent": false,
        "gazeTowards": false,
        "gazeCondition": "away",
        "faceOnLeft": true,
        "impliedDirection": 0,
        "testDirection": 180,
        "avgFps": 144,
        "minFps": 141,
        "maxFps": 147,
        "totalFrames": 80,
        "frameRates": 144
      },
      {
        "trial_number": 27,
        "trial_index": 196,
        "rt": 544,
        "correct": true,
        "response": "ArrowRight",
        "congruent": true,
        "gazeTowards": true,
        "gazeCondition": "towards",
        "faceOnLeft": true,
        "impliedDirection": 0,
        "testDirection": 0,
        "avgFps": 144,
        "minFps": 141,
        "maxFps": 147,
        "totalFrames": 78,
        "frameRates": 144
      },
      {
        "trial_number": 28,
        "trial_index": 201,
        "rt": 880,
        "correct": true,
        "response": "ArrowRight",
        "congruent": false,
        "gazeTowards": true,
        "gazeCondition": "towards",
        "faceOnLeft": false,
        "impliedDirection": 180,
        "testDirection": 0,
        "avgFps": 144,
        "minFps": 141,
        "maxFps": 149,
        "totalFrames": 126,
        "frameRates": 144
      },
      {
        "trial_number": 29,
        "trial_index": 207,
        "rt": 904,
        "correct": true,
        "response": "ArrowLeft",
        "congruent": false,
        "gazeTowards": false,
        "gazeCondition": "away",
        "faceOnLeft": true,
        "impliedDirection": 0,
        "testDirection": 180,
        "avgFps": 144,
        "minFps": 141,
        "maxFps": 150,
        "totalFrames": 130,
        "frameRates": 144
      },
      {
        "trial_number": 30,
        "trial_index": 212,
        "rt": 775,
        "correct": true,
        "response": "ArrowLeft",
        "congruent": true,
        "gazeTowards": true,
        "gazeCondition": "towards",
        "faceOnLeft": false,
        "impliedDirection": 180,
        "testDirection": 180,
        "avgFps": 144,
        "minFps": 139,
        "maxFps": 147,
        "totalFrames": 111,
        "frameRates": 144
      },
      {
        "trial_number": 31,
        "trial_index": 217,
        "rt": 698,
        "correct": true,
        "response": "ArrowRight",
        "congruent": false,
        "gazeTowards": true,
        "gazeCondition": "towards",
        "faceOnLeft": false,
        "impliedDirection": 180,
        "testDirection": 0,
        "avgFps": 144,
        "minFps": 141,
        "maxFps": 149,
        "totalFrames": 99,
        "frameRates": 144
      },
      {
        "trial_number": 32,
        "trial_index": 222,
        "rt": 1127,
        "correct": true,
        "response": "ArrowRight",
        "congruent": false,
        "gazeTowards": false,
        "gazeCondition": "away",
        "faceOnLeft": false,
        "impliedDirection": 180,
        "testDirection": 0,
        "avgFps": 144,
        "minFps": 139,
        "maxFps": 149,
        "totalFrames": 162,
        "frameRates": 144
      },
      {
        "trial_number": 33,
        "trial_index": 230,
        "rt": 773,
        "correct": true,
        "response": "ArrowRight",
        "congruent": false,
        "gazeTowards": false,
        "gazeCondition": "away",
        "faceOnLeft": false,
        "impliedDirection": 180,
        "testDirection": 0,
        "avgFps": 144,
        "minFps": 139,
        "maxFps": 149,
        "totalFrames": 112,
        "frameRates": 144
      },
      {
        "trial_number": 34,
        "trial_index": 235,
        "rt": 728,
        "correct": true,
        "response": "ArrowRight",
        "congruent": true,
        "gazeTowards": true,
        "gazeCondition": "towards",
        "faceOnLeft": true,
        "impliedDirection": 0,
        "testDirection": 0,
        "avgFps": 144,
        "minFps": 141,
        "maxFps": 149,
        "totalFrames": 105,
        "frameRates": 144
      },
      {
        "trial_number": 35,
        "trial_index": 240,
        "rt": 845,
        "correct": true,
        "response": "ArrowRight",
        "congruent": true,
        "gazeTowards": true,
        "gazeCondition": "towards",
        "faceOnLeft": true,
        "impliedDirection": 0,
        "testDirection": 0,
        "avgFps": 144,
        "minFps": 141,
        "maxFps": 149,
        "totalFrames": 121,
        "frameRates": 144
      },
      {
        "trial_number": 36,
        "trial_index": 245,
        "rt": 834,
        "correct": true,
        "response": "ArrowRight",
        "congruent": true,
        "gazeTowards": false,
        "gazeCondition": "away",
        "faceOnLeft": true,
        "impliedDirection": 0,
        "testDirection": 0,
        "avgFps": 144,
        "minFps": 141,
        "maxFps": 147,
        "totalFrames": 120,
        "frameRates": 144
      },
      {
        "trial_number": 37,
        "trial_index": 250,
        "rt": 764,
        "correct": true,
        "response": "ArrowRight",
        "congruent": true,
        "gazeTowards": true,
        "gazeCondition": "towards",
        "faceOnLeft": true,
        "impliedDirection": 0,
        "testDirection": 0,
        "avgFps": 143,
        "minFps": 70,
        "maxFps": 156,
        "totalFrames": 109,
        "frameRates": 143
      },
      {
        "trial_number": 38,
        "trial_index": 255,
        "rt": 755,
        "correct": true,
        "response": "ArrowLeft",
        "congruent": true,
        "gazeTowards": false,
        "gazeCondition": "away",
        "faceOnLeft": false,
        "impliedDirection": 180,
        "testDirection": 180,
        "avgFps": 144,
        "minFps": 139,
        "maxFps": 147,
        "totalFrames": 109,
        "frameRates": 144
      },
      {
        "trial_number": 39,
        "trial_index": 260,
        "rt": 888,
        "correct": true,
        "response": "ArrowRight",
        "congruent": true,
        "gazeTowards": true,
        "gazeCondition": "towards",
        "faceOnLeft": true,
        "impliedDirection": 0,
        "testDirection": 0,
        "avgFps": 144,
        "minFps": 141,
        "maxFps": 147,
        "totalFrames": 128,
        "frameRates": 144
      },
      {
        "trial_number": 40,
        "trial_index": 268,
        "rt": 1053,
        "correct": true,
        "response": "ArrowRight",
        "congruent": false,
        "gazeTowards": false,
        "gazeCondition": "away",
        "faceOnLeft": false,
        "impliedDirection": 180,
        "testDirection": 0,
        "avgFps": 143,
        "minFps": 72,
        "maxFps": 149,
        "totalFrames": 151,
        "frameRates": 143
      },
      {
        "trial_number": 41,
        "trial_index": 273,
        "rt": 892,
        "correct": true,
        "response": "ArrowRight",
        "congruent": false,
        "gazeTowards": true,
        "gazeCondition": "towards",
        "faceOnLeft": false,
        "impliedDirection": 180,
        "testDirection": 0,
        "avgFps": 144,
        "minFps": 141,
        "maxFps": 147,
        "totalFrames": 128,
        "frameRates": 144
      },
      {
        "trial_number": 42,
        "trial_index": 278,
        "rt": 770,
        "correct": true,
        "response": "ArrowLeft",
        "congruent": false,
        "gazeTowards": false,
        "gazeCondition": "away",
        "faceOnLeft": true,
        "impliedDirection": 0,
        "testDirection": 180,
        "avgFps": 143,
        "minFps": 86,
        "maxFps": 161,
        "totalFrames": 110,
        "frameRates": 143
      },
      {
        "trial_number": 43,
        "trial_index": 283,
        "rt": 639,
        "correct": true,
        "response": "ArrowRight",
        "congruent": false,
        "gazeTowards": true,
        "gazeCondition": "towards",
        "faceOnLeft": false,
        "impliedDirection": 180,
        "testDirection": 0,
        "avgFps": 144,
        "minFps": 141,
        "maxFps": 149,
        "totalFrames": 92,
        "frameRates": 144
      },
      {
        "trial_number": 44,
        "trial_index": 288,
        "rt": 794,
        "correct": true,
        "response": "ArrowRight",
        "congruent": true,
        "gazeTowards": false,
        "gazeCondition": "away",
        "faceOnLeft": true,
        "impliedDirection": 0,
        "testDirection": 0,
        "avgFps": 145,
        "minFps": 139,
        "maxFps": 264,
        "totalFrames": 114,
        "frameRates": 145
      },
      {
        "trial_number": 45,
        "trial_index": 293,
        "rt": 1235,
        "correct": true,
        "response": "ArrowRight",
        "congruent": true,
        "gazeTowards": true,
        "gazeCondition": "towards",
        "faceOnLeft": true,
        "impliedDirection": 0,
        "testDirection": 0,
        "avgFps": 144,
        "minFps": 141,
        "maxFps": 149,
        "totalFrames": 178,
        "frameRates": 144
      },
      {
        "trial_number": 46,
        "trial_index": 298,
        "rt": 1140,
        "correct": true,
        "response": "ArrowRight",
        "congruent": true,
        "gazeTowards": false,
        "gazeCondition": "away",
        "faceOnLeft": true,
        "impliedDirection": 0,
        "testDirection": 0,
        "avgFps": 145,
        "minFps": 141,
        "maxFps": null,
        "totalFrames": 164,
        "frameRates": 145
      },
      {
        "trial_number": 47,
        "trial_index": 303,
        "rt": 1345,
        "correct": true,
        "response": "ArrowRight",
        "congruent": true,
        "gazeTowards": true,
        "gazeCondition": "towards",
        "faceOnLeft": true,
        "impliedDirection": 0,
        "testDirection": 0,
        "avgFps": 144,
        "minFps": 139,
        "maxFps": 149,
        "totalFrames": 194,
        "frameRates": 144
      },
      {
        "trial_number": 48,
        "trial_index": 308,
        "rt": 794,
        "correct": true,
        "response": "ArrowLeft",
        "congruent": true,
        "gazeTowards": false,
        "gazeCondition": "away",
        "faceOnLeft": false,
        "impliedDirection": 180,
        "testDirection": 180,
        "avgFps": 144,
        "minFps": 141,
        "maxFps": 149,
        "totalFrames": 114,
        "frameRates": 144
      },
      {
        "trial_number": 49,
        "trial_index": 313,
        "rt": 1132,
        "correct": true,
        "response": "ArrowRight",
        "congruent": false,
        "gazeTowards": true,
        "gazeCondition": "towards",
        "faceOnLeft": false,
        "impliedDirection": 180,
        "testDirection": 0,
        "avgFps": 144,
        "minFps": 139,
        "maxFps": 147,
        "totalFrames": 163,
        "frameRates": 144
      },
      {
        "trial_number": 50,
        "trial_index": 318,
        "rt": 981,
        "correct": true,
        "response": "ArrowLeft",
        "congruent": true,
        "gazeTowards": true,
        "gazeCondition": "towards",
        "faceOnLeft": false,
        "impliedDirection": 180,
        "testDirection": 180,
        "avgFps": 144,
        "minFps": 139,
        "maxFps": 149,
        "totalFrames": 141,
        "frameRates": 144
      },
      {
        "trial_number": 51,
        "trial_index": 323,
        "rt": 1013,
        "correct": true,
        "response": "ArrowLeft",
        "congruent": true,
        "gazeTowards": false,
        "gazeCondition": "away",
        "faceOnLeft": false,
        "impliedDirection": 180,
        "testDirection": 180,
        "avgFps": 145,
        "minFps": 141,
        "maxFps": null,
        "totalFrames": 146,
        "frameRates": 145
      },
      {
        "trial_number": 52,
        "trial_index": 328,
        "rt": 1282,
        "correct": true,
        "response": "ArrowRight",
        "congruent": false,
        "gazeTowards": true,
        "gazeCondition": "towards",
        "faceOnLeft": false,
        "impliedDirection": 180,
        "testDirection": 0,
        "avgFps": 144,
        "minFps": 141,
        "maxFps": 147,
        "totalFrames": 184,
        "frameRates": 144
      },
      {
        "trial_number": 53,
        "trial_index": 333,
        "rt": 1026,
        "correct": true,
        "response": "ArrowRight",
        "congruent": true,
        "gazeTowards": false,
        "gazeCondition": "away",
        "faceOnLeft": true,
        "impliedDirection": 0,
        "testDirection": 0,
        "avgFps": 144,
        "minFps": 139,
        "maxFps": 147,
        "totalFrames": 148,
        "frameRates": 144
      },
      {
        "trial_number": 54,
        "trial_index": 338,
        "rt": 953,
        "correct": true,
        "response": "ArrowRight",
        "congruent": false,
        "gazeTowards": true,
        "gazeCondition": "towards",
        "faceOnLeft": false,
        "impliedDirection": 180,
        "testDirection": 0,
        "avgFps": 144,
        "minFps": 141,
        "maxFps": 150,
        "totalFrames": 137,
        "frameRates": 144
      },
      {
        "trial_number": 55,
        "trial_index": 346,
        "rt": 766,
        "correct": true,
        "response": "ArrowRight",
        "congruent": false,
        "gazeTowards": true,
        "gazeCondition": "towards",
        "faceOnLeft": false,
        "impliedDirection": 180,
        "testDirection": 0,
        "avgFps": 144,
        "minFps": 139,
        "maxFps": 147,
        "totalFrames": 110,
        "frameRates": 144
      },
      {
        "trial_number": 56,
        "trial_index": 351,
        "rt": 648,
        "correct": true,
        "response": "ArrowLeft",
        "congruent": false,
        "gazeTowards": false,
        "gazeCondition": "away",
        "faceOnLeft": true,
        "impliedDirection": 0,
        "testDirection": 180,
        "avgFps": 144,
        "minFps": 141,
        "maxFps": 147,
        "totalFrames": 93,
        "frameRates": 144
      },
      {
        "trial_number": 57,
        "trial_index": 356,
        "rt": 845,
        "correct": true,
        "response": "ArrowRight",
        "congruent": false,
        "gazeTowards": false,
        "gazeCondition": "away",
        "faceOnLeft": false,
        "impliedDirection": 180,
        "testDirection": 0,
        "avgFps": 144,
        "minFps": 139,
        "maxFps": 149,
        "totalFrames": 121,
        "frameRates": 144
      },
      {
        "trial_number": 58,
        "trial_index": 365,
        "rt": 632,
        "correct": true,
        "response": "ArrowLeft",
        "congruent": false,
        "gazeTowards": false,
        "gazeCondition": "away",
        "faceOnLeft": true,
        "impliedDirection": 0,
        "testDirection": 180,
        "avgFps": 144,
        "minFps": 141,
        "maxFps": 147,
        "totalFrames": 90,
        "frameRates": 144
      },
      {
        "trial_number": 59,
        "trial_index": 373,
        "rt": 673,
        "correct": true,
        "response": "ArrowRight",
        "congruent": true,
        "gazeTowards": false,
        "gazeCondition": "away",
        "faceOnLeft": true,
        "impliedDirection": 0,
        "testDirection": 0,
        "avgFps": 144,
        "minFps": 141,
        "maxFps": 150,
        "totalFrames": 97,
        "frameRates": 144
      },
      {
        "trial_number": 60,
        "trial_index": 378,
        "rt": 660,
        "correct": true,
        "response": "ArrowLeft",
        "congruent": true,
        "gazeTowards": true,
        "gazeCondition": "towards",
        "faceOnLeft": false,
        "impliedDirection": 180,
        "testDirection": 180,
        "avgFps": 144,
        "minFps": 141,
        "maxFps": 150,
        "totalFrames": 95,
        "frameRates": 144
      },
      {
        "trial_number": 61,
        "trial_index": 383,
        "rt": 678,
        "correct": true,
        "response": "ArrowLeft",
        "congruent": false,
        "gazeTowards": false,
        "gazeCondition": "away",
        "faceOnLeft": true,
        "impliedDirection": 0,
        "testDirection": 180,
        "avgFps": 145,
        "minFps": 139,
        "maxFps": 264,
        "totalFrames": 98,
        "frameRates": 145
      },
      {
        "trial_number": 62,
        "trial_index": 388,
        "rt": 739,
        "correct": true,
        "response": "ArrowLeft",
        "congruent": false,
        "gazeTowards": true,
        "gazeCondition": "towards",
        "faceOnLeft": true,
        "impliedDirection": 0,
        "testDirection": 180,
        "avgFps": 144,
        "minFps": 141,
        "maxFps": 147,
        "totalFrames": 105,
        "frameRates": 144
      },
      {
        "trial_number": 63,
        "trial_index": 393,
        "rt": 651,
        "correct": true,
        "response": "ArrowRight",
        "congruent": true,
        "gazeTowards": true,
        "gazeCondition": "towards",
        "faceOnLeft": true,
        "impliedDirection": 0,
        "testDirection": 0,
        "avgFps": 145,
        "minFps": 141,
        "maxFps": 257,
        "totalFrames": 94,
        "frameRates": 145
      },
      {
        "trial_number": 64,
        "trial_index": 398,
        "rt": 611,
        "correct": true,
        "response": "ArrowLeft",
        "congruent": true,
        "gazeTowards": false,
        "gazeCondition": "away",
        "faceOnLeft": false,
        "impliedDirection": 180,
        "testDirection": 180,
        "avgFps": 144,
        "minFps": 141,
        "maxFps": 147,
        "totalFrames": 88,
        "frameRates": 144
      },
      {
        "trial_number": 65,
        "trial_index": 403,
        "rt": 1067,
        "correct": true,
        "response": "ArrowRight",
        "congruent": false,
        "gazeTowards": true,
        "gazeCondition": "towards",
        "faceOnLeft": false,
        "impliedDirection": 180,
        "testDirection": 0,
        "avgFps": 144,
        "minFps": 141,
        "maxFps": 174,
        "totalFrames": 153,
        "frameRates": 144
      },
      {
        "trial_number": 66,
        "trial_index": 408,
        "rt": 1048,
        "correct": true,
        "response": "ArrowRight",
        "congruent": false,
        "gazeTowards": false,
        "gazeCondition": "away",
        "faceOnLeft": false,
        "impliedDirection": 180,
        "testDirection": 0,
        "avgFps": 145,
        "minFps": 141,
        "maxFps": null,
        "totalFrames": 151,
        "frameRates": 145
      },
      {
        "trial_number": 67,
        "trial_index": 413,
        "rt": 791,
        "correct": true,
        "response": "ArrowRight",
        "congruent": true,
        "gazeTowards": true,
        "gazeCondition": "towards",
        "faceOnLeft": true,
        "impliedDirection": 0,
        "testDirection": 0,
        "avgFps": 144,
        "minFps": 141,
        "maxFps": 149,
        "totalFrames": 113,
        "frameRates": 144
      },
      {
        "trial_number": 68,
        "trial_index": 418,
        "rt": 1119,
        "correct": true,
        "response": "ArrowLeft",
        "congruent": false,
        "gazeTowards": false,
        "gazeCondition": "away",
        "faceOnLeft": true,
        "impliedDirection": 0,
        "testDirection": 180,
        "avgFps": 144,
        "minFps": 141,
        "maxFps": 147,
        "totalFrames": 161,
        "frameRates": 144
      },
      {
        "trial_number": 69,
        "trial_index": 423,
        "rt": 936,
        "correct": true,
        "response": "ArrowLeft",
        "congruent": false,
        "gazeTowards": true,
        "gazeCondition": "towards",
        "faceOnLeft": true,
        "impliedDirection": 0,
        "testDirection": 180,
        "avgFps": 144,
        "minFps": 141,
        "maxFps": 147,
        "totalFrames": 135,
        "frameRates": 144
      },
      {
        "trial_number": 70,
        "trial_index": 428,
        "rt": 801,
        "correct": true,
        "response": "ArrowLeft",
        "congruent": false,
        "gazeTowards": true,
        "gazeCondition": "towards",
        "faceOnLeft": true,
        "impliedDirection": 0,
        "testDirection": 180,
        "avgFps": 143,
        "minFps": 67,
        "maxFps": 179,
        "totalFrames": 115,
        "frameRates": 143
      },
      {
        "trial_number": 71,
        "trial_index": 433,
        "rt": 973,
        "correct": true,
        "response": "ArrowRight",
        "congruent": true,
        "gazeTowards": false,
        "gazeCondition": "away",
        "faceOnLeft": true,
        "impliedDirection": 0,
        "testDirection": 0,
        "avgFps": 144,
        "minFps": 141,
        "maxFps": 149,
        "totalFrames": 140,
        "frameRates": 144
      },
      {
        "trial_number": 72,
        "trial_index": 438,
        "rt": 797,
        "correct": true,
        "response": "ArrowLeft",
        "congruent": true,
        "gazeTowards": false,
        "gazeCondition": "away",
        "faceOnLeft": false,
        "impliedDirection": 180,
        "testDirection": 180,
        "avgFps": 144,
        "minFps": 141,
        "maxFps": 147,
        "totalFrames": 115,
        "frameRates": 144
      },
      {
        "trial_number": 73,
        "trial_index": 446,
        "rt": 779,
        "correct": true,
        "response": "ArrowRight",
        "congruent": true,
        "gazeTowards": false,
        "gazeCondition": "away",
        "faceOnLeft": true,
        "impliedDirection": 0,
        "testDirection": 0,
        "avgFps": 144,
        "minFps": 139,
        "maxFps": 147,
        "totalFrames": 112,
        "frameRates": 144
      },
      {
        "trial_number": 74,
        "trial_index": 451,
        "rt": 697,
        "correct": true,
        "response": "ArrowLeft",
        "congruent": false,
        "gazeTowards": true,
        "gazeCondition": "towards",
        "faceOnLeft": true,
        "impliedDirection": 0,
        "testDirection": 180,
        "avgFps": 144,
        "minFps": 141,
        "maxFps": 149,
        "totalFrames": 99,
        "frameRates": 144
      },
      {
        "trial_number": 75,
        "trial_index": 456,
        "rt": 426,
        "correct": true,
        "response": "ArrowRight",
        "congruent": true,
        "gazeTowards": false,
        "gazeCondition": "away",
        "faceOnLeft": true,
        "impliedDirection": 0,
        "testDirection": 0,
        "avgFps": 144,
        "minFps": 141,
        "maxFps": 147,
        "totalFrames": 61,
        "frameRates": 144
      },
      {
        "trial_number": 76,
        "trial_index": 461,
        "rt": 595,
        "correct": true,
        "response": "ArrowRight",
        "congruent": true,
        "gazeTowards": false,
        "gazeCondition": "away",
        "faceOnLeft": true,
        "impliedDirection": 0,
        "testDirection": 0,
        "avgFps": 144,
        "minFps": 141,
        "maxFps": 147,
        "totalFrames": 85,
        "frameRates": 144
      },
      {
        "trial_number": 77,
        "trial_index": 466,
        "rt": 701,
        "correct": true,
        "response": "ArrowRight",
        "congruent": false,
        "gazeTowards": false,
        "gazeCondition": "away",
        "faceOnLeft": false,
        "impliedDirection": 180,
        "testDirection": 0,
        "avgFps": 144,
        "minFps": 139,
        "maxFps": 150,
        "totalFrames": 101,
        "frameRates": 144
      },
      {
        "trial_number": 78,
        "trial_index": 471,
        "rt": 563,
        "correct": true,
        "response": "ArrowLeft",
        "congruent": false,
        "gazeTowards": true,
        "gazeCondition": "towards",
        "faceOnLeft": true,
        "impliedDirection": 0,
        "testDirection": 180,
        "avgFps": 144,
        "minFps": 141,
        "maxFps": 150,
        "totalFrames": 81,
        "frameRates": 144
      },
      {
        "trial_number": 79,
        "trial_index": 476,
        "rt": 638,
        "correct": true,
        "response": "ArrowLeft",
        "congruent": true,
        "gazeTowards": false,
        "gazeCondition": "away",
        "faceOnLeft": false,
        "impliedDirection": 180,
        "testDirection": 180,
        "avgFps": 144,
        "minFps": 141,
        "maxFps": 147,
        "totalFrames": 91,
        "frameRates": 144
      },
      {
        "trial_number": 80,
        "trial_index": 481,
        "rt": 769,
        "correct": true,
        "response": "ArrowRight",
        "congruent": false,
        "gazeTowards": false,
        "gazeCondition": "away",
        "faceOnLeft": false,
        "impliedDirection": 180,
        "testDirection": 0,
        "avgFps": 144,
        "minFps": 141,
        "maxFps": 147,
        "totalFrames": 110,
        "frameRates": 144
      },
      {
        "trial_number": 81,
        "trial_index": 486,
        "rt": 604,
        "correct": true,
        "response": "ArrowLeft",
        "congruent": true,
        "gazeTowards": false,
        "gazeCondition": "away",
        "faceOnLeft": false,
        "impliedDirection": 180,
        "testDirection": 180,
        "avgFps": 145,
        "minFps": 141,
        "maxFps": 257,
        "totalFrames": 87,
        "frameRates": 145
      },
      {
        "trial_number": 82,
        "trial_index": 491,
        "rt": 629,
        "correct": true,
        "response": "ArrowLeft",
        "congruent": false,
        "gazeTowards": false,
        "gazeCondition": "away",
        "faceOnLeft": true,
        "impliedDirection": 0,
        "testDirection": 180,
        "avgFps": 144,
        "minFps": 141,
        "maxFps": 147,
        "totalFrames": 90,
        "frameRates": 144
      },
      {
        "trial_number": 83,
        "trial_index": 496,
        "rt": 620,
        "correct": true,
        "response": "ArrowRight",
        "congruent": true,
        "gazeTowards": false,
        "gazeCondition": "away",
        "faceOnLeft": true,
        "impliedDirection": 0,
        "testDirection": 0,
        "avgFps": 144,
        "minFps": 141,
        "maxFps": 147,
        "totalFrames": 89,
        "frameRates": 144
      },
      {
        "trial_number": 84,
        "trial_index": 501,
        "rt": 700,
        "correct": true,
        "response": "ArrowRight",
        "congruent": true,
        "gazeTowards": true,
        "gazeCondition": "towards",
        "faceOnLeft": true,
        "impliedDirection": 0,
        "testDirection": 0,
        "avgFps": 144,
        "minFps": 139,
        "maxFps": 149,
        "totalFrames": 101,
        "frameRates": 144
      },
      {
        "trial_number": 85,
        "trial_index": 506,
        "rt": 639,
        "correct": true,
        "response": "ArrowLeft",
        "congruent": false,
        "gazeTowards": true,
        "gazeCondition": "towards",
        "faceOnLeft": true,
        "impliedDirection": 0,
        "testDirection": 180,
        "avgFps": 144,
        "minFps": 139,
        "maxFps": 149,
        "totalFrames": 92,
        "frameRates": 144
      },
      {
        "trial_number": 86,
        "trial_index": 511,
        "rt": 596,
        "correct": true,
        "response": "ArrowRight",
        "congruent": false,
        "gazeTowards": false,
        "gazeCondition": "away",
        "faceOnLeft": false,
        "impliedDirection": 180,
        "testDirection": 0,
        "avgFps": 144,
        "minFps": 141,
        "maxFps": 147,
        "totalFrames": 84,
        "frameRates": 144
      },
      {
        "trial_number": 87,
        "trial_index": 516,
        "rt": 734,
        "correct": true,
        "response": "ArrowRight",
        "congruent": true,
        "gazeTowards": true,
        "gazeCondition": "towards",
        "faceOnLeft": true,
        "impliedDirection": 0,
        "testDirection": 0,
        "avgFps": 144,
        "minFps": 141,
        "maxFps": 151,
        "totalFrames": 106,
        "frameRates": 144
      },
      {
        "trial_number": 88,
        "trial_index": 521,
        "rt": 572,
        "correct": true,
        "response": "ArrowLeft",
        "congruent": true,
        "gazeTowards": true,
        "gazeCondition": "towards",
        "faceOnLeft": false,
        "impliedDirection": 180,
        "testDirection": 180,
        "avgFps": 144,
        "minFps": 139,
        "maxFps": 150,
        "totalFrames": 82,
        "frameRates": 144
      },
      {
        "trial_number": 89,
        "trial_index": 527,
        "rt": 498,
        "correct": true,
        "response": "ArrowLeft",
        "congruent": false,
        "gazeTowards": true,
        "gazeCondition": "towards",
        "faceOnLeft": true,
        "impliedDirection": 0,
        "testDirection": 180,
        "avgFps": 142,
        "minFps": 66,
        "maxFps": 179,
        "totalFrames": 71,
        "frameRates": 142
      },
      {
        "trial_number": 90,
        "trial_index": 532,
        "rt": 483,
        "correct": true,
        "response": "ArrowLeft",
        "congruent": true,
        "gazeTowards": true,
        "gazeCondition": "towards",
        "faceOnLeft": false,
        "impliedDirection": 180,
        "testDirection": 180,
        "avgFps": 144,
        "minFps": 139,
        "maxFps": 148,
        "totalFrames": 70,
        "frameRates": 144
      },
      {
        "trial_number": 91,
        "trial_index": 537,
        "rt": 677,
        "correct": true,
        "response": "ArrowRight",
        "congruent": true,
        "gazeTowards": true,
        "gazeCondition": "towards",
        "faceOnLeft": true,
        "impliedDirection": 0,
        "testDirection": 0,
        "avgFps": 144,
        "minFps": 141,
        "maxFps": 147,
        "totalFrames": 98,
        "frameRates": 144
      },
      {
        "trial_number": 92,
        "trial_index": 542,
        "rt": 764,
        "correct": true,
        "response": "ArrowRight",
        "congruent": false,
        "gazeTowards": true,
        "gazeCondition": "towards",
        "faceOnLeft": false,
        "impliedDirection": 180,
        "testDirection": 0,
        "avgFps": 144,
        "minFps": 141,
        "maxFps": 149,
        "totalFrames": 110,
        "frameRates": 144
      },
      {
        "trial_number": 93,
        "trial_index": 547,
        "rt": 1172,
        "correct": true,
        "response": "ArrowRight",
        "congruent": true,
        "gazeTowards": false,
        "gazeCondition": "away",
        "faceOnLeft": true,
        "impliedDirection": 0,
        "testDirection": 0,
        "avgFps": 143,
        "minFps": 66,
        "maxFps": 179,
        "totalFrames": 168,
        "frameRates": 143
      },
      {
        "trial_number": 94,
        "trial_index": 552,
        "rt": 732,
        "correct": true,
        "response": "ArrowLeft",
        "congruent": false,
        "gazeTowards": false,
        "gazeCondition": "away",
        "faceOnLeft": true,
        "impliedDirection": 0,
        "testDirection": 180,
        "avgFps": 144,
        "minFps": 141,
        "maxFps": 149,
        "totalFrames": 106,
        "frameRates": 144
      },
      {
        "trial_number": 95,
        "trial_index": 557,
        "rt": 879,
        "correct": true,
        "response": "ArrowRight",
        "congruent": true,
        "gazeTowards": true,
        "gazeCondition": "towards",
        "faceOnLeft": true,
        "impliedDirection": 0,
        "testDirection": 0,
        "avgFps": 145,
        "minFps": 141,
        "maxFps": null,
        "totalFrames": 127,
        "frameRates": 145
      },
      {
        "trial_number": 96,
        "trial_index": 562,
        "rt": 638,
        "correct": true,
        "response": "ArrowLeft",
        "congruent": false,
        "gazeTowards": false,
        "gazeCondition": "away",
        "faceOnLeft": true,
        "impliedDirection": 0,
        "testDirection": 180,
        "avgFps": 144,
        "minFps": 141,
        "maxFps": 148,
        "totalFrames": 92,
        "frameRates": 144
      },
      {
        "trial_number": 97,
        "trial_index": 567,
        "rt": 896,
        "correct": true,
        "response": "ArrowRight",
        "congruent": false,
        "gazeTowards": false,
        "gazeCondition": "away",
        "faceOnLeft": false,
        "impliedDirection": 180,
        "testDirection": 0,
        "avgFps": 144,
        "minFps": 139,
        "maxFps": 147,
        "totalFrames": 129,
        "frameRates": 144
      },
      {
        "trial_number": 98,
        "trial_index": 572,
        "rt": 765,
        "correct": true,
        "response": "ArrowRight",
        "congruent": false,
        "gazeTowards": true,
        "gazeCondition": "towards",
        "faceOnLeft": false,
        "impliedDirection": 180,
        "testDirection": 0,
        "avgFps": 144,
        "minFps": 139,
        "maxFps": 149,
        "totalFrames": 110,
        "frameRates": 144
      },
      {
        "trial_number": 99,
        "trial_index": 577,
        "rt": 1188,
        "correct": true,
        "response": "ArrowRight",
        "congruent": false,
        "gazeTowards": true,
        "gazeCondition": "towards",
        "faceOnLeft": false,
        "impliedDirection": 180,
        "testDirection": 0,
        "avgFps": 144,
        "minFps": 141,
        "maxFps": 147,
        "totalFrames": 171,
        "frameRates": 144
      },
      {
        "trial_number": 100,
        "trial_index": 582,
        "rt": 464,
        "correct": true,
        "response": "ArrowLeft",
        "congruent": true,
        "gazeTowards": true,
        "gazeCondition": "towards",
        "faceOnLeft": false,
        "impliedDirection": 180,
        "testDirection": 180,
        "avgFps": 144,
        "minFps": 141,
        "maxFps": 147,
        "totalFrames": 67,
        "frameRates": 144
      },
      {
        "trial_number": 101,
        "trial_index": 587,
        "rt": 590,
        "correct": true,
        "response": "ArrowLeft",
        "congruent": false,
        "gazeTowards": false,
        "gazeCondition": "away",
        "faceOnLeft": true,
        "impliedDirection": 0,
        "testDirection": 180,
        "avgFps": 144,
        "minFps": 141,
        "maxFps": 147,
        "totalFrames": 85,
        "frameRates": 144
      },
      {
        "trial_number": 102,
        "trial_index": 592,
        "rt": 773,
        "correct": true,
        "response": "ArrowRight",
        "congruent": false,
        "gazeTowards": true,
        "gazeCondition": "towards",
        "faceOnLeft": false,
        "impliedDirection": 180,
        "testDirection": 0,
        "avgFps": 143,
        "minFps": 66,
        "maxFps": 182,
        "totalFrames": 111,
        "frameRates": 143
      },
      {
        "trial_number": 103,
        "trial_index": 597,
        "rt": 834,
        "correct": true,
        "response": "ArrowRight",
        "congruent": true,
        "gazeTowards": true,
        "gazeCondition": "towards",
        "faceOnLeft": true,
        "impliedDirection": 0,
        "testDirection": 0,
        "avgFps": 144,
        "minFps": 141,
        "maxFps": 147,
        "totalFrames": 120,
        "frameRates": 144
      },
      {
        "trial_number": 104,
        "trial_index": 602,
        "rt": 533,
        "correct": true,
        "response": "ArrowRight",
        "congruent": false,
        "gazeTowards": false,
        "gazeCondition": "away",
        "faceOnLeft": false,
        "impliedDirection": 180,
        "testDirection": 0,
        "avgFps": 142,
        "minFps": 69,
        "maxFps": 154,
        "totalFrames": 76,
        "frameRates": 142
      },
      {
        "trial_number": 105,
        "trial_index": 607,
        "rt": 842,
        "correct": true,
        "response": "ArrowRight",
        "congruent": false,
        "gazeTowards": false,
        "gazeCondition": "away",
        "faceOnLeft": false,
        "impliedDirection": 180,
        "testDirection": 0,
        "avgFps": 144,
        "minFps": 139,
        "maxFps": 150,
        "totalFrames": 121,
        "frameRates": 144
      },
      {
        "trial_number": 106,
        "trial_index": 612,
        "rt": 645,
        "correct": true,
        "response": "ArrowLeft",
        "congruent": true,
        "gazeTowards": false,
        "gazeCondition": "away",
        "faceOnLeft": false,
        "impliedDirection": 180,
        "testDirection": 180,
        "avgFps": 144,
        "minFps": 139,
        "maxFps": 150,
        "totalFrames": 93,
        "frameRates": 144
      },
      {
        "trial_number": 107,
        "trial_index": 617,
        "rt": 548,
        "correct": true,
        "response": "ArrowRight",
        "congruent": false,
        "gazeTowards": true,
        "gazeCondition": "towards",
        "faceOnLeft": false,
        "impliedDirection": 180,
        "testDirection": 0,
        "avgFps": 144,
        "minFps": 141,
        "maxFps": 150,
        "totalFrames": 79,
        "frameRates": 144
      },
      {
        "trial_number": 108,
        "trial_index": 622,
        "rt": 552,
        "correct": true,
        "response": "ArrowLeft",
        "congruent": true,
        "gazeTowards": false,
        "gazeCondition": "away",
        "faceOnLeft": false,
        "impliedDirection": 180,
        "testDirection": 180,
        "avgFps": 144,
        "minFps": 141,
        "maxFps": 147,
        "totalFrames": 80,
        "frameRates": 144
      },
      {
        "trial_number": 109,
        "trial_index": 627,
        "rt": 521,
        "correct": true,
        "response": "ArrowRight",
        "congruent": true,
        "gazeTowards": true,
        "gazeCondition": "towards",
        "faceOnLeft": true,
        "impliedDirection": 0,
        "testDirection": 0,
        "avgFps": 142,
        "minFps": 72,
        "maxFps": 154,
        "totalFrames": 74,
        "frameRates": 142
      },
      {
        "trial_number": 110,
        "trial_index": 635,
        "rt": 612,
        "correct": true,
        "response": "ArrowLeft",
        "congruent": true,
        "gazeTowards": false,
        "gazeCondition": "away",
        "faceOnLeft": false,
        "impliedDirection": 180,
        "testDirection": 180,
        "avgFps": 144,
        "minFps": 141,
        "maxFps": 152,
        "totalFrames": 88,
        "frameRates": 144
      },
      {
        "trial_number": 111,
        "trial_index": 640,
        "rt": 596,
        "correct": true,
        "response": "ArrowLeft",
        "congruent": false,
        "gazeTowards": false,
        "gazeCondition": "away",
        "faceOnLeft": true,
        "impliedDirection": 0,
        "testDirection": 180,
        "avgFps": 144,
        "minFps": 141,
        "maxFps": 147,
        "totalFrames": 86,
        "frameRates": 144
      },
      {
        "trial_number": 112,
        "trial_index": 645,
        "rt": 668,
        "correct": true,
        "response": "ArrowLeft",
        "congruent": true,
        "gazeTowards": true,
        "gazeCondition": "towards",
        "faceOnLeft": false,
        "impliedDirection": 180,
        "testDirection": 180,
        "avgFps": 144,
        "minFps": 141,
        "maxFps": 147,
        "totalFrames": 96,
        "frameRates": 144
      },
      {
        "trial_number": 113,
        "trial_index": 650,
        "rt": 862,
        "correct": true,
        "response": "ArrowRight",
        "congruent": true,
        "gazeTowards": true,
        "gazeCondition": "towards",
        "faceOnLeft": true,
        "impliedDirection": 0,
        "testDirection": 0,
        "avgFps": 144,
        "minFps": 141,
        "maxFps": 147,
        "totalFrames": 124,
        "frameRates": 144
      },
      {
        "trial_number": 114,
        "trial_index": 655,
        "rt": 619,
        "correct": true,
        "response": "ArrowLeft",
        "congruent": true,
        "gazeTowards": true,
        "gazeCondition": "towards",
        "faceOnLeft": false,
        "impliedDirection": 180,
        "testDirection": 180,
        "avgFps": 144,
        "minFps": 141,
        "maxFps": 147,
        "totalFrames": 89,
        "frameRates": 144
      },
      {
        "trial_number": 115,
        "trial_index": 660,
        "rt": 489,
        "correct": true,
        "response": "ArrowLeft",
        "congruent": false,
        "gazeTowards": true,
        "gazeCondition": "towards",
        "faceOnLeft": true,
        "impliedDirection": 0,
        "testDirection": 180,
        "avgFps": 144,
        "minFps": 143,
        "maxFps": 147,
        "totalFrames": 69,
        "frameRates": 144
      },
      {
        "trial_number": 116,
        "trial_index": 665,
        "rt": 480,
        "correct": true,
        "response": "ArrowLeft",
        "congruent": true,
        "gazeTowards": true,
        "gazeCondition": "towards",
        "faceOnLeft": false,
        "impliedDirection": 180,
        "testDirection": 180,
        "avgFps": 144,
        "minFps": 141,
        "maxFps": 147,
        "totalFrames": 69,
        "frameRates": 144
      },
      {
        "trial_number": 117,
        "trial_index": 670,
        "rt": 565,
        "correct": true,
        "response": "ArrowLeft",
        "congruent": true,
        "gazeTowards": true,
        "gazeCondition": "towards",
        "faceOnLeft": false,
        "impliedDirection": 180,
        "testDirection": 180,
        "avgFps": 144,
        "minFps": 141,
        "maxFps": 148,
        "totalFrames": 81,
        "frameRates": 144
      },
      {
        "trial_number": 118,
        "trial_index": 675,
        "rt": 541,
        "correct": true,
        "response": "ArrowLeft",
        "congruent": false,
        "gazeTowards": false,
        "gazeCondition": "away",
        "faceOnLeft": true,
        "impliedDirection": 0,
        "testDirection": 180,
        "avgFps": 142,
        "minFps": 72,
        "maxFps": 152,
        "totalFrames": 77,
        "frameRates": 142
      },
      {
        "trial_number": 119,
        "trial_index": 683,
        "rt": 494,
        "correct": true,
        "response": "ArrowLeft",
        "congruent": true,
        "gazeTowards": false,
        "gazeCondition": "away",
        "faceOnLeft": false,
        "impliedDirection": 180,
        "testDirection": 180,
        "avgFps": 144,
        "minFps": 141,
        "maxFps": 147,
        "totalFrames": 71,
        "frameRates": 144
      }
    ],
    "catch": {
      "total": 12,
      "correct": 12,
      "accuracy": 100,
      "meanRT": 680,
      "trials": [
        {
          "trial_number": 0,
          "trial_index": 53,
          "rt": 1185,
          "correct": true,
          "colorTarget": "tree",
          "gazeTowards": true,
          "gazeCondition": "towards",
          "faceOnLeft": true
        },
        {
          "trial_number": 1,
          "trial_index": 81,
          "rt": 761,
          "correct": true,
          "colorTarget": "face",
          "gazeTowards": true,
          "gazeCondition": "towards",
          "faceOnLeft": false
        },
        {
          "trial_number": 2,
          "trial_index": 184,
          "rt": 653,
          "correct": true,
          "colorTarget": "face",
          "gazeTowards": true,
          "gazeCondition": "towards",
          "faceOnLeft": true
        },
        {
          "trial_number": 3,
          "trial_index": 187,
          "rt": 531,
          "correct": true,
          "colorTarget": "face",
          "gazeTowards": true,
          "gazeCondition": "towards",
          "faceOnLeft": true
        },
        {
          "trial_number": 4,
          "trial_index": 226,
          "rt": 966,
          "correct": true,
          "colorTarget": "tree",
          "gazeTowards": true,
          "gazeCondition": "towards",
          "faceOnLeft": false
        },
        {
          "trial_number": 5,
          "trial_index": 264,
          "rt": 669,
          "correct": true,
          "colorTarget": "face",
          "gazeTowards": true,
          "gazeCondition": "towards",
          "faceOnLeft": false
        },
        {
          "trial_number": 6,
          "trial_index": 342,
          "rt": 568,
          "correct": true,
          "colorTarget": "face",
          "gazeTowards": false,
          "gazeCondition": "away",
          "faceOnLeft": true
        },
        {
          "trial_number": 7,
          "trial_index": 360,
          "rt": 478,
          "correct": true,
          "colorTarget": "tree",
          "gazeTowards": false,
          "gazeCondition": "away",
          "faceOnLeft": true
        },
        {
          "trial_number": 8,
          "trial_index": 369,
          "rt": 475,
          "correct": true,
          "colorTarget": "tree",
          "gazeTowards": true,
          "gazeCondition": "towards",
          "faceOnLeft": true
        },
        {
          "trial_number": 9,
          "trial_index": 442,
          "rt": 570,
          "correct": true,
          "colorTarget": "tree",
          "gazeTowards": true,
          "gazeCondition": "towards",
          "faceOnLeft": true
        },
        {
          "trial_number": 10,
          "trial_index": 631,
          "rt": 664,
          "correct": true,
          "colorTarget": "tree",
          "gazeTowards": true,
          "gazeCondition": "towards",
          "faceOnLeft": false
        },
        {
          "trial_number": 11,
          "trial_index": 679,
          "rt": 636,
          "correct": true,
          "colorTarget": "face",
          "gazeTowards": true,
          "gazeCondition": "towards",
          "faceOnLeft": true
        }
      ]
    },
    "practice": {
      "trials": [
        {
          "trial_number": 0,
          "rt": 1765,
          "correct": true,
          "direction": 0
        },
        {
          "trial_number": 1,
          "rt": 1227,
          "correct": true,
          "direction": 0
        },
        {
          "trial_number": 2,
          "rt": 1360,
          "correct": true,
          "direction": 0
        },
        {
          "trial_number": 3,
          "rt": 1037,
          "correct": true,
          "direction": 180
        },
        {
          "trial_number": 4,
          "rt": 1296,
          "correct": true,
          "direction": 0
        },
        {
          "trial_number": 5,
          "rt": 816,
          "correct": true,
          "direction": 180
        },
        {
          "trial_number": 6,
          "rt": 869,
          "correct": true,
          "direction": 0
        },
        {
          "trial_number": 7,
          "rt": 981,
          "correct": true,
          "direction": 0
        },
        {
          "trial_number": 8,
          "rt": 830,
          "correct": true,
          "direction": 0
        },
        {
          "trial_number": 9,
          "rt": 896,
          "correct": true,
          "direction": 0
        }
      ],
      "meanRT": 1108,
      "accuracy": 100
    }
  }
}