{
  "experiment": "rdk-face-1",
  "UUID": "67dbb122-82d1-4ca7-a924-ea55293da061",
  "data": {
    "session": {
      "experiment_version": "1.3",
      "treatment": "faces",
      "file_version": "1.3",
      "totalTrials": 48,
      "session_group": "default",
      "browserData": {
        "os": "Windows",
        "browser": "Edge",
        "screenResolution": "1364x768",
        "browserViewport": "1356x650"
      },
      "calibration": {
        "monitorWidthCm": 38,
        "viewingDistanceCm": 54,
        "pixelsPerDegree": 50
      },
      "parameters": {
        "coherence": 0.4,
        "apertureDeg": 5,
        "dotSpeedDegPerSec": 2,
        "lifetimeMs": 200,
        "fixationDurationMs": 1500,
        "faceDurationMs": 1500,
        "testDurationMs": 2000
      },
      "mturk": {
        "assignmentId": "3VBEN272MYXC9ITITXE0XMO6Q6UGSQ",
        "workerId": "A33S1IZSVAX9YU",
        "hitId": "3G9UA71JW8SXU22XNYWQAOOQ9U97J0"
      }
    },
    "trials": [
      {
        "trial_number": 0,
        "trial_index": 47,
        "rt": 950,
        "correct": true,
        "response": "ArrowLeft",
        "congruent": true,
        "eyesOpen": false,
        "faceOnLeft": false,
        "impliedDirection": 180,
        "testDirection": 180
      },
      {
        "trial_number": 1,
        "trial_index": 52,
        "rt": 1088,
        "correct": true,
        "response": "ArrowLeft",
        "congruent": true,
        "eyesOpen": false,
        "faceOnLeft": false,
        "impliedDirection": 180,
        "testDirection": 180
      },
      {
        "trial_number": 2,
        "trial_index": 57,
        "rt": 1134,
        "correct": true,
        "response": "ArrowLeft",
        "congruent": false,
        "eyesOpen": false,
        "faceOnLeft": true,
        "impliedDirection": 0,
        "testDirection": 180
      },
      {
        "trial_number": 3,
        "trial_index": 62,
        "rt": 1142,
        "correct": true,
        "response": "ArrowLeft",
        "congruent": false,
        "eyesOpen": true,
        "faceOnLeft": true,
        "impliedDirection": 0,
        "testDirection": 180
      },
      {
        "trial_number": 4,
        "trial_index": 67,
        "rt": 938,
        "correct": true,
        "response": "ArrowRight",
        "congruent": false,
        "eyesOpen": false,
        "faceOnLeft": false,
        "impliedDirection": 180,
        "testDirection": 0
      },
      {
        "trial_number": 5,
        "trial_index": 72,
        "rt": 996,
        "correct": true,
        "response": "ArrowLeft",
        "congruent": true,
        "eyesOpen": true,
        "faceOnLeft": false,
        "impliedDirection": 180,
        "testDirection": 180
      },
      {
        "trial_number": 6,
        "trial_index": 77,
        "rt": 1045,
        "correct": true,
        "response": "ArrowLeft",
        "congruent": true,
        "eyesOpen": true,
        "faceOnLeft": false,
        "impliedDirection": 180,
        "testDirection": 180
      },
      {
        "trial_number": 7,
        "trial_index": 82,
        "rt": 860,
        "correct": true,
        "response": "ArrowRight",
        "congruent": false,
        "eyesOpen": false,
        "faceOnLeft": false,
        "impliedDirection": 180,
        "testDirection": 0
      },
      {
        "trial_number": 8,
        "trial_index": 87,
        "rt": 766,
        "correct": true,
        "response": "ArrowLeft",
        "congruent": true,
        "eyesOpen": true,
        "faceOnLeft": false,
        "impliedDirection": 180,
        "testDirection": 180
      },
      {
        "trial_number": 9,
        "trial_index": 92,
        "rt": 1303,
        "correct": true,
        "response": "ArrowLeft",
        "congruent": false,
        "eyesOpen": false,
        "faceOnLeft": true,
        "impliedDirection": 0,
        "testDirection": 180
      },
      {
        "trial_number": 10,
        "trial_index": 97,
        "rt": 1086,
        "correct": true,
        "response": "ArrowLeft",
        "congruent": true,
        "eyesOpen": true,
        "faceOnLeft": false,
        "impliedDirection": 180,
        "testDirection": 180
      },
      {
        "trial_number": 11,
        "trial_index": 102,
        "rt": 747,
        "correct": false,
        "response": "ArrowRight",
        "congruent": false,
        "eyesOpen": true,
        "faceOnLeft": true,
        "impliedDirection": 0,
        "testDirection": 180
      },
      {
        "trial_number": 12,
        "trial_index": 107,
        "rt": 1187,
        "correct": true,
        "response": "ArrowRight",
        "congruent": true,
        "eyesOpen": false,
        "faceOnLeft": true,
        "impliedDirection": 0,
        "testDirection": 0
      },
      {
        "trial_number": 13,
        "trial_index": 112,
        "rt": 970,
        "correct": true,
        "response": "ArrowRight",
        "congruent": false,
        "eyesOpen": false,
        "faceOnLeft": false,
        "impliedDirection": 180,
        "testDirection": 0
      },
      {
        "trial_number": 14,
        "trial_index": 117,
        "rt": 1326,
        "correct": true,
        "response": "ArrowLeft",
        "congruent": true,
        "eyesOpen": true,
        "faceOnLeft": false,
        "impliedDirection": 180,
        "testDirection": 180
      },
      {
        "trial_number": 15,
        "trial_index": 122,
        "rt": 948,
        "correct": true,
        "response": "ArrowLeft",
        "congruent": true,
        "eyesOpen": true,
        "faceOnLeft": false,
        "impliedDirection": 180,
        "testDirection": 180
      },
      {
        "trial_number": 16,
        "trial_index": 127,
        "rt": 1357,
        "correct": true,
        "response": "ArrowLeft",
        "congruent": false,
        "eyesOpen": false,
        "faceOnLeft": true,
        "impliedDirection": 0,
        "testDirection": 180
      },
      {
        "trial_number": 17,
        "trial_index": 132,
        "rt": 1069,
        "correct": true,
        "response": "ArrowRight",
        "congruent": true,
        "eyesOpen": false,
        "faceOnLeft": true,
        "impliedDirection": 0,
        "testDirection": 0
      },
      {
        "trial_number": 18,
        "trial_index": 137,
        "rt": 910,
        "correct": true,
        "response": "ArrowRight",
        "congruent": false,
        "eyesOpen": true,
        "faceOnLeft": false,
        "impliedDirection": 180,
        "testDirection": 0
      },
      {
        "trial_number": 19,
        "trial_index": 142,
        "rt": 1122,
        "correct": true,
        "response": "ArrowRight",
        "congruent": true,
        "eyesOpen": false,
        "faceOnLeft": true,
        "impliedDirection": 0,
        "testDirection": 0
      },
      {
        "trial_number": 20,
        "trial_index": 147,
        "rt": 1042,
        "correct": true,
        "response": "ArrowRight",
        "congruent": true,
        "eyesOpen": true,
        "faceOnLeft": true,
        "impliedDirection": 0,
        "testDirection": 0
      },
      {
        "trial_number": 21,
        "trial_index": 152,
        "rt": 974,
        "correct": true,
        "response": "ArrowRight",
        "congruent": true,
        "eyesOpen": false,
        "faceOnLeft": true,
        "impliedDirection": 0,
        "testDirection": 0
      },
      {
        "trial_number": 22,
        "trial_index": 157,
        "rt": 1052,
        "correct": true,
        "response": "ArrowRight",
        "congruent": false,
        "eyesOpen": true,
        "faceOnLeft": false,
        "impliedDirection": 180,
        "testDirection": 0
      },
      {
        "trial_number": 23,
        "trial_index": 162,
        "rt": 1046,
        "correct": true,
        "response": "ArrowRight",
        "congruent": true,
        "eyesOpen": true,
        "faceOnLeft": true,
        "impliedDirection": 0,
        "testDirection": 0
      },
      {
        "trial_number": 24,
        "trial_index": 167,
        "rt": 927,
        "correct": true,
        "response": "ArrowLeft",
        "congruent": false,
        "eyesOpen": true,
        "faceOnLeft": true,
        "impliedDirection": 0,
        "testDirection": 180
      },
      {
        "trial_number": 25,
        "trial_index": 172,
        "rt": 1258,
        "correct": true,
        "response": "ArrowRight",
        "congruent": true,
        "eyesOpen": true,
        "faceOnLeft": true,
        "impliedDirection": 0,
        "testDirection": 0
      },
      {
        "trial_number": 26,
        "trial_index": 177,
        "rt": 1854,
        "correct": true,
        "response": "ArrowLeft",
        "congruent": false,
        "eyesOpen": false,
        "faceOnLeft": true,
        "impliedDirection": 0,
        "testDirection": 180
      },
      {
        "trial_number": 27,
        "trial_index": 182,
        "rt": 1655,
        "correct": false,
        "response": "ArrowRight",
        "congruent": true,
        "eyesOpen": true,
        "faceOnLeft": false,
        "impliedDirection": 180,
        "testDirection": 180
      },
      {
        "trial_number": 28,
        "trial_index": 187,
        "rt": 1121,
        "correct": true,
        "response": "ArrowRight",
        "congruent": false,
        "eyesOpen": false,
        "faceOnLeft": false,
        "impliedDirection": 180,
        "testDirection": 0
      },
      {
        "trial_number": 29,
        "trial_index": 192,
        "rt": 1575,
        "correct": true,
        "response": "ArrowLeft",
        "congruent": false,
        "eyesOpen": false,
        "faceOnLeft": true,
        "impliedDirection": 0,
        "testDirection": 180
      },
      {
        "trial_number": 30,
        "trial_index": 197,
        "rt": 1279,
        "correct": true,
        "response": "ArrowLeft",
        "congruent": false,
        "eyesOpen": false,
        "faceOnLeft": true,
        "impliedDirection": 0,
        "testDirection": 180
      },
      {
        "trial_number": 31,
        "trial_index": 202,
        "rt": 1276,
        "correct": false,
        "response": "ArrowRight",
        "congruent": true,
        "eyesOpen": false,
        "faceOnLeft": false,
        "impliedDirection": 180,
        "testDirection": 180
      },
      {
        "trial_number": 32,
        "trial_index": 207,
        "rt": 945,
        "correct": true,
        "response": "ArrowLeft",
        "congruent": true,
        "eyesOpen": true,
        "faceOnLeft": false,
        "impliedDirection": 180,
        "testDirection": 180
      },
      {
        "trial_number": 33,
        "trial_index": 212,
        "rt": 923,
        "correct": true,
        "response": "ArrowRight",
        "congruent": false,
        "eyesOpen": true,
        "faceOnLeft": false,
        "impliedDirection": 180,
        "testDirection": 0
      },
      {
        "trial_number": 34,
        "trial_index": 217,
        "rt": 984,
        "correct": true,
        "response": "ArrowRight",
        "congruent": false,
        "eyesOpen": true,
        "faceOnLeft": false,
        "impliedDirection": 180,
        "testDirection": 0
      },
      {
        "trial_number": 35,
        "trial_index": 222,
        "rt": 1396,
        "correct": true,
        "response": "ArrowRight",
        "congruent": false,
        "eyesOpen": true,
        "faceOnLeft": false,
        "impliedDirection": 180,
        "testDirection": 0
      },
      {
        "trial_number": 36,
        "trial_index": 227,
        "rt": 1707,
        "correct": true,
        "response": "ArrowRight",
        "congruent": true,
        "eyesOpen": false,
        "faceOnLeft": true,
        "impliedDirection": 0,
        "testDirection": 0
      },
      {
        "trial_number": 37,
        "trial_index": 232,
        "rt": 1521,
        "correct": true,
        "response": "ArrowRight",
        "congruent": false,
        "eyesOpen": false,
        "faceOnLeft": false,
        "impliedDirection": 180,
        "testDirection": 0
      },
      {
        "trial_number": 38,
        "trial_index": 237,
        "rt": 1365,
        "correct": false,
        "response": "ArrowRight",
        "congruent": false,
        "eyesOpen": true,
        "faceOnLeft": true,
        "impliedDirection": 0,
        "testDirection": 180
      },
      {
        "trial_number": 39,
        "trial_index": 242,
        "rt": 1117,
        "correct": true,
        "response": "ArrowRight",
        "congruent": true,
        "eyesOpen": false,
        "faceOnLeft": true,
        "impliedDirection": 0,
        "testDirection": 0
      },
      {
        "trial_number": 40,
        "trial_index": 247,
        "rt": 1003,
        "correct": true,
        "response": "ArrowLeft",
        "congruent": true,
        "eyesOpen": false,
        "faceOnLeft": false,
        "impliedDirection": 180,
        "testDirection": 180
      },
      {
        "trial_number": 41,
        "trial_index": 252,
        "rt": 1270,
        "correct": true,
        "response": "ArrowLeft",
        "congruent": false,
        "eyesOpen": true,
        "faceOnLeft": true,
        "impliedDirection": 0,
        "testDirection": 180
      },
      {
        "trial_number": 42,
        "trial_index": 257,
        "rt": 1235,
        "correct": true,
        "response": "ArrowLeft",
        "congruent": false,
        "eyesOpen": true,
        "faceOnLeft": true,
        "impliedDirection": 0,
        "testDirection": 180
      },
      {
        "trial_number": 43,
        "trial_index": 262,
        "rt": 1237,
        "correct": false,
        "response": "ArrowRight",
        "congruent": true,
        "eyesOpen": false,
        "faceOnLeft": false,
        "impliedDirection": 180,
        "testDirection": 180
      },
      {
        "trial_number": 44,
        "trial_index": 267,
        "rt": 1716,
        "correct": true,
        "response": "ArrowRight",
        "congruent": true,
        "eyesOpen": true,
        "faceOnLeft": true,
        "impliedDirection": 0,
        "testDirection": 0
      },
      {
        "trial_number": 45,
        "trial_index": 272,
        "rt": 1299,
        "correct": true,
        "response": "ArrowRight",
        "congruent": true,
        "eyesOpen": false,
        "faceOnLeft": true,
        "impliedDirection": 0,
        "testDirection": 0
      },
      {
        "trial_number": 46,
        "trial_index": 277,
        "rt": 1124,
        "correct": true,
        "response": "ArrowRight",
        "congruent": false,
        "eyesOpen": true,
        "faceOnLeft": false,
        "impliedDirection": 180,
        "testDirection": 0
      },
      {
        "trial_number": 47,
        "trial_index": 282,
        "rt": 792,
        "correct": false,
        "response": "ArrowLeft",
        "congruent": false,
        "eyesOpen": false,
        "faceOnLeft": false,
        "impliedDirection": 180,
        "testDirection": 0
      }
    ],
    "practice": {
      "trials": [
        {
          "trial_number": 0,
          "rt": 1239,
          "correct": true,
          "direction": 0
        },
        {
          "trial_number": 1,
          "rt": 1153,
          "correct": true,
          "direction": 0
        },
        {
          "trial_number": 2,
          "rt": 1000,
          "correct": true,
          "direction": 180
        },
        {
          "trial_number": 3,
          "rt": 1055,
          "correct": true,
          "direction": 180
        },
        {
          "trial_number": 4,
          "rt": 1237,
          "correct": true,
          "direction": 0
        },
        {
          "trial_number": 5,
          "rt": 848,
          "correct": false,
          "direction": 0
        },
        {
          "trial_number": 6,
          "rt": 1223,
          "correct": true,
          "direction": 180
        },
        {
          "trial_number": 7,
          "rt": 1387,
          "correct": true,
          "direction": 180
        },
        {
          "trial_number": 8,
          "rt": 1108,
          "correct": true,
          "direction": 180
        },
        {
          "trial_number": 9,
          "rt": 1050,
          "correct": true,
          "direction": 0
        }
      ],
      "meanRT": 1130,
      "accuracy": 90
    }
  }
}