{
  "experiment": "rdk-face-1",
  "UUID": "c059a5c7-f437-44ff-8664-2149231a2f04",
  "data": {
    "session": {
      "experiment_version": "1.8.6",
      "treatment": "faces_towards_away_catch",
      "file_version": "1.8.6",
      "totalTrials": 120,
      "totalTrialsIncludingCatch": 132,
      "conditions": {
        "gazeTowardsCount": 60,
        "gazeAwayCount": 60,
        "gazeTowardsAccuracy": 100,
        "gazeAwayAccuracy": 100
      },
      "session_group": "default",
      "browserData": {
        "os": "Windows",
        "browser": "Chrome",
        "screenResolution": "2560x1440",
        "browserViewport": "2560x1440",
        "devicePixelRatio": 1,
        "colorDepth": 32,
        "hardwareConcurrency": 24,
        "deviceMemory": 8,
        "gpuRenderer": "ANGLE (NVIDIA, NVIDIA GeForce RTX 3080 Ti (0x00002208) Direct3D11 vs_5_0 ps_5_0, D3D11)",
        "measuredRefreshRateHz": 144
      },
      "attention": {
        "visibilityEvents": [
          {
            "event": "visibilitychange",
            "state": "visible",
            "timestamp": 1772766203638
          },
          {
            "event": "focus",
            "state": "focused",
            "timestamp": 1772766203641
          },
          {
            "event": "blur",
            "state": "blurred",
            "timestamp": 1772766204754
          },
          {
            "event": "visibilitychange",
            "state": "hidden",
            "timestamp": 1772766204755
          },
          {
            "event": "visibilitychange",
            "state": "visible",
            "timestamp": 1772766207286
          },
          {
            "event": "focus",
            "state": "focused",
            "timestamp": 1772766207290
          }
        ]
      },
      "calibration": {
        "monitorWidthCm": 38,
        "viewingDistanceCm": 54,
        "pixelsPerDegree": 50
      },
      "parameters": {
        "coherence": 0.4,
        "apertureDeg": 5,
        "densityDotsPerDeg2": 40,
        "dotDiameterDeg": 0.035,
        "dotSpeedDegPerSec": 3,
        "lifetimeMs": 200,
        "fixationDurationMs": 1500,
        "faceDurationMs": 1500,
        "testDurationMs": 2000,
        "catchResponseMs": 3000
      },
      "prolific": {
        "prolificPid": "66d38d0f833de21dacd5cd48",
        "studyId": "",
        "sessionId": ""
      },
      "timing": {
        "startTime": "2026-03-06T03:03:21.452Z",
        "endTime": "2026-03-06T03:17:44.863Z",
        "totalElapsedTimeMs": 863411
      }
    },
    "trials": [
      {
        "trial_number": 0,
        "trial_index": 49,
        "rt": 870,
        "correct": true,
        "response": "ArrowRight",
        "congruent": true,
        "gazeTowards": false,
        "gazeCondition": "away",
        "faceOnLeft": true,
        "impliedDirection": 0,
        "testDirection": 0,
        "avgFps": 144,
        "minFps": 141,
        "maxFps": 147,
        "totalFrames": 125,
        "frameRates": 144
      },
      {
        "trial_number": 1,
        "trial_index": 54,
        "rt": 945,
        "correct": true,
        "response": "ArrowRight",
        "congruent": false,
        "gazeTowards": true,
        "gazeCondition": "towards",
        "faceOnLeft": false,
        "impliedDirection": 180,
        "testDirection": 0,
        "avgFps": 143,
        "minFps": 68,
        "maxFps": 159,
        "totalFrames": 136,
        "frameRates": 143
      },
      {
        "trial_number": 2,
        "trial_index": 59,
        "rt": 788,
        "correct": true,
        "response": "ArrowLeft",
        "congruent": false,
        "gazeTowards": true,
        "gazeCondition": "towards",
        "faceOnLeft": true,
        "impliedDirection": 0,
        "testDirection": 180,
        "avgFps": 144,
        "minFps": 141,
        "maxFps": 157,
        "totalFrames": 113,
        "frameRates": 144
      },
      {
        "trial_number": 3,
        "trial_index": 64,
        "rt": 761,
        "correct": true,
        "response": "ArrowRight",
        "congruent": false,
        "gazeTowards": false,
        "gazeCondition": "away",
        "faceOnLeft": false,
        "impliedDirection": 180,
        "testDirection": 0,
        "avgFps": 144,
        "minFps": 141,
        "maxFps": 147,
        "totalFrames": 109,
        "frameRates": 144
      },
      {
        "trial_number": 4,
        "trial_index": 69,
        "rt": 685,
        "correct": true,
        "response": "ArrowRight",
        "congruent": true,
        "gazeTowards": false,
        "gazeCondition": "away",
        "faceOnLeft": true,
        "impliedDirection": 0,
        "testDirection": 0,
        "avgFps": 144,
        "minFps": 143,
        "maxFps": 147,
        "totalFrames": 98,
        "frameRates": 144
      },
      {
        "trial_number": 5,
        "trial_index": 74,
        "rt": 753,
        "correct": true,
        "response": "ArrowRight",
        "congruent": true,
        "gazeTowards": false,
        "gazeCondition": "away",
        "faceOnLeft": true,
        "impliedDirection": 0,
        "testDirection": 0,
        "avgFps": 143,
        "minFps": 72,
        "maxFps": 147,
        "totalFrames": 108,
        "frameRates": 143
      },
      {
        "trial_number": 6,
        "trial_index": 79,
        "rt": 703,
        "correct": true,
        "response": "ArrowLeft",
        "congruent": true,
        "gazeTowards": false,
        "gazeCondition": "away",
        "faceOnLeft": false,
        "impliedDirection": 180,
        "testDirection": 180,
        "avgFps": 144,
        "minFps": 141,
        "maxFps": 147,
        "totalFrames": 101,
        "frameRates": 144
      },
      {
        "trial_number": 7,
        "trial_index": 84,
        "rt": 943,
        "correct": true,
        "response": "ArrowRight",
        "congruent": true,
        "gazeTowards": false,
        "gazeCondition": "away",
        "faceOnLeft": true,
        "impliedDirection": 0,
        "testDirection": 0,
        "avgFps": 144,
        "minFps": 141,
        "maxFps": 147,
        "totalFrames": 136,
        "frameRates": 144
      },
      {
        "trial_number": 8,
        "trial_index": 89,
        "rt": 1001,
        "correct": true,
        "response": "ArrowLeft",
        "congruent": false,
        "gazeTowards": false,
        "gazeCondition": "away",
        "faceOnLeft": true,
        "impliedDirection": 0,
        "testDirection": 180,
        "avgFps": 144,
        "minFps": 141,
        "maxFps": 147,
        "totalFrames": 144,
        "frameRates": 144
      },
      {
        "trial_number": 9,
        "trial_index": 94,
        "rt": 919,
        "correct": true,
        "response": "ArrowRight",
        "congruent": true,
        "gazeTowards": false,
        "gazeCondition": "away",
        "faceOnLeft": true,
        "impliedDirection": 0,
        "testDirection": 0,
        "avgFps": 144,
        "minFps": 141,
        "maxFps": 147,
        "totalFrames": 132,
        "frameRates": 144
      },
      {
        "trial_number": 10,
        "trial_index": 102,
        "rt": 1060,
        "correct": true,
        "response": "ArrowLeft",
        "congruent": false,
        "gazeTowards": true,
        "gazeCondition": "towards",
        "faceOnLeft": true,
        "impliedDirection": 0,
        "testDirection": 180,
        "avgFps": 144,
        "minFps": 141,
        "maxFps": 147,
        "totalFrames": 152,
        "frameRates": 144
      },
      {
        "trial_number": 11,
        "trial_index": 107,
        "rt": 900,
        "correct": true,
        "response": "ArrowLeft",
        "congruent": true,
        "gazeTowards": true,
        "gazeCondition": "towards",
        "faceOnLeft": false,
        "impliedDirection": 180,
        "testDirection": 180,
        "avgFps": 144,
        "minFps": 141,
        "maxFps": 147,
        "totalFrames": 129,
        "frameRates": 144
      },
      {
        "trial_number": 12,
        "trial_index": 112,
        "rt": 1068,
        "correct": true,
        "response": "ArrowLeft",
        "congruent": true,
        "gazeTowards": true,
        "gazeCondition": "towards",
        "faceOnLeft": false,
        "impliedDirection": 180,
        "testDirection": 180,
        "avgFps": 143,
        "minFps": 67,
        "maxFps": 167,
        "totalFrames": 153,
        "frameRates": 143
      },
      {
        "trial_number": 13,
        "trial_index": 117,
        "rt": 585,
        "correct": true,
        "response": "ArrowRight",
        "congruent": false,
        "gazeTowards": true,
        "gazeCondition": "towards",
        "faceOnLeft": false,
        "impliedDirection": 180,
        "testDirection": 0,
        "avgFps": 144,
        "minFps": 141,
        "maxFps": 147,
        "totalFrames": 84,
        "frameRates": 144
      },
      {
        "trial_number": 14,
        "trial_index": 122,
        "rt": 814,
        "correct": true,
        "response": "ArrowRight",
        "congruent": false,
        "gazeTowards": false,
        "gazeCondition": "away",
        "faceOnLeft": false,
        "impliedDirection": 180,
        "testDirection": 0,
        "avgFps": 143,
        "minFps": 68,
        "maxFps": 159,
        "totalFrames": 117,
        "frameRates": 143
      },
      {
        "trial_number": 15,
        "trial_index": 127,
        "rt": 686,
        "correct": true,
        "response": "ArrowLeft",
        "congruent": false,
        "gazeTowards": false,
        "gazeCondition": "away",
        "faceOnLeft": true,
        "impliedDirection": 0,
        "testDirection": 180,
        "avgFps": 144,
        "minFps": 141,
        "maxFps": 147,
        "totalFrames": 98,
        "frameRates": 144
      },
      {
        "trial_number": 16,
        "trial_index": 132,
        "rt": 626,
        "correct": true,
        "response": "ArrowRight",
        "congruent": true,
        "gazeTowards": false,
        "gazeCondition": "away",
        "faceOnLeft": true,
        "impliedDirection": 0,
        "testDirection": 0,
        "avgFps": 144,
        "minFps": 141,
        "maxFps": 147,
        "totalFrames": 90,
        "frameRates": 144
      },
      {
        "trial_number": 17,
        "trial_index": 137,
        "rt": 663,
        "correct": true,
        "response": "ArrowLeft",
        "congruent": true,
        "gazeTowards": false,
        "gazeCondition": "away",
        "faceOnLeft": false,
        "impliedDirection": 180,
        "testDirection": 180,
        "avgFps": 144,
        "minFps": 141,
        "maxFps": 147,
        "totalFrames": 95,
        "frameRates": 144
      },
      {
        "trial_number": 18,
        "trial_index": 142,
        "rt": 665,
        "correct": true,
        "response": "ArrowLeft",
        "congruent": false,
        "gazeTowards": true,
        "gazeCondition": "towards",
        "faceOnLeft": true,
        "impliedDirection": 0,
        "testDirection": 180,
        "avgFps": 144,
        "minFps": 141,
        "maxFps": 147,
        "totalFrames": 96,
        "frameRates": 144
      },
      {
        "trial_number": 19,
        "trial_index": 147,
        "rt": 647,
        "correct": true,
        "response": "ArrowRight",
        "congruent": false,
        "gazeTowards": false,
        "gazeCondition": "away",
        "faceOnLeft": false,
        "impliedDirection": 180,
        "testDirection": 0,
        "avgFps": 142,
        "minFps": 68,
        "maxFps": 161,
        "totalFrames": 93,
        "frameRates": 142
      },
      {
        "trial_number": 20,
        "trial_index": 158,
        "rt": 952,
        "correct": true,
        "response": "ArrowLeft",
        "congruent": false,
        "gazeTowards": false,
        "gazeCondition": "away",
        "faceOnLeft": true,
        "impliedDirection": 0,
        "testDirection": 180,
        "avgFps": 144,
        "minFps": 131,
        "maxFps": 164,
        "totalFrames": 137,
        "frameRates": 144
      },
      {
        "trial_number": 21,
        "trial_index": 163,
        "rt": 677,
        "correct": true,
        "response": "ArrowRight",
        "congruent": false,
        "gazeTowards": true,
        "gazeCondition": "towards",
        "faceOnLeft": false,
        "impliedDirection": 180,
        "testDirection": 0,
        "avgFps": 144,
        "minFps": 141,
        "maxFps": 147,
        "totalFrames": 97,
        "frameRates": 144
      },
      {
        "trial_number": 22,
        "trial_index": 168,
        "rt": 654,
        "correct": true,
        "response": "ArrowRight",
        "congruent": false,
        "gazeTowards": false,
        "gazeCondition": "away",
        "faceOnLeft": false,
        "impliedDirection": 180,
        "testDirection": 0,
        "avgFps": 144,
        "minFps": 141,
        "maxFps": 145,
        "totalFrames": 94,
        "frameRates": 144
      },
      {
        "trial_number": 23,
        "trial_index": 173,
        "rt": 621,
        "correct": true,
        "response": "ArrowLeft",
        "congruent": false,
        "gazeTowards": true,
        "gazeCondition": "towards",
        "faceOnLeft": true,
        "impliedDirection": 0,
        "testDirection": 180,
        "avgFps": 144,
        "minFps": 141,
        "maxFps": 147,
        "totalFrames": 89,
        "frameRates": 144
      },
      {
        "trial_number": 24,
        "trial_index": 178,
        "rt": 803,
        "correct": true,
        "response": "ArrowLeft",
        "congruent": true,
        "gazeTowards": true,
        "gazeCondition": "towards",
        "faceOnLeft": false,
        "impliedDirection": 180,
        "testDirection": 180,
        "avgFps": 144,
        "minFps": 141,
        "maxFps": 147,
        "totalFrames": 116,
        "frameRates": 144
      },
      {
        "trial_number": 25,
        "trial_index": 183,
        "rt": 589,
        "correct": true,
        "response": "ArrowRight",
        "congruent": false,
        "gazeTowards": false,
        "gazeCondition": "away",
        "faceOnLeft": false,
        "impliedDirection": 180,
        "testDirection": 0,
        "avgFps": 144,
        "minFps": 141,
        "maxFps": 147,
        "totalFrames": 85,
        "frameRates": 144
      },
      {
        "trial_number": 26,
        "trial_index": 188,
        "rt": 740,
        "correct": true,
        "response": "ArrowRight",
        "congruent": true,
        "gazeTowards": false,
        "gazeCondition": "away",
        "faceOnLeft": true,
        "impliedDirection": 0,
        "testDirection": 0,
        "avgFps": 144,
        "minFps": 141,
        "maxFps": 147,
        "totalFrames": 106,
        "frameRates": 144
      },
      {
        "trial_number": 27,
        "trial_index": 193,
        "rt": 628,
        "correct": true,
        "response": "ArrowLeft",
        "congruent": true,
        "gazeTowards": true,
        "gazeCondition": "towards",
        "faceOnLeft": false,
        "impliedDirection": 180,
        "testDirection": 180,
        "avgFps": 145,
        "minFps": 141,
        "maxFps": 233,
        "totalFrames": 91,
        "frameRates": 145
      },
      {
        "trial_number": 28,
        "trial_index": 198,
        "rt": 767,
        "correct": true,
        "response": "ArrowLeft",
        "congruent": true,
        "gazeTowards": true,
        "gazeCondition": "towards",
        "faceOnLeft": false,
        "impliedDirection": 180,
        "testDirection": 180,
        "avgFps": 144,
        "minFps": 141,
        "maxFps": 147,
        "totalFrames": 110,
        "frameRates": 144
      },
      {
        "trial_number": 29,
        "trial_index": 203,
        "rt": 682,
        "correct": true,
        "response": "ArrowRight",
        "congruent": true,
        "gazeTowards": true,
        "gazeCondition": "towards",
        "faceOnLeft": true,
        "impliedDirection": 0,
        "testDirection": 0,
        "avgFps": 144,
        "minFps": 141,
        "maxFps": 147,
        "totalFrames": 98,
        "frameRates": 144
      },
      {
        "trial_number": 30,
        "trial_index": 209,
        "rt": 569,
        "correct": true,
        "response": "ArrowRight",
        "congruent": true,
        "gazeTowards": false,
        "gazeCondition": "away",
        "faceOnLeft": true,
        "impliedDirection": 0,
        "testDirection": 0,
        "avgFps": 144,
        "minFps": 141,
        "maxFps": 147,
        "totalFrames": 82,
        "frameRates": 144
      },
      {
        "trial_number": 31,
        "trial_index": 214,
        "rt": 594,
        "correct": true,
        "response": "ArrowLeft",
        "congruent": true,
        "gazeTowards": false,
        "gazeCondition": "away",
        "faceOnLeft": false,
        "impliedDirection": 180,
        "testDirection": 180,
        "avgFps": 144,
        "minFps": 141,
        "maxFps": 147,
        "totalFrames": 86,
        "frameRates": 144
      },
      {
        "trial_number": 32,
        "trial_index": 219,
        "rt": 670,
        "correct": true,
        "response": "ArrowLeft",
        "congruent": false,
        "gazeTowards": true,
        "gazeCondition": "towards",
        "faceOnLeft": true,
        "impliedDirection": 0,
        "testDirection": 180,
        "avgFps": 144,
        "minFps": 141,
        "maxFps": 147,
        "totalFrames": 97,
        "frameRates": 144
      },
      {
        "trial_number": 33,
        "trial_index": 224,
        "rt": 714,
        "correct": true,
        "response": "ArrowRight",
        "congruent": true,
        "gazeTowards": false,
        "gazeCondition": "away",
        "faceOnLeft": true,
        "impliedDirection": 0,
        "testDirection": 0,
        "avgFps": 144,
        "minFps": 141,
        "maxFps": 147,
        "totalFrames": 103,
        "frameRates": 144
      },
      {
        "trial_number": 34,
        "trial_index": 229,
        "rt": 810,
        "correct": true,
        "response": "ArrowRight",
        "congruent": true,
        "gazeTowards": true,
        "gazeCondition": "towards",
        "faceOnLeft": true,
        "impliedDirection": 0,
        "testDirection": 0,
        "avgFps": 144,
        "minFps": 141,
        "maxFps": 147,
        "totalFrames": 117,
        "frameRates": 144
      },
      {
        "trial_number": 35,
        "trial_index": 234,
        "rt": 1046,
        "correct": true,
        "response": "ArrowLeft",
        "congruent": true,
        "gazeTowards": true,
        "gazeCondition": "towards",
        "faceOnLeft": false,
        "impliedDirection": 180,
        "testDirection": 180,
        "avgFps": 144,
        "minFps": 141,
        "maxFps": 147,
        "totalFrames": 150,
        "frameRates": 144
      },
      {
        "trial_number": 36,
        "trial_index": 239,
        "rt": 494,
        "correct": true,
        "response": "ArrowRight",
        "congruent": true,
        "gazeTowards": false,
        "gazeCondition": "away",
        "faceOnLeft": true,
        "impliedDirection": 0,
        "testDirection": 0,
        "avgFps": 144,
        "minFps": 141,
        "maxFps": 152,
        "totalFrames": 71,
        "frameRates": 144
      },
      {
        "trial_number": 37,
        "trial_index": 244,
        "rt": 730,
        "correct": true,
        "response": "ArrowRight",
        "congruent": false,
        "gazeTowards": true,
        "gazeCondition": "towards",
        "faceOnLeft": false,
        "impliedDirection": 180,
        "testDirection": 0,
        "avgFps": 144,
        "minFps": 141,
        "maxFps": 147,
        "totalFrames": 105,
        "frameRates": 144
      },
      {
        "trial_number": 38,
        "trial_index": 249,
        "rt": 538,
        "correct": true,
        "response": "ArrowLeft",
        "congruent": true,
        "gazeTowards": true,
        "gazeCondition": "towards",
        "faceOnLeft": false,
        "impliedDirection": 180,
        "testDirection": 180,
        "avgFps": 144,
        "minFps": 141,
        "maxFps": 147,
        "totalFrames": 78,
        "frameRates": 144
      },
      {
        "trial_number": 39,
        "trial_index": 254,
        "rt": 472,
        "correct": true,
        "response": "ArrowRight",
        "congruent": false,
        "gazeTowards": true,
        "gazeCondition": "towards",
        "faceOnLeft": false,
        "impliedDirection": 180,
        "testDirection": 0,
        "avgFps": 144,
        "minFps": 139,
        "maxFps": 147,
        "totalFrames": 68,
        "frameRates": 144
      },
      {
        "trial_number": 40,
        "trial_index": 259,
        "rt": 758,
        "correct": true,
        "response": "ArrowRight",
        "congruent": false,
        "gazeTowards": true,
        "gazeCondition": "towards",
        "faceOnLeft": false,
        "impliedDirection": 180,
        "testDirection": 0,
        "avgFps": 144,
        "minFps": 141,
        "maxFps": 147,
        "totalFrames": 109,
        "frameRates": 144
      },
      {
        "trial_number": 41,
        "trial_index": 264,
        "rt": 654,
        "correct": true,
        "response": "ArrowLeft",
        "congruent": true,
        "gazeTowards": false,
        "gazeCondition": "away",
        "faceOnLeft": false,
        "impliedDirection": 180,
        "testDirection": 180,
        "avgFps": 144,
        "minFps": 141,
        "maxFps": 147,
        "totalFrames": 94,
        "frameRates": 144
      },
      {
        "trial_number": 42,
        "trial_index": 269,
        "rt": 663,
        "correct": true,
        "response": "ArrowRight",
        "congruent": true,
        "gazeTowards": false,
        "gazeCondition": "away",
        "faceOnLeft": true,
        "impliedDirection": 0,
        "testDirection": 0,
        "avgFps": 144,
        "minFps": 141,
        "maxFps": 147,
        "totalFrames": 95,
        "frameRates": 144
      },
      {
        "trial_number": 43,
        "trial_index": 274,
        "rt": 646,
        "correct": true,
        "response": "ArrowLeft",
        "congruent": true,
        "gazeTowards": true,
        "gazeCondition": "towards",
        "faceOnLeft": false,
        "impliedDirection": 180,
        "testDirection": 180,
        "avgFps": 144,
        "minFps": 141,
        "maxFps": 147,
        "totalFrames": 93,
        "frameRates": 144
      },
      {
        "trial_number": 44,
        "trial_index": 279,
        "rt": 606,
        "correct": true,
        "response": "ArrowRight",
        "congruent": false,
        "gazeTowards": true,
        "gazeCondition": "towards",
        "faceOnLeft": false,
        "impliedDirection": 180,
        "testDirection": 0,
        "avgFps": 144,
        "minFps": 141,
        "maxFps": 147,
        "totalFrames": 88,
        "frameRates": 144
      },
      {
        "trial_number": 45,
        "trial_index": 284,
        "rt": 705,
        "correct": true,
        "response": "ArrowLeft",
        "congruent": true,
        "gazeTowards": true,
        "gazeCondition": "towards",
        "faceOnLeft": false,
        "impliedDirection": 180,
        "testDirection": 180,
        "avgFps": 143,
        "minFps": 70,
        "maxFps": 149,
        "totalFrames": 101,
        "frameRates": 143
      },
      {
        "trial_number": 46,
        "trial_index": 292,
        "rt": 865,
        "correct": true,
        "response": "ArrowLeft",
        "congruent": false,
        "gazeTowards": false,
        "gazeCondition": "away",
        "faceOnLeft": true,
        "impliedDirection": 0,
        "testDirection": 180,
        "avgFps": 144,
        "minFps": 141,
        "maxFps": 147,
        "totalFrames": 125,
        "frameRates": 144
      },
      {
        "trial_number": 47,
        "trial_index": 297,
        "rt": 710,
        "correct": true,
        "response": "ArrowLeft",
        "congruent": false,
        "gazeTowards": true,
        "gazeCondition": "towards",
        "faceOnLeft": true,
        "impliedDirection": 0,
        "testDirection": 180,
        "avgFps": 144,
        "minFps": 141,
        "maxFps": 147,
        "totalFrames": 102,
        "frameRates": 144
      },
      {
        "trial_number": 48,
        "trial_index": 302,
        "rt": 873,
        "correct": true,
        "response": "ArrowLeft",
        "congruent": false,
        "gazeTowards": false,
        "gazeCondition": "away",
        "faceOnLeft": true,
        "impliedDirection": 0,
        "testDirection": 180,
        "avgFps": 144,
        "minFps": 141,
        "maxFps": 147,
        "totalFrames": 125,
        "frameRates": 144
      },
      {
        "trial_number": 49,
        "trial_index": 307,
        "rt": 675,
        "correct": true,
        "response": "ArrowLeft",
        "congruent": true,
        "gazeTowards": false,
        "gazeCondition": "away",
        "faceOnLeft": false,
        "impliedDirection": 180,
        "testDirection": 180,
        "avgFps": 144,
        "minFps": 143,
        "maxFps": 147,
        "totalFrames": 98,
        "frameRates": 144
      },
      {
        "trial_number": 50,
        "trial_index": 312,
        "rt": 708,
        "correct": true,
        "response": "ArrowLeft",
        "congruent": true,
        "gazeTowards": true,
        "gazeCondition": "towards",
        "faceOnLeft": false,
        "impliedDirection": 180,
        "testDirection": 180,
        "avgFps": 144,
        "minFps": 143,
        "maxFps": 148,
        "totalFrames": 102,
        "frameRates": 144
      },
      {
        "trial_number": 51,
        "trial_index": 317,
        "rt": 787,
        "correct": true,
        "response": "ArrowLeft",
        "congruent": true,
        "gazeTowards": true,
        "gazeCondition": "towards",
        "faceOnLeft": false,
        "impliedDirection": 180,
        "testDirection": 180,
        "avgFps": 143,
        "minFps": 69,
        "maxFps": 156,
        "totalFrames": 113,
        "frameRates": 143
      },
      {
        "trial_number": 52,
        "trial_index": 322,
        "rt": 810,
        "correct": true,
        "response": "ArrowRight",
        "congruent": false,
        "gazeTowards": false,
        "gazeCondition": "away",
        "faceOnLeft": false,
        "impliedDirection": 180,
        "testDirection": 0,
        "avgFps": 144,
        "minFps": 141,
        "maxFps": 147,
        "totalFrames": 117,
        "frameRates": 144
      },
      {
        "trial_number": 53,
        "trial_index": 327,
        "rt": 802,
        "correct": true,
        "response": "ArrowRight",
        "congruent": false,
        "gazeTowards": true,
        "gazeCondition": "towards",
        "faceOnLeft": false,
        "impliedDirection": 180,
        "testDirection": 0,
        "avgFps": 144,
        "minFps": 141,
        "maxFps": 147,
        "totalFrames": 116,
        "frameRates": 144
      },
      {
        "trial_number": 54,
        "trial_index": 332,
        "rt": 755,
        "correct": true,
        "response": "ArrowRight",
        "congruent": false,
        "gazeTowards": true,
        "gazeCondition": "towards",
        "faceOnLeft": false,
        "impliedDirection": 180,
        "testDirection": 0,
        "avgFps": 144,
        "minFps": 141,
        "maxFps": 147,
        "totalFrames": 108,
        "frameRates": 144
      },
      {
        "trial_number": 55,
        "trial_index": 337,
        "rt": 776,
        "correct": true,
        "response": "ArrowLeft",
        "congruent": true,
        "gazeTowards": true,
        "gazeCondition": "towards",
        "faceOnLeft": false,
        "impliedDirection": 180,
        "testDirection": 180,
        "avgFps": 144,
        "minFps": 141,
        "maxFps": 147,
        "totalFrames": 111,
        "frameRates": 144
      },
      {
        "trial_number": 56,
        "trial_index": 342,
        "rt": 805,
        "correct": true,
        "response": "ArrowLeft",
        "congruent": true,
        "gazeTowards": true,
        "gazeCondition": "towards",
        "faceOnLeft": false,
        "impliedDirection": 180,
        "testDirection": 180,
        "avgFps": 144,
        "minFps": 141,
        "maxFps": 147,
        "totalFrames": 116,
        "frameRates": 144
      },
      {
        "trial_number": 57,
        "trial_index": 347,
        "rt": 770,
        "correct": true,
        "response": "ArrowRight",
        "congruent": true,
        "gazeTowards": false,
        "gazeCondition": "away",
        "faceOnLeft": true,
        "impliedDirection": 0,
        "testDirection": 0,
        "avgFps": 144,
        "minFps": 141,
        "maxFps": 147,
        "totalFrames": 111,
        "frameRates": 144
      },
      {
        "trial_number": 58,
        "trial_index": 352,
        "rt": 804,
        "correct": true,
        "response": "ArrowLeft",
        "congruent": false,
        "gazeTowards": true,
        "gazeCondition": "towards",
        "faceOnLeft": true,
        "impliedDirection": 0,
        "testDirection": 180,
        "avgFps": 143,
        "minFps": 70,
        "maxFps": 156,
        "totalFrames": 115,
        "frameRates": 143
      },
      {
        "trial_number": 59,
        "trial_index": 357,
        "rt": 722,
        "correct": true,
        "response": "ArrowLeft",
        "congruent": false,
        "gazeTowards": true,
        "gazeCondition": "towards",
        "faceOnLeft": true,
        "impliedDirection": 0,
        "testDirection": 180,
        "avgFps": 144,
        "minFps": 141,
        "maxFps": 147,
        "totalFrames": 104,
        "frameRates": 144
      },
      {
        "trial_number": 60,
        "trial_index": 362,
        "rt": 706,
        "correct": true,
        "response": "ArrowRight",
        "congruent": false,
        "gazeTowards": true,
        "gazeCondition": "towards",
        "faceOnLeft": false,
        "impliedDirection": 180,
        "testDirection": 0,
        "avgFps": 144,
        "minFps": 141,
        "maxFps": 147,
        "totalFrames": 100,
        "frameRates": 144
      },
      {
        "trial_number": 61,
        "trial_index": 371,
        "rt": 938,
        "correct": true,
        "response": "ArrowLeft",
        "congruent": false,
        "gazeTowards": false,
        "gazeCondition": "away",
        "faceOnLeft": true,
        "impliedDirection": 0,
        "testDirection": 180,
        "avgFps": 144,
        "minFps": 141,
        "maxFps": 147,
        "totalFrames": 135,
        "frameRates": 144
      },
      {
        "trial_number": 62,
        "trial_index": 376,
        "rt": 717,
        "correct": true,
        "response": "ArrowLeft",
        "congruent": true,
        "gazeTowards": false,
        "gazeCondition": "away",
        "faceOnLeft": false,
        "impliedDirection": 180,
        "testDirection": 180,
        "avgFps": 143,
        "minFps": 69,
        "maxFps": 156,
        "totalFrames": 103,
        "frameRates": 143
      },
      {
        "trial_number": 63,
        "trial_index": 381,
        "rt": 606,
        "correct": true,
        "response": "ArrowRight",
        "congruent": true,
        "gazeTowards": false,
        "gazeCondition": "away",
        "faceOnLeft": true,
        "impliedDirection": 0,
        "testDirection": 0,
        "avgFps": 144,
        "minFps": 141,
        "maxFps": 147,
        "totalFrames": 87,
        "frameRates": 144
      },
      {
        "trial_number": 64,
        "trial_index": 386,
        "rt": 632,
        "correct": true,
        "response": "ArrowLeft",
        "congruent": true,
        "gazeTowards": true,
        "gazeCondition": "towards",
        "faceOnLeft": false,
        "impliedDirection": 180,
        "testDirection": 180,
        "avgFps": 144,
        "minFps": 141,
        "maxFps": 147,
        "totalFrames": 91,
        "frameRates": 144
      },
      {
        "trial_number": 65,
        "trial_index": 391,
        "rt": 650,
        "correct": true,
        "response": "ArrowLeft",
        "congruent": true,
        "gazeTowards": false,
        "gazeCondition": "away",
        "faceOnLeft": false,
        "impliedDirection": 180,
        "testDirection": 180,
        "avgFps": 144,
        "minFps": 141,
        "maxFps": 147,
        "totalFrames": 93,
        "frameRates": 144
      },
      {
        "trial_number": 66,
        "trial_index": 396,
        "rt": 570,
        "correct": true,
        "response": "ArrowLeft",
        "congruent": false,
        "gazeTowards": false,
        "gazeCondition": "away",
        "faceOnLeft": true,
        "impliedDirection": 0,
        "testDirection": 180,
        "avgFps": 144,
        "minFps": 141,
        "maxFps": 147,
        "totalFrames": 82,
        "frameRates": 144
      },
      {
        "trial_number": 67,
        "trial_index": 401,
        "rt": 625,
        "correct": true,
        "response": "ArrowLeft",
        "congruent": true,
        "gazeTowards": true,
        "gazeCondition": "towards",
        "faceOnLeft": false,
        "impliedDirection": 180,
        "testDirection": 180,
        "avgFps": 144,
        "minFps": 141,
        "maxFps": 147,
        "totalFrames": 90,
        "frameRates": 144
      },
      {
        "trial_number": 68,
        "trial_index": 406,
        "rt": 655,
        "correct": true,
        "response": "ArrowRight",
        "congruent": false,
        "gazeTowards": true,
        "gazeCondition": "towards",
        "faceOnLeft": false,
        "impliedDirection": 180,
        "testDirection": 0,
        "avgFps": 144,
        "minFps": 143,
        "maxFps": 147,
        "totalFrames": 95,
        "frameRates": 144
      },
      {
        "trial_number": 69,
        "trial_index": 411,
        "rt": 557,
        "correct": true,
        "response": "ArrowLeft",
        "congruent": true,
        "gazeTowards": false,
        "gazeCondition": "away",
        "faceOnLeft": false,
        "impliedDirection": 180,
        "testDirection": 180,
        "avgFps": 144,
        "minFps": 141,
        "maxFps": 148,
        "totalFrames": 80,
        "frameRates": 144
      },
      {
        "trial_number": 70,
        "trial_index": 416,
        "rt": 584,
        "correct": true,
        "response": "ArrowLeft",
        "congruent": true,
        "gazeTowards": false,
        "gazeCondition": "away",
        "faceOnLeft": false,
        "impliedDirection": 180,
        "testDirection": 180,
        "avgFps": 144,
        "minFps": 141,
        "maxFps": 147,
        "totalFrames": 84,
        "frameRates": 144
      },
      {
        "trial_number": 71,
        "trial_index": 421,
        "rt": 471,
        "correct": true,
        "response": "ArrowRight",
        "congruent": false,
        "gazeTowards": false,
        "gazeCondition": "away",
        "faceOnLeft": false,
        "impliedDirection": 180,
        "testDirection": 0,
        "avgFps": 144,
        "minFps": 141,
        "maxFps": 147,
        "totalFrames": 67,
        "frameRates": 144
      },
      {
        "trial_number": 72,
        "trial_index": 426,
        "rt": 599,
        "correct": true,
        "response": "ArrowLeft",
        "congruent": true,
        "gazeTowards": false,
        "gazeCondition": "away",
        "faceOnLeft": false,
        "impliedDirection": 180,
        "testDirection": 180,
        "avgFps": 144,
        "minFps": 141,
        "maxFps": 147,
        "totalFrames": 86,
        "frameRates": 144
      },
      {
        "trial_number": 73,
        "trial_index": 431,
        "rt": 456,
        "correct": true,
        "response": "ArrowRight",
        "congruent": true,
        "gazeTowards": true,
        "gazeCondition": "towards",
        "faceOnLeft": true,
        "impliedDirection": 0,
        "testDirection": 0,
        "avgFps": 144,
        "minFps": 141,
        "maxFps": 147,
        "totalFrames": 65,
        "frameRates": 144
      },
      {
        "trial_number": 74,
        "trial_index": 436,
        "rt": 556,
        "correct": true,
        "response": "ArrowLeft",
        "congruent": false,
        "gazeTowards": false,
        "gazeCondition": "away",
        "faceOnLeft": true,
        "impliedDirection": 0,
        "testDirection": 180,
        "avgFps": 144,
        "minFps": 141,
        "maxFps": 147,
        "totalFrames": 80,
        "frameRates": 144
      },
      {
        "trial_number": 75,
        "trial_index": 444,
        "rt": 668,
        "correct": true,
        "response": "ArrowRight",
        "congruent": true,
        "gazeTowards": false,
        "gazeCondition": "away",
        "faceOnLeft": true,
        "impliedDirection": 0,
        "testDirection": 0,
        "avgFps": 144,
        "minFps": 141,
        "maxFps": 147,
        "totalFrames": 96,
        "frameRates": 144
      },
      {
        "trial_number": 76,
        "trial_index": 449,
        "rt": 731,
        "correct": true,
        "response": "ArrowRight",
        "congruent": true,
        "gazeTowards": false,
        "gazeCondition": "away",
        "faceOnLeft": true,
        "impliedDirection": 0,
        "testDirection": 0,
        "avgFps": 144,
        "minFps": 143,
        "maxFps": 147,
        "totalFrames": 105,
        "frameRates": 144
      },
      {
        "trial_number": 77,
        "trial_index": 454,
        "rt": 618,
        "correct": true,
        "response": "ArrowRight",
        "congruent": true,
        "gazeTowards": true,
        "gazeCondition": "towards",
        "faceOnLeft": true,
        "impliedDirection": 0,
        "testDirection": 0,
        "avgFps": 144,
        "minFps": 141,
        "maxFps": 147,
        "totalFrames": 89,
        "frameRates": 144
      },
      {
        "trial_number": 78,
        "trial_index": 459,
        "rt": 543,
        "correct": true,
        "response": "ArrowRight",
        "congruent": true,
        "gazeTowards": true,
        "gazeCondition": "towards",
        "faceOnLeft": true,
        "impliedDirection": 0,
        "testDirection": 0,
        "avgFps": 144,
        "minFps": 141,
        "maxFps": 147,
        "totalFrames": 78,
        "frameRates": 144
      },
      {
        "trial_number": 79,
        "trial_index": 464,
        "rt": 564,
        "correct": true,
        "response": "ArrowRight",
        "congruent": false,
        "gazeTowards": true,
        "gazeCondition": "towards",
        "faceOnLeft": false,
        "impliedDirection": 180,
        "testDirection": 0,
        "avgFps": 144,
        "minFps": 141,
        "maxFps": 147,
        "totalFrames": 81,
        "frameRates": 144
      },
      {
        "trial_number": 80,
        "trial_index": 469,
        "rt": 659,
        "correct": true,
        "response": "ArrowLeft",
        "congruent": true,
        "gazeTowards": true,
        "gazeCondition": "towards",
        "faceOnLeft": false,
        "impliedDirection": 180,
        "testDirection": 180,
        "avgFps": 145,
        "minFps": 141,
        "maxFps": 705,
        "totalFrames": 95,
        "frameRates": 145
      },
      {
        "trial_number": 81,
        "trial_index": 474,
        "rt": 847,
        "correct": true,
        "response": "ArrowLeft",
        "congruent": false,
        "gazeTowards": true,
        "gazeCondition": "towards",
        "faceOnLeft": true,
        "impliedDirection": 0,
        "testDirection": 180,
        "avgFps": 143,
        "minFps": 68,
        "maxFps": 167,
        "totalFrames": 121,
        "frameRates": 143
      },
      {
        "trial_number": 82,
        "trial_index": 479,
        "rt": 678,
        "correct": true,
        "response": "ArrowRight",
        "congruent": true,
        "gazeTowards": true,
        "gazeCondition": "towards",
        "faceOnLeft": true,
        "impliedDirection": 0,
        "testDirection": 0,
        "avgFps": 144,
        "minFps": 141,
        "maxFps": 145,
        "totalFrames": 97,
        "frameRates": 144
      },
      {
        "trial_number": 83,
        "trial_index": 484,
        "rt": 717,
        "correct": true,
        "response": "ArrowRight",
        "congruent": true,
        "gazeTowards": false,
        "gazeCondition": "away",
        "faceOnLeft": true,
        "impliedDirection": 0,
        "testDirection": 0,
        "avgFps": 144,
        "minFps": 141,
        "maxFps": 147,
        "totalFrames": 103,
        "frameRates": 144
      },
      {
        "trial_number": 84,
        "trial_index": 489,
        "rt": 510,
        "correct": true,
        "response": "ArrowRight",
        "congruent": false,
        "gazeTowards": true,
        "gazeCondition": "towards",
        "faceOnLeft": false,
        "impliedDirection": 180,
        "testDirection": 0,
        "avgFps": 144,
        "minFps": 141,
        "maxFps": 147,
        "totalFrames": 73,
        "frameRates": 144
      },
      {
        "trial_number": 85,
        "trial_index": 494,
        "rt": 492,
        "correct": true,
        "response": "ArrowLeft",
        "congruent": false,
        "gazeTowards": false,
        "gazeCondition": "away",
        "faceOnLeft": true,
        "impliedDirection": 0,
        "testDirection": 180,
        "avgFps": 142,
        "minFps": 69,
        "maxFps": 156,
        "totalFrames": 70,
        "frameRates": 142
      },
      {
        "trial_number": 86,
        "trial_index": 499,
        "rt": 537,
        "correct": true,
        "response": "ArrowLeft",
        "congruent": true,
        "gazeTowards": false,
        "gazeCondition": "away",
        "faceOnLeft": false,
        "impliedDirection": 180,
        "testDirection": 180,
        "avgFps": 144,
        "minFps": 141,
        "maxFps": 147,
        "totalFrames": 77,
        "frameRates": 144
      },
      {
        "trial_number": 87,
        "trial_index": 507,
        "rt": 823,
        "correct": true,
        "response": "ArrowLeft",
        "congruent": true,
        "gazeTowards": true,
        "gazeCondition": "towards",
        "faceOnLeft": false,
        "impliedDirection": 180,
        "testDirection": 180,
        "avgFps": 144,
        "minFps": 141,
        "maxFps": 147,
        "totalFrames": 118,
        "frameRates": 144
      },
      {
        "trial_number": 88,
        "trial_index": 515,
        "rt": 901,
        "correct": true,
        "response": "ArrowRight",
        "congruent": false,
        "gazeTowards": false,
        "gazeCondition": "away",
        "faceOnLeft": false,
        "impliedDirection": 180,
        "testDirection": 0,
        "avgFps": 144,
        "minFps": 141,
        "maxFps": 147,
        "totalFrames": 130,
        "frameRates": 144
      },
      {
        "trial_number": 89,
        "trial_index": 520,
        "rt": 633,
        "correct": true,
        "response": "ArrowRight",
        "congruent": false,
        "gazeTowards": true,
        "gazeCondition": "towards",
        "faceOnLeft": false,
        "impliedDirection": 180,
        "testDirection": 0,
        "avgFps": 144,
        "minFps": 141,
        "maxFps": 147,
        "totalFrames": 91,
        "frameRates": 144
      },
      {
        "trial_number": 90,
        "trial_index": 525,
        "rt": 565,
        "correct": true,
        "response": "ArrowRight",
        "congruent": false,
        "gazeTowards": false,
        "gazeCondition": "away",
        "faceOnLeft": false,
        "impliedDirection": 180,
        "testDirection": 0,
        "avgFps": 142,
        "minFps": 67,
        "maxFps": 172,
        "totalFrames": 81,
        "frameRates": 142
      },
      {
        "trial_number": 91,
        "trial_index": 531,
        "rt": 650,
        "correct": true,
        "response": "ArrowRight",
        "congruent": false,
        "gazeTowards": false,
        "gazeCondition": "away",
        "faceOnLeft": false,
        "impliedDirection": 180,
        "testDirection": 0,
        "avgFps": 144,
        "minFps": 141,
        "maxFps": 147,
        "totalFrames": 94,
        "frameRates": 144
      },
      {
        "trial_number": 92,
        "trial_index": 536,
        "rt": 668,
        "correct": true,
        "response": "ArrowRight",
        "congruent": true,
        "gazeTowards": true,
        "gazeCondition": "towards",
        "faceOnLeft": true,
        "impliedDirection": 0,
        "testDirection": 0,
        "avgFps": 144,
        "minFps": 141,
        "maxFps": 147,
        "totalFrames": 96,
        "frameRates": 144
      },
      {
        "trial_number": 93,
        "trial_index": 541,
        "rt": 747,
        "correct": true,
        "response": "ArrowLeft",
        "congruent": false,
        "gazeTowards": false,
        "gazeCondition": "away",
        "faceOnLeft": true,
        "impliedDirection": 0,
        "testDirection": 180,
        "avgFps": 144,
        "minFps": 141,
        "maxFps": 147,
        "totalFrames": 108,
        "frameRates": 144
      },
      {
        "trial_number": 94,
        "trial_index": 546,
        "rt": 590,
        "correct": true,
        "response": "ArrowLeft",
        "congruent": false,
        "gazeTowards": false,
        "gazeCondition": "away",
        "faceOnLeft": true,
        "impliedDirection": 0,
        "testDirection": 180,
        "avgFps": 144,
        "minFps": 141,
        "maxFps": 147,
        "totalFrames": 85,
        "frameRates": 144
      },
      {
        "trial_number": 95,
        "trial_index": 551,
        "rt": 495,
        "correct": true,
        "response": "ArrowRight",
        "congruent": false,
        "gazeTowards": false,
        "gazeCondition": "away",
        "faceOnLeft": false,
        "impliedDirection": 180,
        "testDirection": 0,
        "avgFps": 142,
        "minFps": 67,
        "maxFps": 169,
        "totalFrames": 71,
        "frameRates": 142
      },
      {
        "trial_number": 96,
        "trial_index": 556,
        "rt": 611,
        "correct": true,
        "response": "ArrowRight",
        "congruent": true,
        "gazeTowards": true,
        "gazeCondition": "towards",
        "faceOnLeft": true,
        "impliedDirection": 0,
        "testDirection": 0,
        "avgFps": 144,
        "minFps": 141,
        "maxFps": 147,
        "totalFrames": 88,
        "frameRates": 144
      },
      {
        "trial_number": 97,
        "trial_index": 561,
        "rt": 563,
        "correct": true,
        "response": "ArrowRight",
        "congruent": false,
        "gazeTowards": true,
        "gazeCondition": "towards",
        "faceOnLeft": false,
        "impliedDirection": 180,
        "testDirection": 0,
        "avgFps": 144,
        "minFps": 141,
        "maxFps": 147,
        "totalFrames": 81,
        "frameRates": 144
      },
      {
        "trial_number": 98,
        "trial_index": 566,
        "rt": 595,
        "correct": true,
        "response": "ArrowRight",
        "congruent": false,
        "gazeTowards": false,
        "gazeCondition": "away",
        "faceOnLeft": false,
        "impliedDirection": 180,
        "testDirection": 0,
        "avgFps": 144,
        "minFps": 141,
        "maxFps": 147,
        "totalFrames": 86,
        "frameRates": 144
      },
      {
        "trial_number": 99,
        "trial_index": 571,
        "rt": 540,
        "correct": true,
        "response": "ArrowRight",
        "congruent": false,
        "gazeTowards": true,
        "gazeCondition": "towards",
        "faceOnLeft": false,
        "impliedDirection": 180,
        "testDirection": 0,
        "avgFps": 144,
        "minFps": 141,
        "maxFps": 147,
        "totalFrames": 78,
        "frameRates": 144
      },
      {
        "trial_number": 100,
        "trial_index": 576,
        "rt": 646,
        "correct": true,
        "response": "ArrowLeft",
        "congruent": false,
        "gazeTowards": false,
        "gazeCondition": "away",
        "faceOnLeft": true,
        "impliedDirection": 0,
        "testDirection": 180,
        "avgFps": 144,
        "minFps": 143,
        "maxFps": 147,
        "totalFrames": 93,
        "frameRates": 144
      },
      {
        "trial_number": 101,
        "trial_index": 581,
        "rt": 752,
        "correct": true,
        "response": "ArrowLeft",
        "congruent": false,
        "gazeTowards": true,
        "gazeCondition": "towards",
        "faceOnLeft": true,
        "impliedDirection": 0,
        "testDirection": 180,
        "avgFps": 144,
        "minFps": 141,
        "maxFps": 147,
        "totalFrames": 108,
        "frameRates": 144
      },
      {
        "trial_number": 102,
        "trial_index": 589,
        "rt": 725,
        "correct": true,
        "response": "ArrowRight",
        "congruent": false,
        "gazeTowards": false,
        "gazeCondition": "away",
        "faceOnLeft": false,
        "impliedDirection": 180,
        "testDirection": 0,
        "avgFps": 144,
        "minFps": 141,
        "maxFps": 147,
        "totalFrames": 104,
        "frameRates": 144
      },
      {
        "trial_number": 103,
        "trial_index": 597,
        "rt": 662,
        "correct": true,
        "response": "ArrowRight",
        "congruent": true,
        "gazeTowards": true,
        "gazeCondition": "towards",
        "faceOnLeft": true,
        "impliedDirection": 0,
        "testDirection": 0,
        "avgFps": 144,
        "minFps": 141,
        "maxFps": 147,
        "totalFrames": 95,
        "frameRates": 144
      },
      {
        "trial_number": 104,
        "trial_index": 602,
        "rt": 664,
        "correct": true,
        "response": "ArrowRight",
        "congruent": false,
        "gazeTowards": true,
        "gazeCondition": "towards",
        "faceOnLeft": false,
        "impliedDirection": 180,
        "testDirection": 0,
        "avgFps": 144,
        "minFps": 141,
        "maxFps": 147,
        "totalFrames": 96,
        "frameRates": 144
      },
      {
        "trial_number": 105,
        "trial_index": 607,
        "rt": 597,
        "correct": true,
        "response": "ArrowRight",
        "congruent": true,
        "gazeTowards": true,
        "gazeCondition": "towards",
        "faceOnLeft": true,
        "impliedDirection": 0,
        "testDirection": 0,
        "avgFps": 144,
        "minFps": 141,
        "maxFps": 147,
        "totalFrames": 86,
        "frameRates": 144
      },
      {
        "trial_number": 106,
        "trial_index": 612,
        "rt": 650,
        "correct": true,
        "response": "ArrowRight",
        "congruent": false,
        "gazeTowards": true,
        "gazeCondition": "towards",
        "faceOnLeft": false,
        "impliedDirection": 180,
        "testDirection": 0,
        "avgFps": 144,
        "minFps": 143,
        "maxFps": 147,
        "totalFrames": 93,
        "frameRates": 144
      },
      {
        "trial_number": 107,
        "trial_index": 617,
        "rt": 556,
        "correct": true,
        "response": "ArrowRight",
        "congruent": false,
        "gazeTowards": false,
        "gazeCondition": "away",
        "faceOnLeft": false,
        "impliedDirection": 180,
        "testDirection": 0,
        "avgFps": 144,
        "minFps": 143,
        "maxFps": 147,
        "totalFrames": 80,
        "frameRates": 144
      },
      {
        "trial_number": 108,
        "trial_index": 622,
        "rt": 663,
        "correct": true,
        "response": "ArrowRight",
        "congruent": true,
        "gazeTowards": true,
        "gazeCondition": "towards",
        "faceOnLeft": true,
        "impliedDirection": 0,
        "testDirection": 0,
        "avgFps": 144,
        "minFps": 141,
        "maxFps": 147,
        "totalFrames": 96,
        "frameRates": 144
      },
      {
        "trial_number": 109,
        "trial_index": 627,
        "rt": 605,
        "correct": true,
        "response": "ArrowRight",
        "congruent": true,
        "gazeTowards": false,
        "gazeCondition": "away",
        "faceOnLeft": true,
        "impliedDirection": 0,
        "testDirection": 0,
        "avgFps": 144,
        "minFps": 141,
        "maxFps": 147,
        "totalFrames": 87,
        "frameRates": 144
      },
      {
        "trial_number": 110,
        "trial_index": 632,
        "rt": 594,
        "correct": true,
        "response": "ArrowLeft",
        "congruent": false,
        "gazeTowards": false,
        "gazeCondition": "away",
        "faceOnLeft": true,
        "impliedDirection": 0,
        "testDirection": 180,
        "avgFps": 144,
        "minFps": 141,
        "maxFps": 147,
        "totalFrames": 85,
        "frameRates": 144
      },
      {
        "trial_number": 111,
        "trial_index": 637,
        "rt": 614,
        "correct": true,
        "response": "ArrowLeft",
        "congruent": false,
        "gazeTowards": false,
        "gazeCondition": "away",
        "faceOnLeft": true,
        "impliedDirection": 0,
        "testDirection": 180,
        "avgFps": 144,
        "minFps": 141,
        "maxFps": 147,
        "totalFrames": 88,
        "frameRates": 144
      },
      {
        "trial_number": 112,
        "trial_index": 642,
        "rt": 547,
        "correct": true,
        "response": "ArrowLeft",
        "congruent": true,
        "gazeTowards": false,
        "gazeCondition": "away",
        "faceOnLeft": false,
        "impliedDirection": 180,
        "testDirection": 180,
        "avgFps": 144,
        "minFps": 141,
        "maxFps": 147,
        "totalFrames": 79,
        "frameRates": 144
      },
      {
        "trial_number": 113,
        "trial_index": 647,
        "rt": 523,
        "correct": true,
        "response": "ArrowRight",
        "congruent": false,
        "gazeTowards": false,
        "gazeCondition": "away",
        "faceOnLeft": false,
        "impliedDirection": 180,
        "testDirection": 0,
        "avgFps": 144,
        "minFps": 141,
        "maxFps": 147,
        "totalFrames": 75,
        "frameRates": 144
      },
      {
        "trial_number": 114,
        "trial_index": 652,
        "rt": 653,
        "correct": true,
        "response": "ArrowRight",
        "congruent": false,
        "gazeTowards": true,
        "gazeCondition": "towards",
        "faceOnLeft": false,
        "impliedDirection": 180,
        "testDirection": 0,
        "avgFps": 142,
        "minFps": 70,
        "maxFps": 152,
        "totalFrames": 93,
        "frameRates": 142
      },
      {
        "trial_number": 115,
        "trial_index": 657,
        "rt": 548,
        "correct": true,
        "response": "ArrowLeft",
        "congruent": true,
        "gazeTowards": true,
        "gazeCondition": "towards",
        "faceOnLeft": false,
        "impliedDirection": 180,
        "testDirection": 180,
        "avgFps": 142,
        "minFps": 67,
        "maxFps": 167,
        "totalFrames": 78,
        "frameRates": 142
      },
      {
        "trial_number": 116,
        "trial_index": 662,
        "rt": 568,
        "correct": true,
        "response": "ArrowLeft",
        "congruent": false,
        "gazeTowards": false,
        "gazeCondition": "away",
        "faceOnLeft": true,
        "impliedDirection": 0,
        "testDirection": 180,
        "avgFps": 144,
        "minFps": 143,
        "maxFps": 147,
        "totalFrames": 82,
        "frameRates": 144
      },
      {
        "trial_number": 117,
        "trial_index": 667,
        "rt": 694,
        "correct": true,
        "response": "ArrowLeft",
        "congruent": true,
        "gazeTowards": false,
        "gazeCondition": "away",
        "faceOnLeft": false,
        "impliedDirection": 180,
        "testDirection": 180,
        "avgFps": 144,
        "minFps": 141,
        "maxFps": 147,
        "totalFrames": 100,
        "frameRates": 144
      },
      {
        "trial_number": 118,
        "trial_index": 675,
        "rt": 776,
        "correct": true,
        "response": "ArrowRight",
        "congruent": true,
        "gazeTowards": true,
        "gazeCondition": "towards",
        "faceOnLeft": true,
        "impliedDirection": 0,
        "testDirection": 0,
        "avgFps": 144,
        "minFps": 141,
        "maxFps": 147,
        "totalFrames": 111,
        "frameRates": 144
      },
      {
        "trial_number": 119,
        "trial_index": 680,
        "rt": 790,
        "correct": true,
        "response": "ArrowRight",
        "congruent": false,
        "gazeTowards": true,
        "gazeCondition": "towards",
        "faceOnLeft": false,
        "impliedDirection": 180,
        "testDirection": 0,
        "avgFps": 144,
        "minFps": 143,
        "maxFps": 147,
        "totalFrames": 113,
        "frameRates": 144
      }
    ],
    "catch": {
      "total": 12,
      "correct": 12,
      "accuracy": 100,
      "meanRT": 790,
      "trials": [
        {
          "trial_number": 0,
          "trial_index": 98,
          "rt": 682,
          "correct": true,
          "colorTarget": "tree",
          "gazeTowards": false,
          "gazeCondition": "away",
          "faceOnLeft": false
        },
        {
          "trial_number": 1,
          "trial_index": 151,
          "rt": 812,
          "correct": true,
          "colorTarget": "tree",
          "gazeTowards": true,
          "gazeCondition": "towards",
          "faceOnLeft": false
        },
        {
          "trial_number": 2,
          "trial_index": 154,
          "rt": 687,
          "correct": true,
          "colorTarget": "tree",
          "gazeTowards": false,
          "gazeCondition": "away",
          "faceOnLeft": true
        },
        {
          "trial_number": 3,
          "trial_index": 288,
          "rt": 625,
          "correct": true,
          "colorTarget": "face",
          "gazeTowards": true,
          "gazeCondition": "towards",
          "faceOnLeft": false
        },
        {
          "trial_number": 4,
          "trial_index": 366,
          "rt": 1594,
          "correct": true,
          "colorTarget": "face",
          "gazeTowards": true,
          "gazeCondition": "towards",
          "faceOnLeft": false
        },
        {
          "trial_number": 5,
          "trial_index": 440,
          "rt": 621,
          "correct": true,
          "colorTarget": "tree",
          "gazeTowards": true,
          "gazeCondition": "towards",
          "faceOnLeft": true
        },
        {
          "trial_number": 6,
          "trial_index": 503,
          "rt": 827,
          "correct": true,
          "colorTarget": "tree",
          "gazeTowards": true,
          "gazeCondition": "towards",
          "faceOnLeft": true
        },
        {
          "trial_number": 7,
          "trial_index": 511,
          "rt": 613,
          "correct": true,
          "colorTarget": "tree",
          "gazeTowards": false,
          "gazeCondition": "away",
          "faceOnLeft": true
        },
        {
          "trial_number": 8,
          "trial_index": 585,
          "rt": 882,
          "correct": true,
          "colorTarget": "face",
          "gazeTowards": false,
          "gazeCondition": "away",
          "faceOnLeft": true
        },
        {
          "trial_number": 9,
          "trial_index": 593,
          "rt": 777,
          "correct": true,
          "colorTarget": "face",
          "gazeTowards": true,
          "gazeCondition": "towards",
          "faceOnLeft": true
        },
        {
          "trial_number": 10,
          "trial_index": 671,
          "rt": 664,
          "correct": true,
          "colorTarget": "face",
          "gazeTowards": false,
          "gazeCondition": "away",
          "faceOnLeft": false
        },
        {
          "trial_number": 11,
          "trial_index": 684,
          "rt": 701,
          "correct": true,
          "colorTarget": "face",
          "gazeTowards": true,
          "gazeCondition": "towards",
          "faceOnLeft": false
        }
      ]
    },
    "practice": {
      "trials": [
        {
          "trial_number": 0,
          "rt": null,
          "correct": false,
          "direction": 0
        },
        {
          "trial_number": 1,
          "rt": 916,
          "correct": true,
          "direction": 180
        },
        {
          "trial_number": 2,
          "rt": 874,
          "correct": true,
          "direction": 180
        },
        {
          "trial_number": 3,
          "rt": 791,
          "correct": true,
          "direction": 0
        },
        {
          "trial_number": 4,
          "rt": 666,
          "correct": true,
          "direction": 0
        },
        {
          "trial_number": 5,
          "rt": 628,
          "correct": true,
          "direction": 180
        },
        {
          "trial_number": 6,
          "rt": 698,
          "correct": true,
          "direction": 180
        },
        {
          "trial_number": 7,
          "rt": 748,
          "correct": true,
          "direction": 180
        },
        {
          "trial_number": 8,
          "rt": 906,
          "correct": true,
          "direction": 180
        },
        {
          "trial_number": 9,
          "rt": 665,
          "correct": true,
          "direction": 0
        }
      ],
      "meanRT": 766,
      "accuracy": 90
    }
  }
}