{
  "experiment": "rdk-face-1",
  "UUID": "1ef7bc1f-c1eb-4c8f-a717-f8e98c244dcc",
  "data": {
    "session": {
      "experiment_version": "1.8.6",
      "treatment": "faces_towards_away_catch",
      "file_version": "1.8.6",
      "totalTrials": 120,
      "totalTrialsIncludingCatch": 132,
      "conditions": {
        "gazeTowardsCount": 60,
        "gazeAwayCount": 60,
        "gazeTowardsAccuracy": 97,
        "gazeAwayAccuracy": 95
      },
      "session_group": "default",
      "browserData": {
        "os": "Windows",
        "browser": "Chrome",
        "screenResolution": "1920x1080",
        "browserViewport": "1920x1080",
        "devicePixelRatio": 1,
        "colorDepth": 32,
        "hardwareConcurrency": 32,
        "deviceMemory": 8,
        "gpuRenderer": "ANGLE (AMD, AMD Radeon RX 9070 XT (0x00007550) Direct3D11 vs_5_0 ps_5_0, D3D11)",
        "measuredRefreshRateHz": 240
      },
      "attention": {
        "visibilityEvents": [
          {
            "event": "visibilitychange",
            "state": "visible",
            "timestamp": 1772766629435
          },
          {
            "event": "focus",
            "state": "focused",
            "timestamp": 1772766629440
          },
          {
            "event": "blur",
            "state": "blurred",
            "timestamp": 1772766634916
          },
          {
            "event": "visibilitychange",
            "state": "hidden",
            "timestamp": 1772766634917
          },
          {
            "event": "visibilitychange",
            "state": "visible",
            "timestamp": 1772766642688
          },
          {
            "event": "focus",
            "state": "focused",
            "timestamp": 1772766642693
          },
          {
            "event": "blur",
            "state": "blurred",
            "timestamp": 1772766658855
          },
          {
            "event": "visibilitychange",
            "state": "hidden",
            "timestamp": 1772766658856
          },
          {
            "event": "visibilitychange",
            "state": "visible",
            "timestamp": 1772766940622
          },
          {
            "event": "focus",
            "state": "focused",
            "timestamp": 1772766940627
          },
          {
            "event": "blur",
            "state": "blurred",
            "timestamp": 1772766967418
          },
          {
            "event": "focus",
            "state": "focused",
            "timestamp": 1772767126909
          },
          {
            "event": "blur",
            "state": "blurred",
            "timestamp": 1772767139626
          },
          {
            "event": "focus",
            "state": "focused",
            "timestamp": 1772767143744
          }
        ]
      },
      "calibration": {
        "monitorWidthCm": 38,
        "viewingDistanceCm": 54,
        "pixelsPerDegree": 50
      },
      "parameters": {
        "coherence": 0.4,
        "apertureDeg": 5,
        "densityDotsPerDeg2": 40,
        "dotDiameterDeg": 0.035,
        "dotSpeedDegPerSec": 3,
        "lifetimeMs": 200,
        "fixationDurationMs": 1500,
        "faceDurationMs": 1500,
        "testDurationMs": 2000,
        "catchResponseMs": 3000
      },
      "prolific": {
        "prolificPid": "5b2150d538b0be00014137fb",
        "studyId": "",
        "sessionId": ""
      },
      "timing": {
        "startTime": "2026-03-06T03:10:24.807Z",
        "endTime": "2026-03-06T03:38:24.085Z",
        "totalElapsedTimeMs": 1679278
      }
    },
    "trials": [
      {
        "trial_number": 0,
        "trial_index": 52,
        "rt": 862,
        "correct": true,
        "response": "ArrowLeft",
        "congruent": true,
        "gazeTowards": false,
        "gazeCondition": "away",
        "faceOnLeft": false,
        "impliedDirection": 180,
        "testDirection": 180,
        "avgFps": 234,
        "minFps": 40,
        "maxFps": 417,
        "totalFrames": 201,
        "frameRates": 234
      },
      {
        "trial_number": 1,
        "trial_index": 57,
        "rt": 725,
        "correct": true,
        "response": "ArrowRight",
        "congruent": false,
        "gazeTowards": true,
        "gazeCondition": "towards",
        "faceOnLeft": false,
        "impliedDirection": 180,
        "testDirection": 0,
        "avgFps": 238,
        "minFps": 102,
        "maxFps": 250,
        "totalFrames": 172,
        "frameRates": 238
      },
      {
        "trial_number": 2,
        "trial_index": 62,
        "rt": 685,
        "correct": true,
        "response": "ArrowLeft",
        "congruent": true,
        "gazeTowards": false,
        "gazeCondition": "away",
        "faceOnLeft": false,
        "impliedDirection": 180,
        "testDirection": 180,
        "avgFps": 238,
        "minFps": 104,
        "maxFps": 244,
        "totalFrames": 163,
        "frameRates": 238
      },
      {
        "trial_number": 3,
        "trial_index": 67,
        "rt": 810,
        "correct": true,
        "response": "ArrowRight",
        "congruent": false,
        "gazeTowards": true,
        "gazeCondition": "towards",
        "faceOnLeft": false,
        "impliedDirection": 180,
        "testDirection": 0,
        "avgFps": 238,
        "minFps": 101,
        "maxFps": 250,
        "totalFrames": 193,
        "frameRates": 238
      },
      {
        "trial_number": 4,
        "trial_index": 72,
        "rt": 838,
        "correct": true,
        "response": "ArrowRight",
        "congruent": true,
        "gazeTowards": false,
        "gazeCondition": "away",
        "faceOnLeft": true,
        "impliedDirection": 0,
        "testDirection": 0,
        "avgFps": 239,
        "minFps": 182,
        "maxFps": 250,
        "totalFrames": 200,
        "frameRates": 239
      },
      {
        "trial_number": 5,
        "trial_index": 80,
        "rt": 674,
        "correct": false,
        "response": "ArrowLeft",
        "congruent": false,
        "gazeTowards": false,
        "gazeCondition": "away",
        "faceOnLeft": false,
        "impliedDirection": 180,
        "testDirection": 0,
        "avgFps": 239,
        "minFps": 182,
        "maxFps": 250,
        "totalFrames": 162,
        "frameRates": 239
      },
      {
        "trial_number": 6,
        "trial_index": 85,
        "rt": 1034,
        "correct": true,
        "response": "ArrowRight",
        "congruent": true,
        "gazeTowards": true,
        "gazeCondition": "towards",
        "faceOnLeft": true,
        "impliedDirection": 0,
        "testDirection": 0,
        "avgFps": 236,
        "minFps": 40,
        "maxFps": 714,
        "totalFrames": 243,
        "frameRates": 236
      },
      {
        "trial_number": 7,
        "trial_index": 90,
        "rt": 776,
        "correct": true,
        "response": "ArrowLeft",
        "congruent": false,
        "gazeTowards": true,
        "gazeCondition": "towards",
        "faceOnLeft": true,
        "impliedDirection": 0,
        "testDirection": 180,
        "avgFps": 239,
        "minFps": 175,
        "maxFps": 250,
        "totalFrames": 186,
        "frameRates": 239
      },
      {
        "trial_number": 8,
        "trial_index": 95,
        "rt": 1116,
        "correct": true,
        "response": "ArrowLeft",
        "congruent": false,
        "gazeTowards": false,
        "gazeCondition": "away",
        "faceOnLeft": true,
        "impliedDirection": 0,
        "testDirection": 180,
        "avgFps": 240,
        "minFps": 233,
        "maxFps": 667,
        "totalFrames": 268,
        "frameRates": 240
      },
      {
        "trial_number": 9,
        "trial_index": 100,
        "rt": 865,
        "correct": true,
        "response": "ArrowRight",
        "congruent": false,
        "gazeTowards": false,
        "gazeCondition": "away",
        "faceOnLeft": false,
        "impliedDirection": 180,
        "testDirection": 0,
        "avgFps": 239,
        "minFps": 139,
        "maxFps": 400,
        "totalFrames": 207,
        "frameRates": 239
      },
      {
        "trial_number": 10,
        "trial_index": 105,
        "rt": 809,
        "correct": true,
        "response": "ArrowLeft",
        "congruent": false,
        "gazeTowards": false,
        "gazeCondition": "away",
        "faceOnLeft": true,
        "impliedDirection": 0,
        "testDirection": 180,
        "avgFps": 239,
        "minFps": 182,
        "maxFps": 250,
        "totalFrames": 194,
        "frameRates": 239
      },
      {
        "trial_number": 11,
        "trial_index": 113,
        "rt": 949,
        "correct": true,
        "response": "ArrowLeft",
        "congruent": true,
        "gazeTowards": true,
        "gazeCondition": "towards",
        "faceOnLeft": false,
        "impliedDirection": 180,
        "testDirection": 180,
        "avgFps": 240,
        "minFps": 233,
        "maxFps": 323,
        "totalFrames": 227,
        "frameRates": 240
      },
      {
        "trial_number": 12,
        "trial_index": 118,
        "rt": 723,
        "correct": true,
        "response": "ArrowRight",
        "congruent": true,
        "gazeTowards": true,
        "gazeCondition": "towards",
        "faceOnLeft": true,
        "impliedDirection": 0,
        "testDirection": 0,
        "avgFps": 239,
        "minFps": 179,
        "maxFps": 250,
        "totalFrames": 173,
        "frameRates": 239
      },
      {
        "trial_number": 13,
        "trial_index": 123,
        "rt": 718,
        "correct": true,
        "response": "ArrowLeft",
        "congruent": false,
        "gazeTowards": false,
        "gazeCondition": "away",
        "faceOnLeft": true,
        "impliedDirection": 0,
        "testDirection": 180,
        "avgFps": 239,
        "minFps": 182,
        "maxFps": 250,
        "totalFrames": 172,
        "frameRates": 239
      },
      {
        "trial_number": 14,
        "trial_index": 128,
        "rt": 698,
        "correct": true,
        "response": "ArrowLeft",
        "congruent": true,
        "gazeTowards": false,
        "gazeCondition": "away",
        "faceOnLeft": false,
        "impliedDirection": 180,
        "testDirection": 180,
        "avgFps": 239,
        "minFps": 179,
        "maxFps": 250,
        "totalFrames": 167,
        "frameRates": 239
      },
      {
        "trial_number": 15,
        "trial_index": 133,
        "rt": 671,
        "correct": true,
        "response": "ArrowRight",
        "congruent": true,
        "gazeTowards": false,
        "gazeCondition": "away",
        "faceOnLeft": true,
        "impliedDirection": 0,
        "testDirection": 0,
        "avgFps": 239,
        "minFps": 179,
        "maxFps": 250,
        "totalFrames": 161,
        "frameRates": 239
      },
      {
        "trial_number": 16,
        "trial_index": 138,
        "rt": 787,
        "correct": true,
        "response": "ArrowRight",
        "congruent": true,
        "gazeTowards": false,
        "gazeCondition": "away",
        "faceOnLeft": true,
        "impliedDirection": 0,
        "testDirection": 0,
        "avgFps": 239,
        "minFps": 175,
        "maxFps": 250,
        "totalFrames": 188,
        "frameRates": 239
      },
      {
        "trial_number": 17,
        "trial_index": 143,
        "rt": 777,
        "correct": true,
        "response": "ArrowLeft",
        "congruent": false,
        "gazeTowards": true,
        "gazeCondition": "towards",
        "faceOnLeft": true,
        "impliedDirection": 0,
        "testDirection": 180,
        "avgFps": 239,
        "minFps": 182,
        "maxFps": 250,
        "totalFrames": 186,
        "frameRates": 239
      },
      {
        "trial_number": 18,
        "trial_index": 148,
        "rt": 897,
        "correct": true,
        "response": "ArrowRight",
        "congruent": true,
        "gazeTowards": true,
        "gazeCondition": "towards",
        "faceOnLeft": true,
        "impliedDirection": 0,
        "testDirection": 0,
        "avgFps": 239,
        "minFps": 179,
        "maxFps": 250,
        "totalFrames": 214,
        "frameRates": 239
      },
      {
        "trial_number": 19,
        "trial_index": 156,
        "rt": 886,
        "correct": true,
        "response": "ArrowLeft",
        "congruent": true,
        "gazeTowards": false,
        "gazeCondition": "away",
        "faceOnLeft": false,
        "impliedDirection": 180,
        "testDirection": 180,
        "avgFps": 240,
        "minFps": 233,
        "maxFps": 346,
        "totalFrames": 212,
        "frameRates": 240
      },
      {
        "trial_number": 20,
        "trial_index": 161,
        "rt": 576,
        "correct": true,
        "response": "ArrowRight",
        "congruent": false,
        "gazeTowards": true,
        "gazeCondition": "towards",
        "faceOnLeft": false,
        "impliedDirection": 180,
        "testDirection": 0,
        "avgFps": 237,
        "minFps": 102,
        "maxFps": 250,
        "totalFrames": 137,
        "frameRates": 237
      },
      {
        "trial_number": 21,
        "trial_index": 166,
        "rt": 698,
        "correct": true,
        "response": "ArrowRight",
        "congruent": true,
        "gazeTowards": false,
        "gazeCondition": "away",
        "faceOnLeft": true,
        "impliedDirection": 0,
        "testDirection": 0,
        "avgFps": 239,
        "minFps": 179,
        "maxFps": 250,
        "totalFrames": 167,
        "frameRates": 239
      },
      {
        "trial_number": 22,
        "trial_index": 171,
        "rt": 691,
        "correct": true,
        "response": "ArrowLeft",
        "congruent": false,
        "gazeTowards": false,
        "gazeCondition": "away",
        "faceOnLeft": true,
        "impliedDirection": 0,
        "testDirection": 180,
        "avgFps": 239,
        "minFps": 182,
        "maxFps": 250,
        "totalFrames": 165,
        "frameRates": 239
      },
      {
        "trial_number": 23,
        "trial_index": 176,
        "rt": 698,
        "correct": true,
        "response": "ArrowLeft",
        "congruent": true,
        "gazeTowards": true,
        "gazeCondition": "towards",
        "faceOnLeft": false,
        "impliedDirection": 180,
        "testDirection": 180,
        "avgFps": 241,
        "minFps": 233,
        "maxFps": 769,
        "totalFrames": 168,
        "frameRates": 241
      },
      {
        "trial_number": 24,
        "trial_index": 181,
        "rt": 707,
        "correct": true,
        "response": "ArrowLeft",
        "congruent": false,
        "gazeTowards": true,
        "gazeCondition": "towards",
        "faceOnLeft": true,
        "impliedDirection": 0,
        "testDirection": 180,
        "avgFps": 239,
        "minFps": 175,
        "maxFps": 250,
        "totalFrames": 169,
        "frameRates": 239
      },
      {
        "trial_number": 25,
        "trial_index": 186,
        "rt": 741,
        "correct": true,
        "response": "ArrowLeft",
        "congruent": true,
        "gazeTowards": false,
        "gazeCondition": "away",
        "faceOnLeft": false,
        "impliedDirection": 180,
        "testDirection": 180,
        "avgFps": 239,
        "minFps": 182,
        "maxFps": 250,
        "totalFrames": 178,
        "frameRates": 239
      },
      {
        "trial_number": 26,
        "trial_index": 191,
        "rt": 716,
        "correct": true,
        "response": "ArrowLeft",
        "congruent": false,
        "gazeTowards": true,
        "gazeCondition": "towards",
        "faceOnLeft": true,
        "impliedDirection": 0,
        "testDirection": 180,
        "avgFps": 239,
        "minFps": 182,
        "maxFps": 250,
        "totalFrames": 171,
        "frameRates": 239
      },
      {
        "trial_number": 27,
        "trial_index": 196,
        "rt": 694,
        "correct": true,
        "response": "ArrowRight",
        "congruent": true,
        "gazeTowards": false,
        "gazeCondition": "away",
        "faceOnLeft": true,
        "impliedDirection": 0,
        "testDirection": 0,
        "avgFps": 240,
        "minFps": 219,
        "maxFps": 250,
        "totalFrames": 166,
        "frameRates": 240
      },
      {
        "trial_number": 28,
        "trial_index": 201,
        "rt": 713,
        "correct": true,
        "response": "ArrowRight",
        "congruent": true,
        "gazeTowards": false,
        "gazeCondition": "away",
        "faceOnLeft": true,
        "impliedDirection": 0,
        "testDirection": 0,
        "avgFps": 231,
        "minFps": 40,
        "maxFps": 250,
        "totalFrames": 165,
        "frameRates": 231
      },
      {
        "trial_number": 29,
        "trial_index": 207,
        "rt": 1001,
        "correct": true,
        "response": "ArrowRight",
        "congruent": true,
        "gazeTowards": true,
        "gazeCondition": "towards",
        "faceOnLeft": true,
        "impliedDirection": 0,
        "testDirection": 0,
        "avgFps": 239,
        "minFps": 156,
        "maxFps": 357,
        "totalFrames": 240,
        "frameRates": 239
      },
      {
        "trial_number": 30,
        "trial_index": 212,
        "rt": 777,
        "correct": true,
        "response": "ArrowRight",
        "congruent": false,
        "gazeTowards": true,
        "gazeCondition": "towards",
        "faceOnLeft": false,
        "impliedDirection": 180,
        "testDirection": 0,
        "avgFps": 241,
        "minFps": 233,
        "maxFps": 769,
        "totalFrames": 186,
        "frameRates": 241
      },
      {
        "trial_number": 31,
        "trial_index": 217,
        "rt": 713,
        "correct": true,
        "response": "ArrowRight",
        "congruent": false,
        "gazeTowards": true,
        "gazeCondition": "towards",
        "faceOnLeft": false,
        "impliedDirection": 180,
        "testDirection": 0,
        "avgFps": 239,
        "minFps": 182,
        "maxFps": 244,
        "totalFrames": 171,
        "frameRates": 239
      },
      {
        "trial_number": 32,
        "trial_index": 222,
        "rt": 766,
        "correct": true,
        "response": "ArrowRight",
        "congruent": false,
        "gazeTowards": false,
        "gazeCondition": "away",
        "faceOnLeft": false,
        "impliedDirection": 180,
        "testDirection": 0,
        "avgFps": 239,
        "minFps": 182,
        "maxFps": 250,
        "totalFrames": 184,
        "frameRates": 239
      },
      {
        "trial_number": 33,
        "trial_index": 227,
        "rt": null,
        "correct": false,
        "response": null,
        "congruent": false,
        "gazeTowards": false,
        "gazeCondition": "away",
        "faceOnLeft": false,
        "impliedDirection": 180,
        "testDirection": 0,
        "avgFps": 240,
        "minFps": 143,
        "maxFps": 357,
        "totalFrames": 480,
        "frameRates": 240
      },
      {
        "trial_number": 34,
        "trial_index": 232,
        "rt": 614,
        "correct": true,
        "response": "ArrowLeft",
        "congruent": false,
        "gazeTowards": true,
        "gazeCondition": "towards",
        "faceOnLeft": true,
        "impliedDirection": 0,
        "testDirection": 180,
        "avgFps": 241,
        "minFps": 233,
        "maxFps": 714,
        "totalFrames": 147,
        "frameRates": 241
      },
      {
        "trial_number": 35,
        "trial_index": 237,
        "rt": 544,
        "correct": true,
        "response": "ArrowLeft",
        "congruent": true,
        "gazeTowards": false,
        "gazeCondition": "away",
        "faceOnLeft": false,
        "impliedDirection": 180,
        "testDirection": 180,
        "avgFps": 239,
        "minFps": 179,
        "maxFps": 250,
        "totalFrames": 130,
        "frameRates": 239
      },
      {
        "trial_number": 36,
        "trial_index": 242,
        "rt": 606,
        "correct": true,
        "response": "ArrowRight",
        "congruent": false,
        "gazeTowards": false,
        "gazeCondition": "away",
        "faceOnLeft": false,
        "impliedDirection": 180,
        "testDirection": 0,
        "avgFps": 239,
        "minFps": 175,
        "maxFps": 385,
        "totalFrames": 145,
        "frameRates": 239
      },
      {
        "trial_number": 37,
        "trial_index": 247,
        "rt": 732,
        "correct": true,
        "response": "ArrowLeft",
        "congruent": false,
        "gazeTowards": false,
        "gazeCondition": "away",
        "faceOnLeft": true,
        "impliedDirection": 0,
        "testDirection": 180,
        "avgFps": 239,
        "minFps": 182,
        "maxFps": 250,
        "totalFrames": 176,
        "frameRates": 239
      },
      {
        "trial_number": 38,
        "trial_index": 255,
        "rt": 504,
        "correct": true,
        "response": "ArrowLeft",
        "congruent": true,
        "gazeTowards": true,
        "gazeCondition": "towards",
        "faceOnLeft": false,
        "impliedDirection": 180,
        "testDirection": 180,
        "avgFps": 241,
        "minFps": 233,
        "maxFps": 714,
        "totalFrames": 121,
        "frameRates": 241
      },
      {
        "trial_number": 39,
        "trial_index": 260,
        "rt": 709,
        "correct": true,
        "response": "ArrowRight",
        "congruent": true,
        "gazeTowards": false,
        "gazeCondition": "away",
        "faceOnLeft": true,
        "impliedDirection": 0,
        "testDirection": 0,
        "avgFps": 238,
        "minFps": 103,
        "maxFps": 250,
        "totalFrames": 169,
        "frameRates": 238
      },
      {
        "trial_number": 40,
        "trial_index": 265,
        "rt": 492,
        "correct": true,
        "response": "ArrowLeft",
        "congruent": false,
        "gazeTowards": true,
        "gazeCondition": "towards",
        "faceOnLeft": true,
        "impliedDirection": 0,
        "testDirection": 180,
        "avgFps": 241,
        "minFps": 233,
        "maxFps": 714,
        "totalFrames": 118,
        "frameRates": 241
      },
      {
        "trial_number": 41,
        "trial_index": 270,
        "rt": 620,
        "correct": true,
        "response": "ArrowRight",
        "congruent": false,
        "gazeTowards": true,
        "gazeCondition": "towards",
        "faceOnLeft": false,
        "impliedDirection": 180,
        "testDirection": 0,
        "avgFps": 239,
        "minFps": 143,
        "maxFps": 370,
        "totalFrames": 148,
        "frameRates": 239
      },
      {
        "trial_number": 42,
        "trial_index": 275,
        "rt": 709,
        "correct": true,
        "response": "ArrowLeft",
        "congruent": false,
        "gazeTowards": false,
        "gazeCondition": "away",
        "faceOnLeft": true,
        "impliedDirection": 0,
        "testDirection": 180,
        "avgFps": 239,
        "minFps": 179,
        "maxFps": 250,
        "totalFrames": 170,
        "frameRates": 239
      },
      {
        "trial_number": 43,
        "trial_index": 280,
        "rt": 671,
        "correct": true,
        "response": "ArrowRight",
        "congruent": true,
        "gazeTowards": false,
        "gazeCondition": "away",
        "faceOnLeft": true,
        "impliedDirection": 0,
        "testDirection": 0,
        "avgFps": 239,
        "minFps": 175,
        "maxFps": 250,
        "totalFrames": 161,
        "frameRates": 239
      },
      {
        "trial_number": 44,
        "trial_index": 285,
        "rt": 543,
        "correct": true,
        "response": "ArrowLeft",
        "congruent": false,
        "gazeTowards": false,
        "gazeCondition": "away",
        "faceOnLeft": true,
        "impliedDirection": 0,
        "testDirection": 180,
        "avgFps": 239,
        "minFps": 179,
        "maxFps": 250,
        "totalFrames": 130,
        "frameRates": 239
      },
      {
        "trial_number": 45,
        "trial_index": 290,
        "rt": 539,
        "correct": true,
        "response": "ArrowLeft",
        "congruent": true,
        "gazeTowards": true,
        "gazeCondition": "towards",
        "faceOnLeft": false,
        "impliedDirection": 180,
        "testDirection": 180,
        "avgFps": 237,
        "minFps": 102,
        "maxFps": 244,
        "totalFrames": 128,
        "frameRates": 237
      },
      {
        "trial_number": 46,
        "trial_index": 295,
        "rt": 473,
        "correct": true,
        "response": "ArrowRight",
        "congruent": false,
        "gazeTowards": true,
        "gazeCondition": "towards",
        "faceOnLeft": false,
        "impliedDirection": 180,
        "testDirection": 0,
        "avgFps": 239,
        "minFps": 141,
        "maxFps": 370,
        "totalFrames": 113,
        "frameRates": 239
      },
      {
        "trial_number": 47,
        "trial_index": 300,
        "rt": 497,
        "correct": true,
        "response": "ArrowLeft",
        "congruent": true,
        "gazeTowards": true,
        "gazeCondition": "towards",
        "faceOnLeft": false,
        "impliedDirection": 180,
        "testDirection": 180,
        "avgFps": 239,
        "minFps": 179,
        "maxFps": 250,
        "totalFrames": 119,
        "frameRates": 239
      },
      {
        "trial_number": 48,
        "trial_index": 305,
        "rt": 468,
        "correct": true,
        "response": "ArrowRight",
        "congruent": false,
        "gazeTowards": true,
        "gazeCondition": "towards",
        "faceOnLeft": false,
        "impliedDirection": 180,
        "testDirection": 0,
        "avgFps": 241,
        "minFps": 233,
        "maxFps": 667,
        "totalFrames": 112,
        "frameRates": 241
      },
      {
        "trial_number": 49,
        "trial_index": 310,
        "rt": 493,
        "correct": true,
        "response": "ArrowLeft",
        "congruent": true,
        "gazeTowards": true,
        "gazeCondition": "towards",
        "faceOnLeft": false,
        "impliedDirection": 180,
        "testDirection": 180,
        "avgFps": 240,
        "minFps": 233,
        "maxFps": 334,
        "totalFrames": 118,
        "frameRates": 240
      },
      {
        "trial_number": 50,
        "trial_index": 315,
        "rt": 744,
        "correct": true,
        "response": "ArrowRight",
        "congruent": false,
        "gazeTowards": false,
        "gazeCondition": "away",
        "faceOnLeft": false,
        "impliedDirection": 180,
        "testDirection": 0,
        "avgFps": 238,
        "minFps": 104,
        "maxFps": 250,
        "totalFrames": 177,
        "frameRates": 238
      },
      {
        "trial_number": 51,
        "trial_index": 320,
        "rt": 817,
        "correct": true,
        "response": "ArrowLeft",
        "congruent": true,
        "gazeTowards": false,
        "gazeCondition": "away",
        "faceOnLeft": false,
        "impliedDirection": 180,
        "testDirection": 180,
        "avgFps": 239,
        "minFps": 179,
        "maxFps": 250,
        "totalFrames": 196,
        "frameRates": 239
      },
      {
        "trial_number": 52,
        "trial_index": 325,
        "rt": 827,
        "correct": true,
        "response": "ArrowLeft",
        "congruent": false,
        "gazeTowards": false,
        "gazeCondition": "away",
        "faceOnLeft": true,
        "impliedDirection": 0,
        "testDirection": 180,
        "avgFps": 239,
        "minFps": 182,
        "maxFps": 250,
        "totalFrames": 198,
        "frameRates": 239
      },
      {
        "trial_number": 53,
        "trial_index": 330,
        "rt": 758,
        "correct": true,
        "response": "ArrowRight",
        "congruent": true,
        "gazeTowards": false,
        "gazeCondition": "away",
        "faceOnLeft": true,
        "impliedDirection": 0,
        "testDirection": 0,
        "avgFps": 238,
        "minFps": 102,
        "maxFps": 250,
        "totalFrames": 180,
        "frameRates": 238
      },
      {
        "trial_number": 54,
        "trial_index": 335,
        "rt": 927,
        "correct": true,
        "response": "ArrowLeft",
        "congruent": false,
        "gazeTowards": true,
        "gazeCondition": "towards",
        "faceOnLeft": true,
        "impliedDirection": 0,
        "testDirection": 180,
        "avgFps": 239,
        "minFps": 182,
        "maxFps": 250,
        "totalFrames": 222,
        "frameRates": 239
      },
      {
        "trial_number": 55,
        "trial_index": 340,
        "rt": 1008,
        "correct": true,
        "response": "ArrowLeft",
        "congruent": false,
        "gazeTowards": false,
        "gazeCondition": "away",
        "faceOnLeft": true,
        "impliedDirection": 0,
        "testDirection": 180,
        "avgFps": 239,
        "minFps": 182,
        "maxFps": 250,
        "totalFrames": 241,
        "frameRates": 239
      },
      {
        "trial_number": 56,
        "trial_index": 345,
        "rt": 898,
        "correct": true,
        "response": "ArrowLeft",
        "congruent": false,
        "gazeTowards": true,
        "gazeCondition": "towards",
        "faceOnLeft": true,
        "impliedDirection": 0,
        "testDirection": 180,
        "avgFps": 239,
        "minFps": 179,
        "maxFps": 250,
        "totalFrames": 215,
        "frameRates": 239
      },
      {
        "trial_number": 57,
        "trial_index": 350,
        "rt": 760,
        "correct": true,
        "response": "ArrowLeft",
        "congruent": true,
        "gazeTowards": true,
        "gazeCondition": "towards",
        "faceOnLeft": false,
        "impliedDirection": 180,
        "testDirection": 180,
        "avgFps": 239,
        "minFps": 179,
        "maxFps": 250,
        "totalFrames": 182,
        "frameRates": 239
      },
      {
        "trial_number": 58,
        "trial_index": 355,
        "rt": 974,
        "correct": true,
        "response": "ArrowLeft",
        "congruent": true,
        "gazeTowards": true,
        "gazeCondition": "towards",
        "faceOnLeft": false,
        "impliedDirection": 180,
        "testDirection": 180,
        "avgFps": 239,
        "minFps": 152,
        "maxFps": 313,
        "totalFrames": 233,
        "frameRates": 239
      },
      {
        "trial_number": 59,
        "trial_index": 360,
        "rt": 664,
        "correct": true,
        "response": "ArrowLeft",
        "congruent": false,
        "gazeTowards": false,
        "gazeCondition": "away",
        "faceOnLeft": true,
        "impliedDirection": 0,
        "testDirection": 180,
        "avgFps": 238,
        "minFps": 103,
        "maxFps": 312,
        "totalFrames": 158,
        "frameRates": 238
      },
      {
        "trial_number": 60,
        "trial_index": 365,
        "rt": 797,
        "correct": true,
        "response": "ArrowLeft",
        "congruent": false,
        "gazeTowards": false,
        "gazeCondition": "away",
        "faceOnLeft": true,
        "impliedDirection": 0,
        "testDirection": 180,
        "avgFps": 233,
        "minFps": 40,
        "maxFps": 357,
        "totalFrames": 185,
        "frameRates": 233
      },
      {
        "trial_number": 61,
        "trial_index": 371,
        "rt": 722,
        "correct": true,
        "response": "ArrowRight",
        "congruent": false,
        "gazeTowards": true,
        "gazeCondition": "towards",
        "faceOnLeft": false,
        "impliedDirection": 180,
        "testDirection": 0,
        "avgFps": 239,
        "minFps": 185,
        "maxFps": 250,
        "totalFrames": 173,
        "frameRates": 239
      },
      {
        "trial_number": 62,
        "trial_index": 376,
        "rt": 699,
        "correct": true,
        "response": "ArrowRight",
        "congruent": true,
        "gazeTowards": true,
        "gazeCondition": "towards",
        "faceOnLeft": true,
        "impliedDirection": 0,
        "testDirection": 0,
        "avgFps": 230,
        "minFps": 40,
        "maxFps": 250,
        "totalFrames": 161,
        "frameRates": 230
      },
      {
        "trial_number": 63,
        "trial_index": 381,
        "rt": 840,
        "correct": true,
        "response": "ArrowRight",
        "congruent": true,
        "gazeTowards": true,
        "gazeCondition": "towards",
        "faceOnLeft": true,
        "impliedDirection": 0,
        "testDirection": 0,
        "avgFps": 233,
        "minFps": 40,
        "maxFps": 333,
        "totalFrames": 196,
        "frameRates": 233
      },
      {
        "trial_number": 64,
        "trial_index": 386,
        "rt": 491,
        "correct": true,
        "response": "ArrowLeft",
        "congruent": true,
        "gazeTowards": false,
        "gazeCondition": "away",
        "faceOnLeft": false,
        "impliedDirection": 180,
        "testDirection": 180,
        "avgFps": 237,
        "minFps": 101,
        "maxFps": 244,
        "totalFrames": 116,
        "frameRates": 237
      },
      {
        "trial_number": 65,
        "trial_index": 391,
        "rt": 742,
        "correct": true,
        "response": "ArrowRight",
        "congruent": false,
        "gazeTowards": false,
        "gazeCondition": "away",
        "faceOnLeft": false,
        "impliedDirection": 180,
        "testDirection": 0,
        "avgFps": 239,
        "minFps": 154,
        "maxFps": 323,
        "totalFrames": 177,
        "frameRates": 239
      },
      {
        "trial_number": 66,
        "trial_index": 396,
        "rt": 989,
        "correct": true,
        "response": "ArrowRight",
        "congruent": true,
        "gazeTowards": true,
        "gazeCondition": "towards",
        "faceOnLeft": true,
        "impliedDirection": 0,
        "testDirection": 0,
        "avgFps": 239,
        "minFps": 179,
        "maxFps": 250,
        "totalFrames": 237,
        "frameRates": 239
      },
      {
        "trial_number": 67,
        "trial_index": 404,
        "rt": 934,
        "correct": true,
        "response": "ArrowRight",
        "congruent": true,
        "gazeTowards": true,
        "gazeCondition": "towards",
        "faceOnLeft": true,
        "impliedDirection": 0,
        "testDirection": 0,
        "avgFps": 234,
        "minFps": 40,
        "maxFps": 250,
        "totalFrames": 219,
        "frameRates": 234
      },
      {
        "trial_number": 68,
        "trial_index": 409,
        "rt": 1330,
        "correct": true,
        "response": "ArrowRight",
        "congruent": true,
        "gazeTowards": false,
        "gazeCondition": "away",
        "faceOnLeft": true,
        "impliedDirection": 0,
        "testDirection": 0,
        "avgFps": 240,
        "minFps": 182,
        "maxFps": 250,
        "totalFrames": 319,
        "frameRates": 240
      },
      {
        "trial_number": 69,
        "trial_index": 414,
        "rt": 1161,
        "correct": true,
        "response": "ArrowRight",
        "congruent": false,
        "gazeTowards": true,
        "gazeCondition": "towards",
        "faceOnLeft": false,
        "impliedDirection": 180,
        "testDirection": 0,
        "avgFps": 239,
        "minFps": 101,
        "maxFps": 250,
        "totalFrames": 277,
        "frameRates": 239
      },
      {
        "trial_number": 70,
        "trial_index": 419,
        "rt": 1127,
        "correct": true,
        "response": "ArrowRight",
        "congruent": false,
        "gazeTowards": false,
        "gazeCondition": "away",
        "faceOnLeft": false,
        "impliedDirection": 180,
        "testDirection": 0,
        "avgFps": 240,
        "minFps": 233,
        "maxFps": 667,
        "totalFrames": 270,
        "frameRates": 240
      },
      {
        "trial_number": 71,
        "trial_index": 427,
        "rt": 580,
        "correct": true,
        "response": "ArrowLeft",
        "congruent": false,
        "gazeTowards": true,
        "gazeCondition": "towards",
        "faceOnLeft": true,
        "impliedDirection": 0,
        "testDirection": 180,
        "avgFps": 241,
        "minFps": 233,
        "maxFps": 714,
        "totalFrames": 139,
        "frameRates": 241
      },
      {
        "trial_number": 72,
        "trial_index": 432,
        "rt": 642,
        "correct": true,
        "response": "ArrowRight",
        "congruent": true,
        "gazeTowards": false,
        "gazeCondition": "away",
        "faceOnLeft": true,
        "impliedDirection": 0,
        "testDirection": 0,
        "avgFps": 239,
        "minFps": 182,
        "maxFps": 250,
        "totalFrames": 153,
        "frameRates": 239
      },
      {
        "trial_number": 73,
        "trial_index": 443,
        "rt": 761,
        "correct": true,
        "response": "ArrowRight",
        "congruent": true,
        "gazeTowards": false,
        "gazeCondition": "away",
        "faceOnLeft": true,
        "impliedDirection": 0,
        "testDirection": 0,
        "avgFps": 237,
        "minFps": 100,
        "maxFps": 250,
        "totalFrames": 181,
        "frameRates": 237
      },
      {
        "trial_number": 74,
        "trial_index": 448,
        "rt": 462,
        "correct": true,
        "response": "ArrowLeft",
        "congruent": true,
        "gazeTowards": false,
        "gazeCondition": "away",
        "faceOnLeft": false,
        "impliedDirection": 180,
        "testDirection": 180,
        "avgFps": 239,
        "minFps": 182,
        "maxFps": 250,
        "totalFrames": 111,
        "frameRates": 239
      },
      {
        "trial_number": 75,
        "trial_index": 453,
        "rt": 659,
        "correct": true,
        "response": "ArrowRight",
        "congruent": false,
        "gazeTowards": false,
        "gazeCondition": "away",
        "faceOnLeft": false,
        "impliedDirection": 180,
        "testDirection": 0,
        "avgFps": 239,
        "minFps": 179,
        "maxFps": 250,
        "totalFrames": 158,
        "frameRates": 239
      },
      {
        "trial_number": 76,
        "trial_index": 458,
        "rt": 752,
        "correct": true,
        "response": "ArrowRight",
        "congruent": false,
        "gazeTowards": true,
        "gazeCondition": "towards",
        "faceOnLeft": false,
        "impliedDirection": 180,
        "testDirection": 0,
        "avgFps": 239,
        "minFps": 141,
        "maxFps": 370,
        "totalFrames": 180,
        "frameRates": 239
      },
      {
        "trial_number": 77,
        "trial_index": 463,
        "rt": 478,
        "correct": true,
        "response": "ArrowLeft",
        "congruent": false,
        "gazeTowards": true,
        "gazeCondition": "towards",
        "faceOnLeft": true,
        "impliedDirection": 0,
        "testDirection": 180,
        "avgFps": 239,
        "minFps": 182,
        "maxFps": 250,
        "totalFrames": 114,
        "frameRates": 239
      },
      {
        "trial_number": 78,
        "trial_index": 468,
        "rt": 598,
        "correct": true,
        "response": "ArrowRight",
        "congruent": true,
        "gazeTowards": true,
        "gazeCondition": "towards",
        "faceOnLeft": true,
        "impliedDirection": 0,
        "testDirection": 0,
        "avgFps": 239,
        "minFps": 172,
        "maxFps": 250,
        "totalFrames": 143,
        "frameRates": 239
      },
      {
        "trial_number": 79,
        "trial_index": 473,
        "rt": 908,
        "correct": true,
        "response": "ArrowLeft",
        "congruent": false,
        "gazeTowards": false,
        "gazeCondition": "away",
        "faceOnLeft": true,
        "impliedDirection": 0,
        "testDirection": 180,
        "avgFps": 238,
        "minFps": 109,
        "maxFps": 250,
        "totalFrames": 217,
        "frameRates": 238
      },
      {
        "trial_number": 80,
        "trial_index": 481,
        "rt": 1125,
        "correct": true,
        "response": "ArrowLeft",
        "congruent": true,
        "gazeTowards": true,
        "gazeCondition": "towards",
        "faceOnLeft": false,
        "impliedDirection": 180,
        "testDirection": 180,
        "avgFps": 239,
        "minFps": 179,
        "maxFps": 250,
        "totalFrames": 270,
        "frameRates": 239
      },
      {
        "trial_number": 81,
        "trial_index": 486,
        "rt": 994,
        "correct": true,
        "response": "ArrowRight",
        "congruent": true,
        "gazeTowards": true,
        "gazeCondition": "towards",
        "faceOnLeft": true,
        "impliedDirection": 0,
        "testDirection": 0,
        "avgFps": 239,
        "minFps": 139,
        "maxFps": 385,
        "totalFrames": 238,
        "frameRates": 239
      },
      {
        "trial_number": 82,
        "trial_index": 491,
        "rt": 934,
        "correct": true,
        "response": "ArrowLeft",
        "congruent": false,
        "gazeTowards": true,
        "gazeCondition": "towards",
        "faceOnLeft": true,
        "impliedDirection": 0,
        "testDirection": 180,
        "avgFps": 239,
        "minFps": 175,
        "maxFps": 250,
        "totalFrames": 219,
        "frameRates": 239
      },
      {
        "trial_number": 83,
        "trial_index": 496,
        "rt": 941,
        "correct": true,
        "response": "ArrowRight",
        "congruent": true,
        "gazeTowards": true,
        "gazeCondition": "towards",
        "faceOnLeft": true,
        "impliedDirection": 0,
        "testDirection": 0,
        "avgFps": 235,
        "minFps": 40,
        "maxFps": 323,
        "totalFrames": 220,
        "frameRates": 235
      },
      {
        "trial_number": 84,
        "trial_index": 501,
        "rt": 816,
        "correct": true,
        "response": "ArrowLeft",
        "congruent": true,
        "gazeTowards": true,
        "gazeCondition": "towards",
        "faceOnLeft": false,
        "impliedDirection": 180,
        "testDirection": 180,
        "avgFps": 239,
        "minFps": 179,
        "maxFps": 250,
        "totalFrames": 196,
        "frameRates": 239
      },
      {
        "trial_number": 85,
        "trial_index": 506,
        "rt": 727,
        "correct": true,
        "response": "ArrowLeft",
        "congruent": true,
        "gazeTowards": false,
        "gazeCondition": "away",
        "faceOnLeft": false,
        "impliedDirection": 180,
        "testDirection": 180,
        "avgFps": 239,
        "minFps": 182,
        "maxFps": 250,
        "totalFrames": 174,
        "frameRates": 239
      },
      {
        "trial_number": 86,
        "trial_index": 511,
        "rt": 1018,
        "correct": true,
        "response": "ArrowRight",
        "congruent": true,
        "gazeTowards": true,
        "gazeCondition": "towards",
        "faceOnLeft": true,
        "impliedDirection": 0,
        "testDirection": 0,
        "avgFps": 239,
        "minFps": 182,
        "maxFps": 250,
        "totalFrames": 244,
        "frameRates": 239
      },
      {
        "trial_number": 87,
        "trial_index": 516,
        "rt": 841,
        "correct": false,
        "response": "ArrowLeft",
        "congruent": true,
        "gazeTowards": false,
        "gazeCondition": "away",
        "faceOnLeft": true,
        "impliedDirection": 0,
        "testDirection": 0,
        "avgFps": 239,
        "minFps": 182,
        "maxFps": 250,
        "totalFrames": 202,
        "frameRates": 239
      },
      {
        "trial_number": 88,
        "trial_index": 521,
        "rt": 760,
        "correct": true,
        "response": "ArrowLeft",
        "congruent": false,
        "gazeTowards": false,
        "gazeCondition": "away",
        "faceOnLeft": true,
        "impliedDirection": 0,
        "testDirection": 180,
        "avgFps": 239,
        "minFps": 179,
        "maxFps": 250,
        "totalFrames": 182,
        "frameRates": 239
      },
      {
        "trial_number": 89,
        "trial_index": 527,
        "rt": 853,
        "correct": true,
        "response": "ArrowLeft",
        "congruent": true,
        "gazeTowards": true,
        "gazeCondition": "towards",
        "faceOnLeft": false,
        "impliedDirection": 180,
        "testDirection": 180,
        "avgFps": 235,
        "minFps": 40,
        "maxFps": 769,
        "totalFrames": 200,
        "frameRates": 235
      },
      {
        "trial_number": 90,
        "trial_index": 532,
        "rt": 850,
        "correct": true,
        "response": "ArrowRight",
        "congruent": true,
        "gazeTowards": false,
        "gazeCondition": "away",
        "faceOnLeft": true,
        "impliedDirection": 0,
        "testDirection": 0,
        "avgFps": 233,
        "minFps": 40,
        "maxFps": 250,
        "totalFrames": 199,
        "frameRates": 233
      },
      {
        "trial_number": 91,
        "trial_index": 537,
        "rt": 592,
        "correct": true,
        "response": "ArrowLeft",
        "congruent": true,
        "gazeTowards": false,
        "gazeCondition": "away",
        "faceOnLeft": false,
        "impliedDirection": 180,
        "testDirection": 180,
        "avgFps": 232,
        "minFps": 40,
        "maxFps": 641,
        "totalFrames": 137,
        "frameRates": 232
      },
      {
        "trial_number": 92,
        "trial_index": 542,
        "rt": 722,
        "correct": true,
        "response": "ArrowRight",
        "congruent": true,
        "gazeTowards": true,
        "gazeCondition": "towards",
        "faceOnLeft": true,
        "impliedDirection": 0,
        "testDirection": 0,
        "avgFps": 239,
        "minFps": 179,
        "maxFps": 250,
        "totalFrames": 173,
        "frameRates": 239
      },
      {
        "trial_number": 93,
        "trial_index": 550,
        "rt": 553,
        "correct": true,
        "response": "ArrowLeft",
        "congruent": false,
        "gazeTowards": false,
        "gazeCondition": "away",
        "faceOnLeft": true,
        "impliedDirection": 0,
        "testDirection": 180,
        "avgFps": 237,
        "minFps": 102,
        "maxFps": 250,
        "totalFrames": 131,
        "frameRates": 237
      },
      {
        "trial_number": 94,
        "trial_index": 555,
        "rt": 803,
        "correct": true,
        "response": "ArrowLeft",
        "congruent": false,
        "gazeTowards": true,
        "gazeCondition": "towards",
        "faceOnLeft": true,
        "impliedDirection": 0,
        "testDirection": 180,
        "avgFps": 233,
        "minFps": 40,
        "maxFps": 250,
        "totalFrames": 187,
        "frameRates": 233
      },
      {
        "trial_number": 95,
        "trial_index": 560,
        "rt": 611,
        "correct": true,
        "response": "ArrowRight",
        "congruent": true,
        "gazeTowards": false,
        "gazeCondition": "away",
        "faceOnLeft": true,
        "impliedDirection": 0,
        "testDirection": 0,
        "avgFps": 233,
        "minFps": 40,
        "maxFps": 667,
        "totalFrames": 142,
        "frameRates": 233
      },
      {
        "trial_number": 96,
        "trial_index": 565,
        "rt": 632,
        "correct": true,
        "response": "ArrowLeft",
        "congruent": true,
        "gazeTowards": false,
        "gazeCondition": "away",
        "faceOnLeft": false,
        "impliedDirection": 180,
        "testDirection": 180,
        "avgFps": 231,
        "minFps": 40,
        "maxFps": 250,
        "totalFrames": 146,
        "frameRates": 231
      },
      {
        "trial_number": 97,
        "trial_index": 570,
        "rt": 754,
        "correct": true,
        "response": "ArrowRight",
        "congruent": true,
        "gazeTowards": true,
        "gazeCondition": "towards",
        "faceOnLeft": true,
        "impliedDirection": 0,
        "testDirection": 0,
        "avgFps": 233,
        "minFps": 40,
        "maxFps": 250,
        "totalFrames": 176,
        "frameRates": 233
      },
      {
        "trial_number": 98,
        "trial_index": 575,
        "rt": 721,
        "correct": true,
        "response": "ArrowRight",
        "congruent": true,
        "gazeTowards": true,
        "gazeCondition": "towards",
        "faceOnLeft": true,
        "impliedDirection": 0,
        "testDirection": 0,
        "avgFps": 233,
        "minFps": 40,
        "maxFps": 323,
        "totalFrames": 168,
        "frameRates": 233
      },
      {
        "trial_number": 99,
        "trial_index": 580,
        "rt": 1003,
        "correct": true,
        "response": "ArrowRight",
        "congruent": false,
        "gazeTowards": false,
        "gazeCondition": "away",
        "faceOnLeft": false,
        "impliedDirection": 180,
        "testDirection": 0,
        "avgFps": 238,
        "minFps": 102,
        "maxFps": 250,
        "totalFrames": 239,
        "frameRates": 238
      },
      {
        "trial_number": 100,
        "trial_index": 585,
        "rt": 629,
        "correct": true,
        "response": "ArrowLeft",
        "congruent": false,
        "gazeTowards": true,
        "gazeCondition": "towards",
        "faceOnLeft": true,
        "impliedDirection": 0,
        "testDirection": 180,
        "avgFps": 238,
        "minFps": 103,
        "maxFps": 244,
        "totalFrames": 149,
        "frameRates": 238
      },
      {
        "trial_number": 101,
        "trial_index": 590,
        "rt": 761,
        "correct": true,
        "response": "ArrowLeft",
        "congruent": false,
        "gazeTowards": false,
        "gazeCondition": "away",
        "faceOnLeft": true,
        "impliedDirection": 0,
        "testDirection": 180,
        "avgFps": 239,
        "minFps": 179,
        "maxFps": 250,
        "totalFrames": 183,
        "frameRates": 239
      },
      {
        "trial_number": 102,
        "trial_index": 595,
        "rt": 483,
        "correct": true,
        "response": "ArrowRight",
        "congruent": true,
        "gazeTowards": false,
        "gazeCondition": "away",
        "faceOnLeft": true,
        "impliedDirection": 0,
        "testDirection": 0,
        "avgFps": 240,
        "minFps": 233,
        "maxFps": 334,
        "totalFrames": 116,
        "frameRates": 240
      },
      {
        "trial_number": 103,
        "trial_index": 600,
        "rt": 713,
        "correct": true,
        "response": "ArrowLeft",
        "congruent": false,
        "gazeTowards": false,
        "gazeCondition": "away",
        "faceOnLeft": true,
        "impliedDirection": 0,
        "testDirection": 180,
        "avgFps": 241,
        "minFps": 233,
        "maxFps": 667,
        "totalFrames": 171,
        "frameRates": 241
      },
      {
        "trial_number": 104,
        "trial_index": 605,
        "rt": 792,
        "correct": true,
        "response": "ArrowLeft",
        "congruent": false,
        "gazeTowards": false,
        "gazeCondition": "away",
        "faceOnLeft": true,
        "impliedDirection": 0,
        "testDirection": 180,
        "avgFps": 241,
        "minFps": 233,
        "maxFps": 714,
        "totalFrames": 190,
        "frameRates": 241
      },
      {
        "trial_number": 105,
        "trial_index": 610,
        "rt": 685,
        "correct": true,
        "response": "ArrowRight",
        "congruent": true,
        "gazeTowards": true,
        "gazeCondition": "towards",
        "faceOnLeft": true,
        "impliedDirection": 0,
        "testDirection": 0,
        "avgFps": 241,
        "minFps": 233,
        "maxFps": 667,
        "totalFrames": 164,
        "frameRates": 241
      },
      {
        "trial_number": 106,
        "trial_index": 615,
        "rt": 538,
        "correct": true,
        "response": "ArrowLeft",
        "congruent": false,
        "gazeTowards": true,
        "gazeCondition": "towards",
        "faceOnLeft": true,
        "impliedDirection": 0,
        "testDirection": 180,
        "avgFps": 237,
        "minFps": 102,
        "maxFps": 250,
        "totalFrames": 128,
        "frameRates": 237
      },
      {
        "trial_number": 107,
        "trial_index": 620,
        "rt": 485,
        "correct": true,
        "response": "ArrowLeft",
        "congruent": false,
        "gazeTowards": false,
        "gazeCondition": "away",
        "faceOnLeft": true,
        "impliedDirection": 0,
        "testDirection": 180,
        "avgFps": 239,
        "minFps": 143,
        "maxFps": 357,
        "totalFrames": 116,
        "frameRates": 239
      },
      {
        "trial_number": 108,
        "trial_index": 628,
        "rt": 740,
        "correct": true,
        "response": "ArrowLeft",
        "congruent": false,
        "gazeTowards": false,
        "gazeCondition": "away",
        "faceOnLeft": true,
        "impliedDirection": 0,
        "testDirection": 180,
        "avgFps": 239,
        "minFps": 179,
        "maxFps": 250,
        "totalFrames": 177,
        "frameRates": 239
      },
      {
        "trial_number": 109,
        "trial_index": 633,
        "rt": 924,
        "correct": true,
        "response": "ArrowLeft",
        "congruent": true,
        "gazeTowards": false,
        "gazeCondition": "away",
        "faceOnLeft": false,
        "impliedDirection": 180,
        "testDirection": 180,
        "avgFps": 238,
        "minFps": 104,
        "maxFps": 250,
        "totalFrames": 220,
        "frameRates": 238
      },
      {
        "trial_number": 110,
        "trial_index": 638,
        "rt": 658,
        "correct": true,
        "response": "ArrowRight",
        "congruent": false,
        "gazeTowards": true,
        "gazeCondition": "towards",
        "faceOnLeft": false,
        "impliedDirection": 180,
        "testDirection": 0,
        "avgFps": 238,
        "minFps": 102,
        "maxFps": 250,
        "totalFrames": 156,
        "frameRates": 238
      },
      {
        "trial_number": 111,
        "trial_index": 643,
        "rt": 841,
        "correct": true,
        "response": "ArrowRight",
        "congruent": true,
        "gazeTowards": true,
        "gazeCondition": "towards",
        "faceOnLeft": true,
        "impliedDirection": 0,
        "testDirection": 0,
        "avgFps": 239,
        "minFps": 182,
        "maxFps": 250,
        "totalFrames": 202,
        "frameRates": 239
      },
      {
        "trial_number": 112,
        "trial_index": 648,
        "rt": 649,
        "correct": true,
        "response": "ArrowRight",
        "congruent": false,
        "gazeTowards": false,
        "gazeCondition": "away",
        "faceOnLeft": false,
        "impliedDirection": 180,
        "testDirection": 0,
        "avgFps": 239,
        "minFps": 189,
        "maxFps": 250,
        "totalFrames": 155,
        "frameRates": 239
      },
      {
        "trial_number": 113,
        "trial_index": 653,
        "rt": 524,
        "correct": true,
        "response": "ArrowRight",
        "congruent": true,
        "gazeTowards": false,
        "gazeCondition": "away",
        "faceOnLeft": true,
        "impliedDirection": 0,
        "testDirection": 0,
        "avgFps": 237,
        "minFps": 105,
        "maxFps": 250,
        "totalFrames": 124,
        "frameRates": 237
      },
      {
        "trial_number": 114,
        "trial_index": 658,
        "rt": 498,
        "correct": true,
        "response": "ArrowLeft",
        "congruent": false,
        "gazeTowards": true,
        "gazeCondition": "towards",
        "faceOnLeft": true,
        "impliedDirection": 0,
        "testDirection": 180,
        "avgFps": 240,
        "minFps": 233,
        "maxFps": 334,
        "totalFrames": 119,
        "frameRates": 240
      },
      {
        "trial_number": 115,
        "trial_index": 663,
        "rt": 1247,
        "correct": false,
        "response": "ArrowRight",
        "congruent": false,
        "gazeTowards": true,
        "gazeCondition": "towards",
        "faceOnLeft": true,
        "impliedDirection": 0,
        "testDirection": 180,
        "avgFps": 240,
        "minFps": 185,
        "maxFps": 250,
        "totalFrames": 299,
        "frameRates": 240
      },
      {
        "trial_number": 116,
        "trial_index": 668,
        "rt": 1111,
        "correct": false,
        "response": "ArrowRight",
        "congruent": true,
        "gazeTowards": true,
        "gazeCondition": "towards",
        "faceOnLeft": false,
        "impliedDirection": 180,
        "testDirection": 180,
        "avgFps": 235,
        "minFps": 40,
        "maxFps": 250,
        "totalFrames": 261,
        "frameRates": 235
      },
      {
        "trial_number": 117,
        "trial_index": 673,
        "rt": 1433,
        "correct": true,
        "response": "ArrowLeft",
        "congruent": false,
        "gazeTowards": true,
        "gazeCondition": "towards",
        "faceOnLeft": true,
        "impliedDirection": 0,
        "testDirection": 180,
        "avgFps": 237,
        "minFps": 40,
        "maxFps": 667,
        "totalFrames": 339,
        "frameRates": 237
      },
      {
        "trial_number": 118,
        "trial_index": 678,
        "rt": 714,
        "correct": true,
        "response": "ArrowRight",
        "congruent": false,
        "gazeTowards": true,
        "gazeCondition": "towards",
        "faceOnLeft": false,
        "impliedDirection": 180,
        "testDirection": 0,
        "avgFps": 239,
        "minFps": 154,
        "maxFps": 313,
        "totalFrames": 170,
        "frameRates": 239
      },
      {
        "trial_number": 119,
        "trial_index": 683,
        "rt": 766,
        "correct": true,
        "response": "ArrowRight",
        "congruent": true,
        "gazeTowards": true,
        "gazeCondition": "towards",
        "faceOnLeft": true,
        "impliedDirection": 0,
        "testDirection": 0,
        "avgFps": 238,
        "minFps": 103,
        "maxFps": 244,
        "totalFrames": 182,
        "frameRates": 238
      }
    ],
    "catch": {
      "total": 12,
      "correct": 12,
      "accuracy": 100,
      "meanRT": 819,
      "trials": [
        {
          "trial_number": 0,
          "trial_index": 48,
          "rt": 2994,
          "correct": true,
          "colorTarget": "tree",
          "gazeTowards": true,
          "gazeCondition": "towards",
          "faceOnLeft": true
        },
        {
          "trial_number": 1,
          "trial_index": 76,
          "rt": 489,
          "correct": true,
          "colorTarget": "tree",
          "gazeTowards": false,
          "gazeCondition": "away",
          "faceOnLeft": false
        },
        {
          "trial_number": 2,
          "trial_index": 109,
          "rt": 955,
          "correct": true,
          "colorTarget": "face",
          "gazeTowards": true,
          "gazeCondition": "towards",
          "faceOnLeft": false
        },
        {
          "trial_number": 3,
          "trial_index": 152,
          "rt": 659,
          "correct": true,
          "colorTarget": "face",
          "gazeTowards": false,
          "gazeCondition": "away",
          "faceOnLeft": false
        },
        {
          "trial_number": 4,
          "trial_index": 251,
          "rt": 563,
          "correct": true,
          "colorTarget": "face",
          "gazeTowards": true,
          "gazeCondition": "towards",
          "faceOnLeft": true
        },
        {
          "trial_number": 5,
          "trial_index": 400,
          "rt": 806,
          "correct": true,
          "colorTarget": "face",
          "gazeTowards": false,
          "gazeCondition": "away",
          "faceOnLeft": false
        },
        {
          "trial_number": 6,
          "trial_index": 423,
          "rt": 638,
          "correct": true,
          "colorTarget": "face",
          "gazeTowards": true,
          "gazeCondition": "towards",
          "faceOnLeft": true
        },
        {
          "trial_number": 7,
          "trial_index": 436,
          "rt": 565,
          "correct": true,
          "colorTarget": "tree",
          "gazeTowards": false,
          "gazeCondition": "away",
          "faceOnLeft": true
        },
        {
          "trial_number": 8,
          "trial_index": 439,
          "rt": 473,
          "correct": true,
          "colorTarget": "tree",
          "gazeTowards": false,
          "gazeCondition": "away",
          "faceOnLeft": false
        },
        {
          "trial_number": 9,
          "trial_index": 477,
          "rt": 623,
          "correct": true,
          "colorTarget": "face",
          "gazeTowards": false,
          "gazeCondition": "away",
          "faceOnLeft": false
        },
        {
          "trial_number": 10,
          "trial_index": 546,
          "rt": 555,
          "correct": true,
          "colorTarget": "tree",
          "gazeTowards": false,
          "gazeCondition": "away",
          "faceOnLeft": true
        },
        {
          "trial_number": 11,
          "trial_index": 624,
          "rt": 505,
          "correct": true,
          "colorTarget": "tree",
          "gazeTowards": true,
          "gazeCondition": "towards",
          "faceOnLeft": true
        }
      ]
    },
    "practice": {
      "trials": [
        {
          "trial_number": 0,
          "rt": null,
          "correct": false,
          "direction": 180
        },
        {
          "trial_number": 1,
          "rt": 1011,
          "correct": true,
          "direction": 180
        },
        {
          "trial_number": 2,
          "rt": 983,
          "correct": true,
          "direction": 0
        },
        {
          "trial_number": 3,
          "rt": 931,
          "correct": true,
          "direction": 180
        },
        {
          "trial_number": 4,
          "rt": 957,
          "correct": true,
          "direction": 0
        },
        {
          "trial_number": 5,
          "rt": 814,
          "correct": true,
          "direction": 0
        },
        {
          "trial_number": 6,
          "rt": 792,
          "correct": true,
          "direction": 0
        },
        {
          "trial_number": 7,
          "rt": 638,
          "correct": true,
          "direction": 180
        },
        {
          "trial_number": 8,
          "rt": 649,
          "correct": true,
          "direction": 180
        },
        {
          "trial_number": 9,
          "rt": 664,
          "correct": true,
          "direction": 0
        }
      ],
      "meanRT": 827,
      "accuracy": 90
    }
  }
}