{
  "experiment": "rdk-face-1",
  "UUID": "53afad8d-d5de-4151-a46c-df6f120bf442",
  "data": {
    "session": {
      "experiment_version": "1.8.6",
      "treatment": "faces_towards_away_catch",
      "file_version": "1.8.6",
      "totalTrials": 120,
      "totalTrialsIncludingCatch": 132,
      "conditions": {
        "gazeTowardsCount": 60,
        "gazeAwayCount": 60,
        "gazeTowardsAccuracy": 100,
        "gazeAwayAccuracy": 100
      },
      "session_group": "default",
      "browserData": {
        "os": "Mac",
        "browser": "Chrome",
        "screenResolution": "1920x1080",
        "browserViewport": "1920x1080",
        "devicePixelRatio": 1,
        "colorDepth": 24,
        "hardwareConcurrency": 4,
        "deviceMemory": 8,
        "gpuRenderer": "ANGLE (Intel, ANGLE Metal Renderer: Intel(R) Iris(TM) Plus Graphics 655, Unspecified Version)",
        "measuredRefreshRateHz": 59
      },
      "attention": {
        "visibilityEvents": [
          {
            "event": "blur",
            "state": "blurred",
            "timestamp": 1772765337104
          },
          {
            "event": "visibilitychange",
            "state": "hidden",
            "timestamp": 1772765337106
          },
          {
            "event": "visibilitychange",
            "state": "visible",
            "timestamp": 1772765339341
          },
          {
            "event": "focus",
            "state": "focused",
            "timestamp": 1772765339350
          }
        ]
      },
      "calibration": {
        "monitorWidthCm": 38,
        "viewingDistanceCm": 54,
        "pixelsPerDegree": 50
      },
      "parameters": {
        "coherence": 0.4,
        "apertureDeg": 5,
        "densityDotsPerDeg2": 40,
        "dotDiameterDeg": 0.035,
        "dotSpeedDegPerSec": 3,
        "lifetimeMs": 200,
        "fixationDurationMs": 1500,
        "faceDurationMs": 1500,
        "testDurationMs": 2000,
        "catchResponseMs": 3000
      },
      "prolific": {
        "prolificPid": "6636e5ffb1e341fa2390a2c0",
        "studyId": "",
        "sessionId": ""
      },
      "timing": {
        "startTime": "2026-03-06T02:48:55.203Z",
        "endTime": "2026-03-06T03:02:05.160Z",
        "totalElapsedTimeMs": 789957
      }
    },
    "trials": [
      {
        "trial_number": 0,
        "trial_index": 49,
        "rt": 1017,
        "correct": true,
        "response": "ArrowLeft",
        "congruent": false,
        "gazeTowards": true,
        "gazeCondition": "towards",
        "faceOnLeft": true,
        "impliedDirection": 0,
        "testDirection": 180,
        "avgFps": 60,
        "minFps": 56,
        "maxFps": 64,
        "totalFrames": 61,
        "frameRates": 60
      },
      {
        "trial_number": 1,
        "trial_index": 54,
        "rt": 1015,
        "correct": true,
        "response": "ArrowLeft",
        "congruent": true,
        "gazeTowards": true,
        "gazeCondition": "towards",
        "faceOnLeft": false,
        "impliedDirection": 180,
        "testDirection": 180,
        "avgFps": 59,
        "minFps": 31,
        "maxFps": 64,
        "totalFrames": 60,
        "frameRates": 59
      },
      {
        "trial_number": 2,
        "trial_index": 59,
        "rt": 941,
        "correct": true,
        "response": "ArrowLeft",
        "congruent": true,
        "gazeTowards": false,
        "gazeCondition": "away",
        "faceOnLeft": false,
        "impliedDirection": 180,
        "testDirection": 180,
        "avgFps": 59,
        "minFps": 31,
        "maxFps": 64,
        "totalFrames": 56,
        "frameRates": 59
      },
      {
        "trial_number": 3,
        "trial_index": 64,
        "rt": 925,
        "correct": true,
        "response": "ArrowRight",
        "congruent": false,
        "gazeTowards": false,
        "gazeCondition": "away",
        "faceOnLeft": false,
        "impliedDirection": 180,
        "testDirection": 0,
        "avgFps": 59,
        "minFps": 30,
        "maxFps": 64,
        "totalFrames": 55,
        "frameRates": 59
      },
      {
        "trial_number": 4,
        "trial_index": 69,
        "rt": 846,
        "correct": true,
        "response": "ArrowRight",
        "congruent": false,
        "gazeTowards": true,
        "gazeCondition": "towards",
        "faceOnLeft": false,
        "impliedDirection": 180,
        "testDirection": 0,
        "avgFps": 59,
        "minFps": 30,
        "maxFps": 64,
        "totalFrames": 50,
        "frameRates": 59
      },
      {
        "trial_number": 5,
        "trial_index": 74,
        "rt": 813,
        "correct": true,
        "response": "ArrowRight",
        "congruent": false,
        "gazeTowards": false,
        "gazeCondition": "away",
        "faceOnLeft": false,
        "impliedDirection": 180,
        "testDirection": 0,
        "avgFps": 60,
        "minFps": 57,
        "maxFps": 64,
        "totalFrames": 48,
        "frameRates": 60
      },
      {
        "trial_number": 6,
        "trial_index": 79,
        "rt": 775,
        "correct": true,
        "response": "ArrowRight",
        "congruent": true,
        "gazeTowards": false,
        "gazeCondition": "away",
        "faceOnLeft": true,
        "impliedDirection": 0,
        "testDirection": 0,
        "avgFps": 60,
        "minFps": 56,
        "maxFps": 64,
        "totalFrames": 46,
        "frameRates": 60
      },
      {
        "trial_number": 7,
        "trial_index": 84,
        "rt": 706,
        "correct": true,
        "response": "ArrowRight",
        "congruent": true,
        "gazeTowards": false,
        "gazeCondition": "away",
        "faceOnLeft": true,
        "impliedDirection": 0,
        "testDirection": 0,
        "avgFps": 59,
        "minFps": 30,
        "maxFps": 63,
        "totalFrames": 41,
        "frameRates": 59
      },
      {
        "trial_number": 8,
        "trial_index": 89,
        "rt": 794,
        "correct": true,
        "response": "ArrowRight",
        "congruent": true,
        "gazeTowards": true,
        "gazeCondition": "towards",
        "faceOnLeft": true,
        "impliedDirection": 0,
        "testDirection": 0,
        "avgFps": 60,
        "minFps": 56,
        "maxFps": 63,
        "totalFrames": 47,
        "frameRates": 60
      },
      {
        "trial_number": 9,
        "trial_index": 94,
        "rt": 922,
        "correct": true,
        "response": "ArrowLeft",
        "congruent": false,
        "gazeTowards": true,
        "gazeCondition": "towards",
        "faceOnLeft": true,
        "impliedDirection": 0,
        "testDirection": 180,
        "avgFps": 59,
        "minFps": 30,
        "maxFps": 63,
        "totalFrames": 55,
        "frameRates": 59
      },
      {
        "trial_number": 10,
        "trial_index": 99,
        "rt": 679,
        "correct": true,
        "response": "ArrowRight",
        "congruent": false,
        "gazeTowards": false,
        "gazeCondition": "away",
        "faceOnLeft": false,
        "impliedDirection": 180,
        "testDirection": 0,
        "avgFps": 59,
        "minFps": 30,
        "maxFps": 63,
        "totalFrames": 40,
        "frameRates": 59
      },
      {
        "trial_number": 11,
        "trial_index": 104,
        "rt": 873,
        "correct": true,
        "response": "ArrowRight",
        "congruent": false,
        "gazeTowards": false,
        "gazeCondition": "away",
        "faceOnLeft": false,
        "impliedDirection": 180,
        "testDirection": 0,
        "avgFps": 60,
        "minFps": 57,
        "maxFps": 64,
        "totalFrames": 52,
        "frameRates": 60
      },
      {
        "trial_number": 12,
        "trial_index": 109,
        "rt": 843,
        "correct": true,
        "response": "ArrowRight",
        "congruent": false,
        "gazeTowards": false,
        "gazeCondition": "away",
        "faceOnLeft": false,
        "impliedDirection": 180,
        "testDirection": 0,
        "avgFps": 59,
        "minFps": 30,
        "maxFps": 63,
        "totalFrames": 50,
        "frameRates": 59
      },
      {
        "trial_number": 13,
        "trial_index": 114,
        "rt": 851,
        "correct": true,
        "response": "ArrowRight",
        "congruent": true,
        "gazeTowards": false,
        "gazeCondition": "away",
        "faceOnLeft": true,
        "impliedDirection": 0,
        "testDirection": 0,
        "avgFps": 59,
        "minFps": 30,
        "maxFps": 64,
        "totalFrames": 50,
        "frameRates": 59
      },
      {
        "trial_number": 14,
        "trial_index": 119,
        "rt": 947,
        "correct": true,
        "response": "ArrowLeft",
        "congruent": false,
        "gazeTowards": false,
        "gazeCondition": "away",
        "faceOnLeft": true,
        "impliedDirection": 0,
        "testDirection": 180,
        "avgFps": 59,
        "minFps": 30,
        "maxFps": 64,
        "totalFrames": 56,
        "frameRates": 59
      },
      {
        "trial_number": 15,
        "trial_index": 127,
        "rt": 1001,
        "correct": true,
        "response": "ArrowRight",
        "congruent": true,
        "gazeTowards": true,
        "gazeCondition": "towards",
        "faceOnLeft": true,
        "impliedDirection": 0,
        "testDirection": 0,
        "avgFps": 60,
        "minFps": 56,
        "maxFps": 64,
        "totalFrames": 60,
        "frameRates": 60
      },
      {
        "trial_number": 16,
        "trial_index": 132,
        "rt": 968,
        "correct": true,
        "response": "ArrowLeft",
        "congruent": true,
        "gazeTowards": true,
        "gazeCondition": "towards",
        "faceOnLeft": false,
        "impliedDirection": 180,
        "testDirection": 180,
        "avgFps": 60,
        "minFps": 56,
        "maxFps": 64,
        "totalFrames": 58,
        "frameRates": 60
      },
      {
        "trial_number": 17,
        "trial_index": 137,
        "rt": 840,
        "correct": true,
        "response": "ArrowRight",
        "congruent": false,
        "gazeTowards": true,
        "gazeCondition": "towards",
        "faceOnLeft": false,
        "impliedDirection": 180,
        "testDirection": 0,
        "avgFps": 60,
        "minFps": 57,
        "maxFps": 63,
        "totalFrames": 50,
        "frameRates": 60
      },
      {
        "trial_number": 18,
        "trial_index": 142,
        "rt": 786,
        "correct": true,
        "response": "ArrowLeft",
        "congruent": true,
        "gazeTowards": true,
        "gazeCondition": "towards",
        "faceOnLeft": false,
        "impliedDirection": 180,
        "testDirection": 180,
        "avgFps": 60,
        "minFps": 57,
        "maxFps": 63,
        "totalFrames": 47,
        "frameRates": 60
      },
      {
        "trial_number": 19,
        "trial_index": 147,
        "rt": 788,
        "correct": true,
        "response": "ArrowRight",
        "congruent": true,
        "gazeTowards": false,
        "gazeCondition": "away",
        "faceOnLeft": true,
        "impliedDirection": 0,
        "testDirection": 0,
        "avgFps": 60,
        "minFps": 57,
        "maxFps": 63,
        "totalFrames": 47,
        "frameRates": 60
      },
      {
        "trial_number": 20,
        "trial_index": 155,
        "rt": 870,
        "correct": true,
        "response": "ArrowLeft",
        "congruent": true,
        "gazeTowards": false,
        "gazeCondition": "away",
        "faceOnLeft": false,
        "impliedDirection": 180,
        "testDirection": 180,
        "avgFps": 60,
        "minFps": 56,
        "maxFps": 64,
        "totalFrames": 52,
        "frameRates": 60
      },
      {
        "trial_number": 21,
        "trial_index": 163,
        "rt": 919,
        "correct": true,
        "response": "ArrowLeft",
        "congruent": false,
        "gazeTowards": true,
        "gazeCondition": "towards",
        "faceOnLeft": true,
        "impliedDirection": 0,
        "testDirection": 180,
        "avgFps": 60,
        "minFps": 57,
        "maxFps": 63,
        "totalFrames": 55,
        "frameRates": 60
      },
      {
        "trial_number": 22,
        "trial_index": 168,
        "rt": 820,
        "correct": true,
        "response": "ArrowRight",
        "congruent": false,
        "gazeTowards": false,
        "gazeCondition": "away",
        "faceOnLeft": false,
        "impliedDirection": 180,
        "testDirection": 0,
        "avgFps": 60,
        "minFps": 58,
        "maxFps": 63,
        "totalFrames": 49,
        "frameRates": 60
      },
      {
        "trial_number": 23,
        "trial_index": 173,
        "rt": 699,
        "correct": true,
        "response": "ArrowLeft",
        "congruent": true,
        "gazeTowards": true,
        "gazeCondition": "towards",
        "faceOnLeft": false,
        "impliedDirection": 180,
        "testDirection": 180,
        "avgFps": 60,
        "minFps": 58,
        "maxFps": 63,
        "totalFrames": 42,
        "frameRates": 60
      },
      {
        "trial_number": 24,
        "trial_index": 178,
        "rt": 768,
        "correct": true,
        "response": "ArrowRight",
        "congruent": true,
        "gazeTowards": false,
        "gazeCondition": "away",
        "faceOnLeft": true,
        "impliedDirection": 0,
        "testDirection": 0,
        "avgFps": 59,
        "minFps": 30,
        "maxFps": 63,
        "totalFrames": 45,
        "frameRates": 59
      },
      {
        "trial_number": 25,
        "trial_index": 183,
        "rt": 770,
        "correct": true,
        "response": "ArrowLeft",
        "congruent": false,
        "gazeTowards": false,
        "gazeCondition": "away",
        "faceOnLeft": true,
        "impliedDirection": 0,
        "testDirection": 180,
        "avgFps": 60,
        "minFps": 56,
        "maxFps": 64,
        "totalFrames": 46,
        "frameRates": 60
      },
      {
        "trial_number": 26,
        "trial_index": 188,
        "rt": 849,
        "correct": true,
        "response": "ArrowLeft",
        "congruent": false,
        "gazeTowards": false,
        "gazeCondition": "away",
        "faceOnLeft": true,
        "impliedDirection": 0,
        "testDirection": 180,
        "avgFps": 59,
        "minFps": 30,
        "maxFps": 64,
        "totalFrames": 50,
        "frameRates": 59
      },
      {
        "trial_number": 27,
        "trial_index": 193,
        "rt": 909,
        "correct": true,
        "response": "ArrowLeft",
        "congruent": true,
        "gazeTowards": false,
        "gazeCondition": "away",
        "faceOnLeft": false,
        "impliedDirection": 180,
        "testDirection": 180,
        "avgFps": 59,
        "minFps": 31,
        "maxFps": 63,
        "totalFrames": 54,
        "frameRates": 59
      },
      {
        "trial_number": 28,
        "trial_index": 198,
        "rt": 612,
        "correct": true,
        "response": "ArrowRight",
        "congruent": true,
        "gazeTowards": false,
        "gazeCondition": "away",
        "faceOnLeft": true,
        "impliedDirection": 0,
        "testDirection": 0,
        "avgFps": 60,
        "minFps": 57,
        "maxFps": 63,
        "totalFrames": 37,
        "frameRates": 60
      },
      {
        "trial_number": 29,
        "trial_index": 203,
        "rt": 977,
        "correct": true,
        "response": "ArrowRight",
        "congruent": true,
        "gazeTowards": false,
        "gazeCondition": "away",
        "faceOnLeft": true,
        "impliedDirection": 0,
        "testDirection": 0,
        "avgFps": 59,
        "minFps": 30,
        "maxFps": 63,
        "totalFrames": 58,
        "frameRates": 59
      },
      {
        "trial_number": 30,
        "trial_index": 209,
        "rt": 693,
        "correct": true,
        "response": "ArrowLeft",
        "congruent": true,
        "gazeTowards": false,
        "gazeCondition": "away",
        "faceOnLeft": false,
        "impliedDirection": 180,
        "testDirection": 180,
        "avgFps": 59,
        "minFps": 30,
        "maxFps": 63,
        "totalFrames": 41,
        "frameRates": 59
      },
      {
        "trial_number": 31,
        "trial_index": 214,
        "rt": 832,
        "correct": true,
        "response": "ArrowLeft",
        "congruent": true,
        "gazeTowards": false,
        "gazeCondition": "away",
        "faceOnLeft": false,
        "impliedDirection": 180,
        "testDirection": 180,
        "avgFps": 60,
        "minFps": 57,
        "maxFps": 64,
        "totalFrames": 50,
        "frameRates": 60
      },
      {
        "trial_number": 32,
        "trial_index": 219,
        "rt": 796,
        "correct": true,
        "response": "ArrowLeft",
        "congruent": true,
        "gazeTowards": true,
        "gazeCondition": "towards",
        "faceOnLeft": false,
        "impliedDirection": 180,
        "testDirection": 180,
        "avgFps": 60,
        "minFps": 57,
        "maxFps": 63,
        "totalFrames": 47,
        "frameRates": 60
      },
      {
        "trial_number": 33,
        "trial_index": 224,
        "rt": 761,
        "correct": true,
        "response": "ArrowRight",
        "congruent": false,
        "gazeTowards": false,
        "gazeCondition": "away",
        "faceOnLeft": false,
        "impliedDirection": 180,
        "testDirection": 0,
        "avgFps": 60,
        "minFps": 57,
        "maxFps": 64,
        "totalFrames": 45,
        "frameRates": 60
      },
      {
        "trial_number": 34,
        "trial_index": 229,
        "rt": 802,
        "correct": true,
        "response": "ArrowLeft",
        "congruent": false,
        "gazeTowards": false,
        "gazeCondition": "away",
        "faceOnLeft": true,
        "impliedDirection": 0,
        "testDirection": 180,
        "avgFps": 59,
        "minFps": 30,
        "maxFps": 64,
        "totalFrames": 47,
        "frameRates": 59
      },
      {
        "trial_number": 35,
        "trial_index": 234,
        "rt": 889,
        "correct": true,
        "response": "ArrowLeft",
        "congruent": false,
        "gazeTowards": true,
        "gazeCondition": "towards",
        "faceOnLeft": true,
        "impliedDirection": 0,
        "testDirection": 180,
        "avgFps": 59,
        "minFps": 30,
        "maxFps": 64,
        "totalFrames": 53,
        "frameRates": 59
      },
      {
        "trial_number": 36,
        "trial_index": 242,
        "rt": 1034,
        "correct": true,
        "response": "ArrowRight",
        "congruent": true,
        "gazeTowards": false,
        "gazeCondition": "away",
        "faceOnLeft": true,
        "impliedDirection": 0,
        "testDirection": 0,
        "avgFps": 60,
        "minFps": 57,
        "maxFps": 64,
        "totalFrames": 62,
        "frameRates": 60
      },
      {
        "trial_number": 37,
        "trial_index": 247,
        "rt": 835,
        "correct": true,
        "response": "ArrowLeft",
        "congruent": false,
        "gazeTowards": false,
        "gazeCondition": "away",
        "faceOnLeft": true,
        "impliedDirection": 0,
        "testDirection": 180,
        "avgFps": 59,
        "minFps": 30,
        "maxFps": 64,
        "totalFrames": 49,
        "frameRates": 59
      },
      {
        "trial_number": 38,
        "trial_index": 252,
        "rt": 735,
        "correct": true,
        "response": "ArrowLeft",
        "congruent": false,
        "gazeTowards": true,
        "gazeCondition": "towards",
        "faceOnLeft": true,
        "impliedDirection": 0,
        "testDirection": 180,
        "avgFps": 59,
        "minFps": 30,
        "maxFps": 64,
        "totalFrames": 43,
        "frameRates": 59
      },
      {
        "trial_number": 39,
        "trial_index": 257,
        "rt": 731,
        "correct": true,
        "response": "ArrowLeft",
        "congruent": false,
        "gazeTowards": true,
        "gazeCondition": "towards",
        "faceOnLeft": true,
        "impliedDirection": 0,
        "testDirection": 180,
        "avgFps": 59,
        "minFps": 30,
        "maxFps": 63,
        "totalFrames": 43,
        "frameRates": 59
      },
      {
        "trial_number": 40,
        "trial_index": 262,
        "rt": 744,
        "correct": true,
        "response": "ArrowRight",
        "congruent": true,
        "gazeTowards": true,
        "gazeCondition": "towards",
        "faceOnLeft": true,
        "impliedDirection": 0,
        "testDirection": 0,
        "avgFps": 60,
        "minFps": 57,
        "maxFps": 64,
        "totalFrames": 44,
        "frameRates": 60
      },
      {
        "trial_number": 41,
        "trial_index": 267,
        "rt": 809,
        "correct": true,
        "response": "ArrowRight",
        "congruent": false,
        "gazeTowards": false,
        "gazeCondition": "away",
        "faceOnLeft": false,
        "impliedDirection": 180,
        "testDirection": 0,
        "avgFps": 59,
        "minFps": 30,
        "maxFps": 64,
        "totalFrames": 48,
        "frameRates": 59
      },
      {
        "trial_number": 42,
        "trial_index": 272,
        "rt": 714,
        "correct": true,
        "response": "ArrowRight",
        "congruent": false,
        "gazeTowards": true,
        "gazeCondition": "towards",
        "faceOnLeft": false,
        "impliedDirection": 180,
        "testDirection": 0,
        "avgFps": 60,
        "minFps": 57,
        "maxFps": 64,
        "totalFrames": 43,
        "frameRates": 60
      },
      {
        "trial_number": 43,
        "trial_index": 277,
        "rt": 773,
        "correct": true,
        "response": "ArrowLeft",
        "congruent": true,
        "gazeTowards": true,
        "gazeCondition": "towards",
        "faceOnLeft": false,
        "impliedDirection": 180,
        "testDirection": 180,
        "avgFps": 59,
        "minFps": 30,
        "maxFps": 62,
        "totalFrames": 46,
        "frameRates": 59
      },
      {
        "trial_number": 44,
        "trial_index": 282,
        "rt": 779,
        "correct": true,
        "response": "ArrowLeft",
        "congruent": true,
        "gazeTowards": true,
        "gazeCondition": "towards",
        "faceOnLeft": false,
        "impliedDirection": 180,
        "testDirection": 180,
        "avgFps": 59,
        "minFps": 30,
        "maxFps": 62,
        "totalFrames": 46,
        "frameRates": 59
      },
      {
        "trial_number": 45,
        "trial_index": 287,
        "rt": 766,
        "correct": true,
        "response": "ArrowLeft",
        "congruent": true,
        "gazeTowards": true,
        "gazeCondition": "towards",
        "faceOnLeft": false,
        "impliedDirection": 180,
        "testDirection": 180,
        "avgFps": 59,
        "minFps": 30,
        "maxFps": 63,
        "totalFrames": 45,
        "frameRates": 59
      },
      {
        "trial_number": 46,
        "trial_index": 292,
        "rt": 744,
        "correct": true,
        "response": "ArrowRight",
        "congruent": true,
        "gazeTowards": false,
        "gazeCondition": "away",
        "faceOnLeft": true,
        "impliedDirection": 0,
        "testDirection": 0,
        "avgFps": 60,
        "minFps": 57,
        "maxFps": 64,
        "totalFrames": 44,
        "frameRates": 60
      },
      {
        "trial_number": 47,
        "trial_index": 297,
        "rt": 729,
        "correct": true,
        "response": "ArrowRight",
        "congruent": false,
        "gazeTowards": false,
        "gazeCondition": "away",
        "faceOnLeft": false,
        "impliedDirection": 180,
        "testDirection": 0,
        "avgFps": 60,
        "minFps": 57,
        "maxFps": 64,
        "totalFrames": 43,
        "frameRates": 60
      },
      {
        "trial_number": 48,
        "trial_index": 302,
        "rt": 887,
        "correct": true,
        "response": "ArrowLeft",
        "congruent": false,
        "gazeTowards": false,
        "gazeCondition": "away",
        "faceOnLeft": true,
        "impliedDirection": 0,
        "testDirection": 180,
        "avgFps": 59,
        "minFps": 30,
        "maxFps": 64,
        "totalFrames": 52,
        "frameRates": 59
      },
      {
        "trial_number": 49,
        "trial_index": 307,
        "rt": 672,
        "correct": true,
        "response": "ArrowRight",
        "congruent": true,
        "gazeTowards": false,
        "gazeCondition": "away",
        "faceOnLeft": true,
        "impliedDirection": 0,
        "testDirection": 0,
        "avgFps": 60,
        "minFps": 57,
        "maxFps": 63,
        "totalFrames": 40,
        "frameRates": 60
      },
      {
        "trial_number": 50,
        "trial_index": 312,
        "rt": 754,
        "correct": true,
        "response": "ArrowLeft",
        "congruent": false,
        "gazeTowards": false,
        "gazeCondition": "away",
        "faceOnLeft": true,
        "impliedDirection": 0,
        "testDirection": 180,
        "avgFps": 59,
        "minFps": 31,
        "maxFps": 63,
        "totalFrames": 45,
        "frameRates": 59
      },
      {
        "trial_number": 51,
        "trial_index": 317,
        "rt": 807,
        "correct": true,
        "response": "ArrowRight",
        "congruent": true,
        "gazeTowards": false,
        "gazeCondition": "away",
        "faceOnLeft": true,
        "impliedDirection": 0,
        "testDirection": 0,
        "avgFps": 59,
        "minFps": 30,
        "maxFps": 63,
        "totalFrames": 48,
        "frameRates": 59
      },
      {
        "trial_number": 52,
        "trial_index": 322,
        "rt": 764,
        "correct": true,
        "response": "ArrowRight",
        "congruent": false,
        "gazeTowards": false,
        "gazeCondition": "away",
        "faceOnLeft": false,
        "impliedDirection": 180,
        "testDirection": 0,
        "avgFps": 59,
        "minFps": 30,
        "maxFps": 63,
        "totalFrames": 45,
        "frameRates": 59
      },
      {
        "trial_number": 53,
        "trial_index": 330,
        "rt": 1009,
        "correct": true,
        "response": "ArrowLeft",
        "congruent": true,
        "gazeTowards": true,
        "gazeCondition": "towards",
        "faceOnLeft": false,
        "impliedDirection": 180,
        "testDirection": 180,
        "avgFps": 60,
        "minFps": 57,
        "maxFps": 64,
        "totalFrames": 60,
        "frameRates": 60
      },
      {
        "trial_number": 54,
        "trial_index": 335,
        "rt": 686,
        "correct": true,
        "response": "ArrowRight",
        "congruent": false,
        "gazeTowards": true,
        "gazeCondition": "towards",
        "faceOnLeft": false,
        "impliedDirection": 180,
        "testDirection": 0,
        "avgFps": 60,
        "minFps": 57,
        "maxFps": 63,
        "totalFrames": 41,
        "frameRates": 60
      },
      {
        "trial_number": 55,
        "trial_index": 340,
        "rt": 740,
        "correct": true,
        "response": "ArrowRight",
        "congruent": false,
        "gazeTowards": true,
        "gazeCondition": "towards",
        "faceOnLeft": false,
        "impliedDirection": 180,
        "testDirection": 0,
        "avgFps": 59,
        "minFps": 31,
        "maxFps": 64,
        "totalFrames": 44,
        "frameRates": 59
      },
      {
        "trial_number": 56,
        "trial_index": 345,
        "rt": 702,
        "correct": true,
        "response": "ArrowRight",
        "congruent": false,
        "gazeTowards": false,
        "gazeCondition": "away",
        "faceOnLeft": false,
        "impliedDirection": 180,
        "testDirection": 0,
        "avgFps": 60,
        "minFps": 57,
        "maxFps": 63,
        "totalFrames": 42,
        "frameRates": 60
      },
      {
        "trial_number": 57,
        "trial_index": 353,
        "rt": 912,
        "correct": true,
        "response": "ArrowLeft",
        "congruent": true,
        "gazeTowards": false,
        "gazeCondition": "away",
        "faceOnLeft": false,
        "impliedDirection": 180,
        "testDirection": 180,
        "avgFps": 59,
        "minFps": 30,
        "maxFps": 64,
        "totalFrames": 54,
        "frameRates": 59
      },
      {
        "trial_number": 58,
        "trial_index": 358,
        "rt": 1159,
        "correct": true,
        "response": "ArrowRight",
        "congruent": true,
        "gazeTowards": true,
        "gazeCondition": "towards",
        "faceOnLeft": true,
        "impliedDirection": 0,
        "testDirection": 0,
        "avgFps": 59,
        "minFps": 30,
        "maxFps": 64,
        "totalFrames": 69,
        "frameRates": 59
      },
      {
        "trial_number": 59,
        "trial_index": 363,
        "rt": 682,
        "correct": true,
        "response": "ArrowRight",
        "congruent": true,
        "gazeTowards": true,
        "gazeCondition": "towards",
        "faceOnLeft": true,
        "impliedDirection": 0,
        "testDirection": 0,
        "avgFps": 59,
        "minFps": 30,
        "maxFps": 64,
        "totalFrames": 40,
        "frameRates": 59
      },
      {
        "trial_number": 60,
        "trial_index": 369,
        "rt": 964,
        "correct": true,
        "response": "ArrowLeft",
        "congruent": true,
        "gazeTowards": false,
        "gazeCondition": "away",
        "faceOnLeft": false,
        "impliedDirection": 180,
        "testDirection": 180,
        "avgFps": 60,
        "minFps": 57,
        "maxFps": 64,
        "totalFrames": 57,
        "frameRates": 60
      },
      {
        "trial_number": 61,
        "trial_index": 374,
        "rt": 734,
        "correct": true,
        "response": "ArrowLeft",
        "congruent": true,
        "gazeTowards": true,
        "gazeCondition": "towards",
        "faceOnLeft": false,
        "impliedDirection": 180,
        "testDirection": 180,
        "avgFps": 60,
        "minFps": 57,
        "maxFps": 64,
        "totalFrames": 44,
        "frameRates": 60
      },
      {
        "trial_number": 62,
        "trial_index": 379,
        "rt": 732,
        "correct": true,
        "response": "ArrowRight",
        "congruent": true,
        "gazeTowards": false,
        "gazeCondition": "away",
        "faceOnLeft": true,
        "impliedDirection": 0,
        "testDirection": 0,
        "avgFps": 60,
        "minFps": 56,
        "maxFps": 64,
        "totalFrames": 43,
        "frameRates": 60
      },
      {
        "trial_number": 63,
        "trial_index": 384,
        "rt": 622,
        "correct": true,
        "response": "ArrowLeft",
        "congruent": true,
        "gazeTowards": false,
        "gazeCondition": "away",
        "faceOnLeft": false,
        "impliedDirection": 180,
        "testDirection": 180,
        "avgFps": 58,
        "minFps": 30,
        "maxFps": 63,
        "totalFrames": 37,
        "frameRates": 58
      },
      {
        "trial_number": 64,
        "trial_index": 389,
        "rt": 707,
        "correct": true,
        "response": "ArrowLeft",
        "congruent": false,
        "gazeTowards": true,
        "gazeCondition": "towards",
        "faceOnLeft": true,
        "impliedDirection": 0,
        "testDirection": 180,
        "avgFps": 60,
        "minFps": 56,
        "maxFps": 64,
        "totalFrames": 42,
        "frameRates": 60
      },
      {
        "trial_number": 65,
        "trial_index": 394,
        "rt": 744,
        "correct": true,
        "response": "ArrowLeft",
        "congruent": false,
        "gazeTowards": true,
        "gazeCondition": "towards",
        "faceOnLeft": true,
        "impliedDirection": 0,
        "testDirection": 180,
        "avgFps": 60,
        "minFps": 57,
        "maxFps": 63,
        "totalFrames": 44,
        "frameRates": 60
      },
      {
        "trial_number": 66,
        "trial_index": 399,
        "rt": 667,
        "correct": true,
        "response": "ArrowRight",
        "congruent": false,
        "gazeTowards": true,
        "gazeCondition": "towards",
        "faceOnLeft": false,
        "impliedDirection": 180,
        "testDirection": 0,
        "avgFps": 58,
        "minFps": 30,
        "maxFps": 63,
        "totalFrames": 39,
        "frameRates": 58
      },
      {
        "trial_number": 67,
        "trial_index": 404,
        "rt": 663,
        "correct": true,
        "response": "ArrowRight",
        "congruent": true,
        "gazeTowards": true,
        "gazeCondition": "towards",
        "faceOnLeft": true,
        "impliedDirection": 0,
        "testDirection": 0,
        "avgFps": 60,
        "minFps": 57,
        "maxFps": 63,
        "totalFrames": 39,
        "frameRates": 60
      },
      {
        "trial_number": 68,
        "trial_index": 409,
        "rt": 595,
        "correct": true,
        "response": "ArrowLeft",
        "congruent": false,
        "gazeTowards": true,
        "gazeCondition": "towards",
        "faceOnLeft": true,
        "impliedDirection": 0,
        "testDirection": 180,
        "avgFps": 60,
        "minFps": 57,
        "maxFps": 64,
        "totalFrames": 35,
        "frameRates": 60
      },
      {
        "trial_number": 69,
        "trial_index": 414,
        "rt": 728,
        "correct": true,
        "response": "ArrowLeft",
        "congruent": false,
        "gazeTowards": false,
        "gazeCondition": "away",
        "faceOnLeft": true,
        "impliedDirection": 0,
        "testDirection": 180,
        "avgFps": 59,
        "minFps": 30,
        "maxFps": 64,
        "totalFrames": 43,
        "frameRates": 59
      },
      {
        "trial_number": 70,
        "trial_index": 419,
        "rt": 785,
        "correct": true,
        "response": "ArrowLeft",
        "congruent": true,
        "gazeTowards": true,
        "gazeCondition": "towards",
        "faceOnLeft": false,
        "impliedDirection": 180,
        "testDirection": 180,
        "avgFps": 60,
        "minFps": 58,
        "maxFps": 64,
        "totalFrames": 47,
        "frameRates": 60
      },
      {
        "trial_number": 71,
        "trial_index": 424,
        "rt": 644,
        "correct": true,
        "response": "ArrowLeft",
        "congruent": false,
        "gazeTowards": true,
        "gazeCondition": "towards",
        "faceOnLeft": true,
        "impliedDirection": 0,
        "testDirection": 180,
        "avgFps": 58,
        "minFps": 30,
        "maxFps": 62,
        "totalFrames": 38,
        "frameRates": 58
      },
      {
        "trial_number": 72,
        "trial_index": 429,
        "rt": 670,
        "correct": true,
        "response": "ArrowLeft",
        "congruent": false,
        "gazeTowards": true,
        "gazeCondition": "towards",
        "faceOnLeft": true,
        "impliedDirection": 0,
        "testDirection": 180,
        "avgFps": 60,
        "minFps": 57,
        "maxFps": 64,
        "totalFrames": 40,
        "frameRates": 60
      },
      {
        "trial_number": 73,
        "trial_index": 434,
        "rt": 683,
        "correct": true,
        "response": "ArrowRight",
        "congruent": false,
        "gazeTowards": true,
        "gazeCondition": "towards",
        "faceOnLeft": false,
        "impliedDirection": 180,
        "testDirection": 0,
        "avgFps": 60,
        "minFps": 56,
        "maxFps": 65,
        "totalFrames": 41,
        "frameRates": 60
      },
      {
        "trial_number": 74,
        "trial_index": 439,
        "rt": 654,
        "correct": true,
        "response": "ArrowRight",
        "congruent": true,
        "gazeTowards": false,
        "gazeCondition": "away",
        "faceOnLeft": true,
        "impliedDirection": 0,
        "testDirection": 0,
        "avgFps": 60,
        "minFps": 57,
        "maxFps": 63,
        "totalFrames": 39,
        "frameRates": 60
      },
      {
        "trial_number": 75,
        "trial_index": 444,
        "rt": 696,
        "correct": true,
        "response": "ArrowRight",
        "congruent": true,
        "gazeTowards": true,
        "gazeCondition": "towards",
        "faceOnLeft": true,
        "impliedDirection": 0,
        "testDirection": 0,
        "avgFps": 60,
        "minFps": 58,
        "maxFps": 62,
        "totalFrames": 42,
        "frameRates": 60
      },
      {
        "trial_number": 76,
        "trial_index": 449,
        "rt": 665,
        "correct": true,
        "response": "ArrowLeft",
        "congruent": false,
        "gazeTowards": true,
        "gazeCondition": "towards",
        "faceOnLeft": true,
        "impliedDirection": 0,
        "testDirection": 180,
        "avgFps": 59,
        "minFps": 31,
        "maxFps": 62,
        "totalFrames": 39,
        "frameRates": 59
      },
      {
        "trial_number": 77,
        "trial_index": 454,
        "rt": 638,
        "correct": true,
        "response": "ArrowLeft",
        "congruent": true,
        "gazeTowards": true,
        "gazeCondition": "towards",
        "faceOnLeft": false,
        "impliedDirection": 180,
        "testDirection": 180,
        "avgFps": 60,
        "minFps": 57,
        "maxFps": 64,
        "totalFrames": 38,
        "frameRates": 60
      },
      {
        "trial_number": 78,
        "trial_index": 459,
        "rt": 769,
        "correct": true,
        "response": "ArrowLeft",
        "congruent": true,
        "gazeTowards": false,
        "gazeCondition": "away",
        "faceOnLeft": false,
        "impliedDirection": 180,
        "testDirection": 180,
        "avgFps": 60,
        "minFps": 56,
        "maxFps": 64,
        "totalFrames": 46,
        "frameRates": 60
      },
      {
        "trial_number": 79,
        "trial_index": 464,
        "rt": 738,
        "correct": true,
        "response": "ArrowRight",
        "congruent": true,
        "gazeTowards": true,
        "gazeCondition": "towards",
        "faceOnLeft": true,
        "impliedDirection": 0,
        "testDirection": 0,
        "avgFps": 60,
        "minFps": 57,
        "maxFps": 63,
        "totalFrames": 44,
        "frameRates": 60
      },
      {
        "trial_number": 80,
        "trial_index": 469,
        "rt": 613,
        "correct": true,
        "response": "ArrowRight",
        "congruent": false,
        "gazeTowards": false,
        "gazeCondition": "away",
        "faceOnLeft": false,
        "impliedDirection": 180,
        "testDirection": 0,
        "avgFps": 58,
        "minFps": 30,
        "maxFps": 63,
        "totalFrames": 36,
        "frameRates": 58
      },
      {
        "trial_number": 81,
        "trial_index": 474,
        "rt": 695,
        "correct": true,
        "response": "ArrowRight",
        "congruent": true,
        "gazeTowards": true,
        "gazeCondition": "towards",
        "faceOnLeft": true,
        "impliedDirection": 0,
        "testDirection": 0,
        "avgFps": 58,
        "minFps": 30,
        "maxFps": 63,
        "totalFrames": 41,
        "frameRates": 58
      },
      {
        "trial_number": 82,
        "trial_index": 479,
        "rt": 677,
        "correct": true,
        "response": "ArrowRight",
        "congruent": false,
        "gazeTowards": true,
        "gazeCondition": "towards",
        "faceOnLeft": false,
        "impliedDirection": 180,
        "testDirection": 0,
        "avgFps": 60,
        "minFps": 56,
        "maxFps": 64,
        "totalFrames": 40,
        "frameRates": 60
      },
      {
        "trial_number": 83,
        "trial_index": 487,
        "rt": 849,
        "correct": true,
        "response": "ArrowRight",
        "congruent": false,
        "gazeTowards": true,
        "gazeCondition": "towards",
        "faceOnLeft": false,
        "impliedDirection": 180,
        "testDirection": 0,
        "avgFps": 60,
        "minFps": 57,
        "maxFps": 63,
        "totalFrames": 51,
        "frameRates": 60
      },
      {
        "trial_number": 84,
        "trial_index": 492,
        "rt": 667,
        "correct": true,
        "response": "ArrowLeft",
        "congruent": false,
        "gazeTowards": true,
        "gazeCondition": "towards",
        "faceOnLeft": true,
        "impliedDirection": 0,
        "testDirection": 180,
        "avgFps": 58,
        "minFps": 30,
        "maxFps": 63,
        "totalFrames": 39,
        "frameRates": 58
      },
      {
        "trial_number": 85,
        "trial_index": 497,
        "rt": 647,
        "correct": true,
        "response": "ArrowRight",
        "congruent": true,
        "gazeTowards": false,
        "gazeCondition": "away",
        "faceOnLeft": true,
        "impliedDirection": 0,
        "testDirection": 0,
        "avgFps": 60,
        "minFps": 59,
        "maxFps": 61,
        "totalFrames": 38,
        "frameRates": 60
      },
      {
        "trial_number": 86,
        "trial_index": 502,
        "rt": 807,
        "correct": true,
        "response": "ArrowLeft",
        "congruent": false,
        "gazeTowards": false,
        "gazeCondition": "away",
        "faceOnLeft": true,
        "impliedDirection": 0,
        "testDirection": 180,
        "avgFps": 59,
        "minFps": 30,
        "maxFps": 63,
        "totalFrames": 48,
        "frameRates": 59
      },
      {
        "trial_number": 87,
        "trial_index": 507,
        "rt": 691,
        "correct": true,
        "response": "ArrowRight",
        "congruent": false,
        "gazeTowards": true,
        "gazeCondition": "towards",
        "faceOnLeft": false,
        "impliedDirection": 180,
        "testDirection": 0,
        "avgFps": 60,
        "minFps": 56,
        "maxFps": 64,
        "totalFrames": 41,
        "frameRates": 60
      },
      {
        "trial_number": 88,
        "trial_index": 515,
        "rt": 828,
        "correct": true,
        "response": "ArrowRight",
        "congruent": true,
        "gazeTowards": true,
        "gazeCondition": "towards",
        "faceOnLeft": true,
        "impliedDirection": 0,
        "testDirection": 0,
        "avgFps": 59,
        "minFps": 30,
        "maxFps": 64,
        "totalFrames": 49,
        "frameRates": 59
      },
      {
        "trial_number": 89,
        "trial_index": 520,
        "rt": 604,
        "correct": true,
        "response": "ArrowRight",
        "congruent": false,
        "gazeTowards": true,
        "gazeCondition": "towards",
        "faceOnLeft": false,
        "impliedDirection": 180,
        "testDirection": 0,
        "avgFps": 60,
        "minFps": 58,
        "maxFps": 63,
        "totalFrames": 36,
        "frameRates": 60
      },
      {
        "trial_number": 90,
        "trial_index": 525,
        "rt": 621,
        "correct": true,
        "response": "ArrowRight",
        "congruent": false,
        "gazeTowards": false,
        "gazeCondition": "away",
        "faceOnLeft": false,
        "impliedDirection": 180,
        "testDirection": 0,
        "avgFps": 58,
        "minFps": 31,
        "maxFps": 64,
        "totalFrames": 36,
        "frameRates": 58
      },
      {
        "trial_number": 91,
        "trial_index": 534,
        "rt": 884,
        "correct": true,
        "response": "ArrowLeft",
        "congruent": false,
        "gazeTowards": false,
        "gazeCondition": "away",
        "faceOnLeft": true,
        "impliedDirection": 0,
        "testDirection": 180,
        "avgFps": 59,
        "minFps": 30,
        "maxFps": 63,
        "totalFrames": 52,
        "frameRates": 59
      },
      {
        "trial_number": 92,
        "trial_index": 539,
        "rt": 660,
        "correct": true,
        "response": "ArrowLeft",
        "congruent": false,
        "gazeTowards": false,
        "gazeCondition": "away",
        "faceOnLeft": true,
        "impliedDirection": 0,
        "testDirection": 180,
        "avgFps": 60,
        "minFps": 56,
        "maxFps": 64,
        "totalFrames": 39,
        "frameRates": 60
      },
      {
        "trial_number": 93,
        "trial_index": 544,
        "rt": 582,
        "correct": true,
        "response": "ArrowRight",
        "congruent": false,
        "gazeTowards": false,
        "gazeCondition": "away",
        "faceOnLeft": false,
        "impliedDirection": 180,
        "testDirection": 0,
        "avgFps": 58,
        "minFps": 30,
        "maxFps": 64,
        "totalFrames": 34,
        "frameRates": 58
      },
      {
        "trial_number": 94,
        "trial_index": 549,
        "rt": 570,
        "correct": true,
        "response": "ArrowLeft",
        "congruent": true,
        "gazeTowards": false,
        "gazeCondition": "away",
        "faceOnLeft": false,
        "impliedDirection": 180,
        "testDirection": 180,
        "avgFps": 60,
        "minFps": 57,
        "maxFps": 64,
        "totalFrames": 34,
        "frameRates": 60
      },
      {
        "trial_number": 95,
        "trial_index": 554,
        "rt": 591,
        "correct": true,
        "response": "ArrowLeft",
        "congruent": true,
        "gazeTowards": false,
        "gazeCondition": "away",
        "faceOnLeft": false,
        "impliedDirection": 180,
        "testDirection": 180,
        "avgFps": 58,
        "minFps": 30,
        "maxFps": 64,
        "totalFrames": 35,
        "frameRates": 58
      },
      {
        "trial_number": 96,
        "trial_index": 559,
        "rt": 687,
        "correct": true,
        "response": "ArrowLeft",
        "congruent": false,
        "gazeTowards": true,
        "gazeCondition": "towards",
        "faceOnLeft": true,
        "impliedDirection": 0,
        "testDirection": 180,
        "avgFps": 60,
        "minFps": 58,
        "maxFps": 63,
        "totalFrames": 41,
        "frameRates": 60
      },
      {
        "trial_number": 97,
        "trial_index": 564,
        "rt": 574,
        "correct": true,
        "response": "ArrowLeft",
        "congruent": true,
        "gazeTowards": false,
        "gazeCondition": "away",
        "faceOnLeft": false,
        "impliedDirection": 180,
        "testDirection": 180,
        "avgFps": 58,
        "minFps": 31,
        "maxFps": 63,
        "totalFrames": 34,
        "frameRates": 58
      },
      {
        "trial_number": 98,
        "trial_index": 569,
        "rt": 753,
        "correct": true,
        "response": "ArrowLeft",
        "congruent": true,
        "gazeTowards": false,
        "gazeCondition": "away",
        "faceOnLeft": false,
        "impliedDirection": 180,
        "testDirection": 180,
        "avgFps": 60,
        "minFps": 56,
        "maxFps": 64,
        "totalFrames": 45,
        "frameRates": 60
      },
      {
        "trial_number": 99,
        "trial_index": 574,
        "rt": 772,
        "correct": true,
        "response": "ArrowLeft",
        "congruent": false,
        "gazeTowards": true,
        "gazeCondition": "towards",
        "faceOnLeft": true,
        "impliedDirection": 0,
        "testDirection": 180,
        "avgFps": 60,
        "minFps": 58,
        "maxFps": 63,
        "totalFrames": 46,
        "frameRates": 60
      },
      {
        "trial_number": 100,
        "trial_index": 579,
        "rt": 944,
        "correct": true,
        "response": "ArrowRight",
        "congruent": false,
        "gazeTowards": false,
        "gazeCondition": "away",
        "faceOnLeft": false,
        "impliedDirection": 180,
        "testDirection": 0,
        "avgFps": 59,
        "minFps": 30,
        "maxFps": 63,
        "totalFrames": 56,
        "frameRates": 59
      },
      {
        "trial_number": 101,
        "trial_index": 584,
        "rt": 689,
        "correct": true,
        "response": "ArrowRight",
        "congruent": true,
        "gazeTowards": true,
        "gazeCondition": "towards",
        "faceOnLeft": true,
        "impliedDirection": 0,
        "testDirection": 0,
        "avgFps": 60,
        "minFps": 58,
        "maxFps": 63,
        "totalFrames": 41,
        "frameRates": 60
      },
      {
        "trial_number": 102,
        "trial_index": 589,
        "rt": 624,
        "correct": true,
        "response": "ArrowRight",
        "congruent": false,
        "gazeTowards": false,
        "gazeCondition": "away",
        "faceOnLeft": false,
        "impliedDirection": 180,
        "testDirection": 0,
        "avgFps": 60,
        "minFps": 58,
        "maxFps": 63,
        "totalFrames": 37,
        "frameRates": 60
      },
      {
        "trial_number": 103,
        "trial_index": 594,
        "rt": 668,
        "correct": true,
        "response": "ArrowLeft",
        "congruent": true,
        "gazeTowards": true,
        "gazeCondition": "towards",
        "faceOnLeft": false,
        "impliedDirection": 180,
        "testDirection": 180,
        "avgFps": 60,
        "minFps": 57,
        "maxFps": 64,
        "totalFrames": 40,
        "frameRates": 60
      },
      {
        "trial_number": 104,
        "trial_index": 599,
        "rt": 679,
        "correct": true,
        "response": "ArrowLeft",
        "congruent": true,
        "gazeTowards": true,
        "gazeCondition": "towards",
        "faceOnLeft": false,
        "impliedDirection": 180,
        "testDirection": 180,
        "avgFps": 59,
        "minFps": 31,
        "maxFps": 65,
        "totalFrames": 40,
        "frameRates": 59
      },
      {
        "trial_number": 105,
        "trial_index": 604,
        "rt": 687,
        "correct": true,
        "response": "ArrowLeft",
        "congruent": true,
        "gazeTowards": false,
        "gazeCondition": "away",
        "faceOnLeft": false,
        "impliedDirection": 180,
        "testDirection": 180,
        "avgFps": 59,
        "minFps": 30,
        "maxFps": 63,
        "totalFrames": 40,
        "frameRates": 59
      },
      {
        "trial_number": 106,
        "trial_index": 609,
        "rt": 640,
        "correct": true,
        "response": "ArrowRight",
        "congruent": false,
        "gazeTowards": true,
        "gazeCondition": "towards",
        "faceOnLeft": false,
        "impliedDirection": 180,
        "testDirection": 0,
        "avgFps": 59,
        "minFps": 30,
        "maxFps": 64,
        "totalFrames": 38,
        "frameRates": 59
      },
      {
        "trial_number": 107,
        "trial_index": 617,
        "rt": 863,
        "correct": true,
        "response": "ArrowRight",
        "congruent": false,
        "gazeTowards": false,
        "gazeCondition": "away",
        "faceOnLeft": false,
        "impliedDirection": 180,
        "testDirection": 0,
        "avgFps": 59,
        "minFps": 30,
        "maxFps": 63,
        "totalFrames": 51,
        "frameRates": 59
      },
      {
        "trial_number": 108,
        "trial_index": 622,
        "rt": 778,
        "correct": true,
        "response": "ArrowRight",
        "congruent": false,
        "gazeTowards": true,
        "gazeCondition": "towards",
        "faceOnLeft": false,
        "impliedDirection": 180,
        "testDirection": 0,
        "avgFps": 59,
        "minFps": 31,
        "maxFps": 64,
        "totalFrames": 46,
        "frameRates": 59
      },
      {
        "trial_number": 109,
        "trial_index": 627,
        "rt": 633,
        "correct": true,
        "response": "ArrowRight",
        "congruent": false,
        "gazeTowards": true,
        "gazeCondition": "towards",
        "faceOnLeft": false,
        "impliedDirection": 180,
        "testDirection": 0,
        "avgFps": 58,
        "minFps": 30,
        "maxFps": 64,
        "totalFrames": 37,
        "frameRates": 58
      },
      {
        "trial_number": 110,
        "trial_index": 632,
        "rt": 557,
        "correct": true,
        "response": "ArrowRight",
        "congruent": false,
        "gazeTowards": true,
        "gazeCondition": "towards",
        "faceOnLeft": false,
        "impliedDirection": 180,
        "testDirection": 0,
        "avgFps": 60,
        "minFps": 57,
        "maxFps": 63,
        "totalFrames": 33,
        "frameRates": 60
      },
      {
        "trial_number": 111,
        "trial_index": 637,
        "rt": 610,
        "correct": true,
        "response": "ArrowRight",
        "congruent": true,
        "gazeTowards": false,
        "gazeCondition": "away",
        "faceOnLeft": true,
        "impliedDirection": 0,
        "testDirection": 0,
        "avgFps": 60,
        "minFps": 57,
        "maxFps": 63,
        "totalFrames": 36,
        "frameRates": 60
      },
      {
        "trial_number": 112,
        "trial_index": 645,
        "rt": 547,
        "correct": true,
        "response": "ArrowRight",
        "congruent": true,
        "gazeTowards": true,
        "gazeCondition": "towards",
        "faceOnLeft": true,
        "impliedDirection": 0,
        "testDirection": 0,
        "avgFps": 58,
        "minFps": 30,
        "maxFps": 64,
        "totalFrames": 32,
        "frameRates": 58
      },
      {
        "trial_number": 113,
        "trial_index": 650,
        "rt": 808,
        "correct": true,
        "response": "ArrowLeft",
        "congruent": true,
        "gazeTowards": true,
        "gazeCondition": "towards",
        "faceOnLeft": false,
        "impliedDirection": 180,
        "testDirection": 180,
        "avgFps": 59,
        "minFps": 30,
        "maxFps": 64,
        "totalFrames": 48,
        "frameRates": 59
      },
      {
        "trial_number": 114,
        "trial_index": 655,
        "rt": 676,
        "correct": true,
        "response": "ArrowRight",
        "congruent": true,
        "gazeTowards": true,
        "gazeCondition": "towards",
        "faceOnLeft": true,
        "impliedDirection": 0,
        "testDirection": 0,
        "avgFps": 60,
        "minFps": 58,
        "maxFps": 63,
        "totalFrames": 40,
        "frameRates": 60
      },
      {
        "trial_number": 115,
        "trial_index": 660,
        "rt": 675,
        "correct": true,
        "response": "ArrowRight",
        "congruent": true,
        "gazeTowards": true,
        "gazeCondition": "towards",
        "faceOnLeft": true,
        "impliedDirection": 0,
        "testDirection": 0,
        "avgFps": 60,
        "minFps": 56,
        "maxFps": 64,
        "totalFrames": 40,
        "frameRates": 60
      },
      {
        "trial_number": 116,
        "trial_index": 665,
        "rt": 638,
        "correct": true,
        "response": "ArrowRight",
        "congruent": false,
        "gazeTowards": false,
        "gazeCondition": "away",
        "faceOnLeft": false,
        "impliedDirection": 180,
        "testDirection": 0,
        "avgFps": 60,
        "minFps": 56,
        "maxFps": 65,
        "totalFrames": 38,
        "frameRates": 60
      },
      {
        "trial_number": 117,
        "trial_index": 673,
        "rt": 700,
        "correct": true,
        "response": "ArrowRight",
        "congruent": true,
        "gazeTowards": true,
        "gazeCondition": "towards",
        "faceOnLeft": true,
        "impliedDirection": 0,
        "testDirection": 0,
        "avgFps": 60,
        "minFps": 56,
        "maxFps": 64,
        "totalFrames": 42,
        "frameRates": 60
      },
      {
        "trial_number": 118,
        "trial_index": 678,
        "rt": 714,
        "correct": true,
        "response": "ArrowLeft",
        "congruent": true,
        "gazeTowards": false,
        "gazeCondition": "away",
        "faceOnLeft": false,
        "impliedDirection": 180,
        "testDirection": 180,
        "avgFps": 60,
        "minFps": 57,
        "maxFps": 64,
        "totalFrames": 42,
        "frameRates": 60
      },
      {
        "trial_number": 119,
        "trial_index": 683,
        "rt": 690,
        "correct": true,
        "response": "ArrowRight",
        "congruent": false,
        "gazeTowards": false,
        "gazeCondition": "away",
        "faceOnLeft": false,
        "impliedDirection": 180,
        "testDirection": 0,
        "avgFps": 60,
        "minFps": 58,
        "maxFps": 63,
        "totalFrames": 41,
        "frameRates": 60
      }
    ],
    "catch": {
      "total": 12,
      "correct": 12,
      "accuracy": 100,
      "meanRT": 568,
      "trials": [
        {
          "trial_number": 0,
          "trial_index": 123,
          "rt": 620,
          "correct": true,
          "colorTarget": "face",
          "gazeTowards": true,
          "gazeCondition": "towards",
          "faceOnLeft": false
        },
        {
          "trial_number": 1,
          "trial_index": 151,
          "rt": 577,
          "correct": true,
          "colorTarget": "face",
          "gazeTowards": true,
          "gazeCondition": "towards",
          "faceOnLeft": false
        },
        {
          "trial_number": 2,
          "trial_index": 159,
          "rt": 550,
          "correct": true,
          "colorTarget": "tree",
          "gazeTowards": true,
          "gazeCondition": "towards",
          "faceOnLeft": true
        },
        {
          "trial_number": 3,
          "trial_index": 238,
          "rt": 651,
          "correct": true,
          "colorTarget": "tree",
          "gazeTowards": false,
          "gazeCondition": "away",
          "faceOnLeft": false
        },
        {
          "trial_number": 4,
          "trial_index": 326,
          "rt": 671,
          "correct": true,
          "colorTarget": "tree",
          "gazeTowards": true,
          "gazeCondition": "towards",
          "faceOnLeft": false
        },
        {
          "trial_number": 5,
          "trial_index": 349,
          "rt": 533,
          "correct": true,
          "colorTarget": "tree",
          "gazeTowards": false,
          "gazeCondition": "away",
          "faceOnLeft": false
        },
        {
          "trial_number": 6,
          "trial_index": 483,
          "rt": 615,
          "correct": true,
          "colorTarget": "face",
          "gazeTowards": false,
          "gazeCondition": "away",
          "faceOnLeft": false
        },
        {
          "trial_number": 7,
          "trial_index": 511,
          "rt": 607,
          "correct": true,
          "colorTarget": "tree",
          "gazeTowards": true,
          "gazeCondition": "towards",
          "faceOnLeft": true
        },
        {
          "trial_number": 8,
          "trial_index": 530,
          "rt": 457,
          "correct": true,
          "colorTarget": "tree",
          "gazeTowards": false,
          "gazeCondition": "away",
          "faceOnLeft": true
        },
        {
          "trial_number": 9,
          "trial_index": 613,
          "rt": 539,
          "correct": true,
          "colorTarget": "face",
          "gazeTowards": false,
          "gazeCondition": "away",
          "faceOnLeft": true
        },
        {
          "trial_number": 10,
          "trial_index": 641,
          "rt": 563,
          "correct": true,
          "colorTarget": "face",
          "gazeTowards": false,
          "gazeCondition": "away",
          "faceOnLeft": false
        },
        {
          "trial_number": 11,
          "trial_index": 669,
          "rt": 429,
          "correct": true,
          "colorTarget": "face",
          "gazeTowards": true,
          "gazeCondition": "towards",
          "faceOnLeft": true
        }
      ]
    },
    "practice": {
      "trials": [
        {
          "trial_number": 0,
          "rt": null,
          "correct": false,
          "direction": 180
        },
        {
          "trial_number": 1,
          "rt": 966,
          "correct": true,
          "direction": 0
        },
        {
          "trial_number": 2,
          "rt": 896,
          "correct": true,
          "direction": 0
        },
        {
          "trial_number": 3,
          "rt": 571,
          "correct": true,
          "direction": 180
        },
        {
          "trial_number": 4,
          "rt": 696,
          "correct": true,
          "direction": 180
        },
        {
          "trial_number": 5,
          "rt": 715,
          "correct": true,
          "direction": 180
        },
        {
          "trial_number": 6,
          "rt": 675,
          "correct": true,
          "direction": 0
        },
        {
          "trial_number": 7,
          "rt": 643,
          "correct": true,
          "direction": 180
        },
        {
          "trial_number": 8,
          "rt": 713,
          "correct": true,
          "direction": 180
        },
        {
          "trial_number": 9,
          "rt": 647,
          "correct": true,
          "direction": 0
        }
      ],
      "meanRT": 725,
      "accuracy": 90
    }
  }
}