{
  "experiment": "rdk-face-1",
  "UUID": "30a4ab5f-3e25-4446-8efc-b2f040c00c40",
  "data": {
    "session": {
      "experiment_version": "1.8.6",
      "treatment": "faces_towards_away_catch",
      "file_version": "1.8.6",
      "totalTrials": 120,
      "totalTrialsIncludingCatch": 132,
      "conditions": {
        "gazeTowardsCount": 60,
        "gazeAwayCount": 60,
        "gazeTowardsAccuracy": 85,
        "gazeAwayAccuracy": 88
      },
      "session_group": "default",
      "browserData": {
        "os": "Windows",
        "browser": "Chrome",
        "screenResolution": "1536x864",
        "browserViewport": "1536x864",
        "devicePixelRatio": 1.25,
        "colorDepth": 32,
        "hardwareConcurrency": 16,
        "deviceMemory": 8,
        "gpuRenderer": "ANGLE (Intel, Intel(R) Iris(R) Xe Graphics (0x000046A6) Direct3D11 vs_5_0 ps_5_0, D3D11)",
        "measuredRefreshRateHz": 97
      },
      "attention": {
        "visibilityEvents": []
      },
      "calibration": {
        "monitorWidthCm": 38,
        "viewingDistanceCm": 54,
        "pixelsPerDegree": 50
      },
      "parameters": {
        "coherence": 0.4,
        "apertureDeg": 5,
        "densityDotsPerDeg2": 40,
        "dotDiameterDeg": 0.035,
        "dotSpeedDegPerSec": 3,
        "lifetimeMs": 200,
        "fixationDurationMs": 1500,
        "faceDurationMs": 1500,
        "testDurationMs": 2000,
        "catchResponseMs": 3000
      },
      "prolific": {
        "prolificPid": "669d682efab2137fa356f7ba",
        "studyId": "",
        "sessionId": ""
      },
      "timing": {
        "startTime": "2026-03-06T03:09:58.250Z",
        "endTime": "2026-03-06T03:25:08.332Z",
        "totalElapsedTimeMs": 910082
      }
    },
    "trials": [
      {
        "trial_number": 0,
        "trial_index": 49,
        "rt": 1502,
        "correct": true,
        "response": "ArrowLeft",
        "congruent": true,
        "gazeTowards": false,
        "gazeCondition": "away",
        "faceOnLeft": false,
        "impliedDirection": 180,
        "testDirection": 180,
        "avgFps": 144,
        "minFps": 137,
        "maxFps": 156,
        "totalFrames": 216,
        "frameRates": 144
      },
      {
        "trial_number": 1,
        "trial_index": 54,
        "rt": 1043,
        "correct": true,
        "response": "ArrowRight",
        "congruent": false,
        "gazeTowards": false,
        "gazeCondition": "away",
        "faceOnLeft": false,
        "impliedDirection": 180,
        "testDirection": 0,
        "avgFps": 144,
        "minFps": 135,
        "maxFps": 154,
        "totalFrames": 150,
        "frameRates": 144
      },
      {
        "trial_number": 2,
        "trial_index": 59,
        "rt": 946,
        "correct": true,
        "response": "ArrowLeft",
        "congruent": false,
        "gazeTowards": true,
        "gazeCondition": "towards",
        "faceOnLeft": true,
        "impliedDirection": 0,
        "testDirection": 180,
        "avgFps": 144,
        "minFps": 135,
        "maxFps": 154,
        "totalFrames": 136,
        "frameRates": 144
      },
      {
        "trial_number": 3,
        "trial_index": 64,
        "rt": 873,
        "correct": true,
        "response": "ArrowRight",
        "congruent": false,
        "gazeTowards": true,
        "gazeCondition": "towards",
        "faceOnLeft": false,
        "impliedDirection": 180,
        "testDirection": 0,
        "avgFps": 144,
        "minFps": 137,
        "maxFps": 198,
        "totalFrames": 126,
        "frameRates": 144
      },
      {
        "trial_number": 4,
        "trial_index": 69,
        "rt": 1358,
        "correct": false,
        "response": "ArrowLeft",
        "congruent": false,
        "gazeTowards": true,
        "gazeCondition": "towards",
        "faceOnLeft": false,
        "impliedDirection": 180,
        "testDirection": 0,
        "avgFps": 144,
        "minFps": 135,
        "maxFps": 152,
        "totalFrames": 196,
        "frameRates": 144
      },
      {
        "trial_number": 5,
        "trial_index": 74,
        "rt": 1273,
        "correct": true,
        "response": "ArrowRight",
        "congruent": false,
        "gazeTowards": false,
        "gazeCondition": "away",
        "faceOnLeft": false,
        "impliedDirection": 180,
        "testDirection": 0,
        "avgFps": 144,
        "minFps": 133,
        "maxFps": 152,
        "totalFrames": 183,
        "frameRates": 144
      },
      {
        "trial_number": 6,
        "trial_index": 79,
        "rt": 1251,
        "correct": true,
        "response": "ArrowRight",
        "congruent": true,
        "gazeTowards": false,
        "gazeCondition": "away",
        "faceOnLeft": true,
        "impliedDirection": 0,
        "testDirection": 0,
        "avgFps": 144,
        "minFps": 133,
        "maxFps": 156,
        "totalFrames": 180,
        "frameRates": 144
      },
      {
        "trial_number": 7,
        "trial_index": 84,
        "rt": 1007,
        "correct": true,
        "response": "ArrowLeft",
        "congruent": false,
        "gazeTowards": true,
        "gazeCondition": "towards",
        "faceOnLeft": true,
        "impliedDirection": 0,
        "testDirection": 180,
        "avgFps": 144,
        "minFps": 102,
        "maxFps": 154,
        "totalFrames": 145,
        "frameRates": 144
      },
      {
        "trial_number": 8,
        "trial_index": 89,
        "rt": 893,
        "correct": false,
        "response": "ArrowRight",
        "congruent": false,
        "gazeTowards": true,
        "gazeCondition": "towards",
        "faceOnLeft": true,
        "impliedDirection": 0,
        "testDirection": 180,
        "avgFps": 144,
        "minFps": 135,
        "maxFps": 154,
        "totalFrames": 129,
        "frameRates": 144
      },
      {
        "trial_number": 9,
        "trial_index": 97,
        "rt": 973,
        "correct": true,
        "response": "ArrowLeft",
        "congruent": false,
        "gazeTowards": true,
        "gazeCondition": "towards",
        "faceOnLeft": true,
        "impliedDirection": 0,
        "testDirection": 180,
        "avgFps": 143,
        "minFps": 75,
        "maxFps": 152,
        "totalFrames": 140,
        "frameRates": 143
      },
      {
        "trial_number": 10,
        "trial_index": 102,
        "rt": 1194,
        "correct": false,
        "response": "ArrowRight",
        "congruent": false,
        "gazeTowards": false,
        "gazeCondition": "away",
        "faceOnLeft": true,
        "impliedDirection": 0,
        "testDirection": 180,
        "avgFps": 144,
        "minFps": 137,
        "maxFps": 154,
        "totalFrames": 172,
        "frameRates": 144
      },
      {
        "trial_number": 11,
        "trial_index": 107,
        "rt": 962,
        "correct": false,
        "response": "ArrowLeft",
        "congruent": false,
        "gazeTowards": false,
        "gazeCondition": "away",
        "faceOnLeft": false,
        "impliedDirection": 180,
        "testDirection": 0,
        "avgFps": 144,
        "minFps": 135,
        "maxFps": 187,
        "totalFrames": 138,
        "frameRates": 144
      },
      {
        "trial_number": 12,
        "trial_index": 112,
        "rt": 626,
        "correct": true,
        "response": "ArrowRight",
        "congruent": true,
        "gazeTowards": false,
        "gazeCondition": "away",
        "faceOnLeft": true,
        "impliedDirection": 0,
        "testDirection": 0,
        "avgFps": 144,
        "minFps": 137,
        "maxFps": 154,
        "totalFrames": 90,
        "frameRates": 144
      },
      {
        "trial_number": 13,
        "trial_index": 117,
        "rt": 1119,
        "correct": false,
        "response": "ArrowLeft",
        "congruent": false,
        "gazeTowards": false,
        "gazeCondition": "away",
        "faceOnLeft": false,
        "impliedDirection": 180,
        "testDirection": 0,
        "avgFps": 144,
        "minFps": 137,
        "maxFps": 154,
        "totalFrames": 161,
        "frameRates": 144
      },
      {
        "trial_number": 14,
        "trial_index": 122,
        "rt": 1182,
        "correct": false,
        "response": "ArrowRight",
        "congruent": true,
        "gazeTowards": true,
        "gazeCondition": "towards",
        "faceOnLeft": false,
        "impliedDirection": 180,
        "testDirection": 180,
        "avgFps": 144,
        "minFps": 128,
        "maxFps": 175,
        "totalFrames": 170,
        "frameRates": 144
      },
      {
        "trial_number": 15,
        "trial_index": 127,
        "rt": 1190,
        "correct": false,
        "response": "ArrowRight",
        "congruent": false,
        "gazeTowards": false,
        "gazeCondition": "away",
        "faceOnLeft": true,
        "impliedDirection": 0,
        "testDirection": 180,
        "avgFps": 143,
        "minFps": 68,
        "maxFps": 172,
        "totalFrames": 170,
        "frameRates": 143
      },
      {
        "trial_number": 16,
        "trial_index": 132,
        "rt": 974,
        "correct": true,
        "response": "ArrowLeft",
        "congruent": false,
        "gazeTowards": true,
        "gazeCondition": "towards",
        "faceOnLeft": true,
        "impliedDirection": 0,
        "testDirection": 180,
        "avgFps": 144,
        "minFps": 137,
        "maxFps": 154,
        "totalFrames": 140,
        "frameRates": 144
      },
      {
        "trial_number": 17,
        "trial_index": 140,
        "rt": 1339,
        "correct": true,
        "response": "ArrowRight",
        "congruent": true,
        "gazeTowards": true,
        "gazeCondition": "towards",
        "faceOnLeft": true,
        "impliedDirection": 0,
        "testDirection": 0,
        "avgFps": 144,
        "minFps": 135,
        "maxFps": 152,
        "totalFrames": 193,
        "frameRates": 144
      },
      {
        "trial_number": 18,
        "trial_index": 145,
        "rt": 1620,
        "correct": false,
        "response": "ArrowRight",
        "congruent": false,
        "gazeTowards": false,
        "gazeCondition": "away",
        "faceOnLeft": true,
        "impliedDirection": 0,
        "testDirection": 180,
        "avgFps": 144,
        "minFps": 132,
        "maxFps": 152,
        "totalFrames": 232,
        "frameRates": 144
      },
      {
        "trial_number": 19,
        "trial_index": 150,
        "rt": 1302,
        "correct": false,
        "response": "ArrowRight",
        "congruent": true,
        "gazeTowards": true,
        "gazeCondition": "towards",
        "faceOnLeft": false,
        "impliedDirection": 180,
        "testDirection": 180,
        "avgFps": 144,
        "minFps": 137,
        "maxFps": 154,
        "totalFrames": 188,
        "frameRates": 144
      },
      {
        "trial_number": 20,
        "trial_index": 155,
        "rt": 1216,
        "correct": true,
        "response": "ArrowRight",
        "congruent": false,
        "gazeTowards": false,
        "gazeCondition": "away",
        "faceOnLeft": false,
        "impliedDirection": 180,
        "testDirection": 0,
        "avgFps": 144,
        "minFps": 135,
        "maxFps": 156,
        "totalFrames": 176,
        "frameRates": 144
      },
      {
        "trial_number": 21,
        "trial_index": 160,
        "rt": 1646,
        "correct": true,
        "response": "ArrowRight",
        "congruent": true,
        "gazeTowards": false,
        "gazeCondition": "away",
        "faceOnLeft": true,
        "impliedDirection": 0,
        "testDirection": 0,
        "avgFps": 144,
        "minFps": 135,
        "maxFps": 193,
        "totalFrames": 237,
        "frameRates": 144
      },
      {
        "trial_number": 22,
        "trial_index": 165,
        "rt": 1495,
        "correct": true,
        "response": "ArrowRight",
        "congruent": false,
        "gazeTowards": false,
        "gazeCondition": "away",
        "faceOnLeft": false,
        "impliedDirection": 180,
        "testDirection": 0,
        "avgFps": 144,
        "minFps": 135,
        "maxFps": 156,
        "totalFrames": 215,
        "frameRates": 144
      },
      {
        "trial_number": 23,
        "trial_index": 170,
        "rt": 1254,
        "correct": true,
        "response": "ArrowLeft",
        "congruent": true,
        "gazeTowards": false,
        "gazeCondition": "away",
        "faceOnLeft": false,
        "impliedDirection": 180,
        "testDirection": 180,
        "avgFps": 144,
        "minFps": 135,
        "maxFps": 156,
        "totalFrames": 180,
        "frameRates": 144
      },
      {
        "trial_number": 24,
        "trial_index": 175,
        "rt": 1671,
        "correct": false,
        "response": "ArrowLeft",
        "congruent": false,
        "gazeTowards": false,
        "gazeCondition": "away",
        "faceOnLeft": false,
        "impliedDirection": 180,
        "testDirection": 0,
        "avgFps": 144,
        "minFps": 135,
        "maxFps": 154,
        "totalFrames": 241,
        "frameRates": 144
      },
      {
        "trial_number": 25,
        "trial_index": 180,
        "rt": 946,
        "correct": true,
        "response": "ArrowRight",
        "congruent": true,
        "gazeTowards": false,
        "gazeCondition": "away",
        "faceOnLeft": true,
        "impliedDirection": 0,
        "testDirection": 0,
        "avgFps": 144,
        "minFps": 135,
        "maxFps": 224,
        "totalFrames": 136,
        "frameRates": 144
      },
      {
        "trial_number": 26,
        "trial_index": 185,
        "rt": 1389,
        "correct": true,
        "response": "ArrowLeft",
        "congruent": false,
        "gazeTowards": true,
        "gazeCondition": "towards",
        "faceOnLeft": true,
        "impliedDirection": 0,
        "testDirection": 180,
        "avgFps": 144,
        "minFps": 100,
        "maxFps": 156,
        "totalFrames": 199,
        "frameRates": 144
      },
      {
        "trial_number": 27,
        "trial_index": 196,
        "rt": 1416,
        "correct": false,
        "response": "ArrowRight",
        "congruent": true,
        "gazeTowards": true,
        "gazeCondition": "towards",
        "faceOnLeft": false,
        "impliedDirection": 180,
        "testDirection": 180,
        "avgFps": 144,
        "minFps": 135,
        "maxFps": 156,
        "totalFrames": 204,
        "frameRates": 144
      },
      {
        "trial_number": 28,
        "trial_index": 201,
        "rt": 1373,
        "correct": false,
        "response": "ArrowRight",
        "congruent": false,
        "gazeTowards": false,
        "gazeCondition": "away",
        "faceOnLeft": true,
        "impliedDirection": 0,
        "testDirection": 180,
        "avgFps": 144,
        "minFps": 135,
        "maxFps": 156,
        "totalFrames": 198,
        "frameRates": 144
      },
      {
        "trial_number": 29,
        "trial_index": 207,
        "rt": 1585,
        "correct": false,
        "response": "ArrowRight",
        "congruent": true,
        "gazeTowards": true,
        "gazeCondition": "towards",
        "faceOnLeft": false,
        "impliedDirection": 180,
        "testDirection": 180,
        "avgFps": 144,
        "minFps": 135,
        "maxFps": 154,
        "totalFrames": 229,
        "frameRates": 144
      },
      {
        "trial_number": 30,
        "trial_index": 212,
        "rt": 1119,
        "correct": true,
        "response": "ArrowRight",
        "congruent": true,
        "gazeTowards": false,
        "gazeCondition": "away",
        "faceOnLeft": true,
        "impliedDirection": 0,
        "testDirection": 0,
        "avgFps": 144,
        "minFps": 135,
        "maxFps": 154,
        "totalFrames": 161,
        "frameRates": 144
      },
      {
        "trial_number": 31,
        "trial_index": 217,
        "rt": 1339,
        "correct": true,
        "response": "ArrowRight",
        "congruent": false,
        "gazeTowards": true,
        "gazeCondition": "towards",
        "faceOnLeft": false,
        "impliedDirection": 180,
        "testDirection": 0,
        "avgFps": 144,
        "minFps": 104,
        "maxFps": 152,
        "totalFrames": 192,
        "frameRates": 144
      },
      {
        "trial_number": 32,
        "trial_index": 222,
        "rt": 859,
        "correct": true,
        "response": "ArrowLeft",
        "congruent": false,
        "gazeTowards": true,
        "gazeCondition": "towards",
        "faceOnLeft": true,
        "impliedDirection": 0,
        "testDirection": 180,
        "avgFps": 144,
        "minFps": 135,
        "maxFps": 154,
        "totalFrames": 124,
        "frameRates": 144
      },
      {
        "trial_number": 33,
        "trial_index": 227,
        "rt": 1221,
        "correct": false,
        "response": "ArrowRight",
        "congruent": true,
        "gazeTowards": true,
        "gazeCondition": "towards",
        "faceOnLeft": false,
        "impliedDirection": 180,
        "testDirection": 180,
        "avgFps": 144,
        "minFps": 137,
        "maxFps": 154,
        "totalFrames": 175,
        "frameRates": 144
      },
      {
        "trial_number": 34,
        "trial_index": 232,
        "rt": 928,
        "correct": true,
        "response": "ArrowRight",
        "congruent": true,
        "gazeTowards": true,
        "gazeCondition": "towards",
        "faceOnLeft": true,
        "impliedDirection": 0,
        "testDirection": 0,
        "avgFps": 144,
        "minFps": 135,
        "maxFps": 154,
        "totalFrames": 134,
        "frameRates": 144
      },
      {
        "trial_number": 35,
        "trial_index": 237,
        "rt": 1110,
        "correct": true,
        "response": "ArrowRight",
        "congruent": false,
        "gazeTowards": true,
        "gazeCondition": "towards",
        "faceOnLeft": false,
        "impliedDirection": 180,
        "testDirection": 0,
        "avgFps": 144,
        "minFps": 133,
        "maxFps": 154,
        "totalFrames": 159,
        "frameRates": 144
      },
      {
        "trial_number": 36,
        "trial_index": 242,
        "rt": 997,
        "correct": true,
        "response": "ArrowRight",
        "congruent": false,
        "gazeTowards": true,
        "gazeCondition": "towards",
        "faceOnLeft": false,
        "impliedDirection": 180,
        "testDirection": 0,
        "avgFps": 144,
        "minFps": 135,
        "maxFps": 159,
        "totalFrames": 144,
        "frameRates": 144
      },
      {
        "trial_number": 37,
        "trial_index": 247,
        "rt": 1487,
        "correct": true,
        "response": "ArrowLeft",
        "congruent": false,
        "gazeTowards": false,
        "gazeCondition": "away",
        "faceOnLeft": true,
        "impliedDirection": 0,
        "testDirection": 180,
        "avgFps": 144,
        "minFps": 135,
        "maxFps": 152,
        "totalFrames": 214,
        "frameRates": 144
      },
      {
        "trial_number": 38,
        "trial_index": 252,
        "rt": 1138,
        "correct": true,
        "response": "ArrowRight",
        "congruent": true,
        "gazeTowards": false,
        "gazeCondition": "away",
        "faceOnLeft": true,
        "impliedDirection": 0,
        "testDirection": 0,
        "avgFps": 144,
        "minFps": 137,
        "maxFps": 154,
        "totalFrames": 164,
        "frameRates": 144
      },
      {
        "trial_number": 39,
        "trial_index": 257,
        "rt": 1233,
        "correct": true,
        "response": "ArrowLeft",
        "congruent": false,
        "gazeTowards": false,
        "gazeCondition": "away",
        "faceOnLeft": true,
        "impliedDirection": 0,
        "testDirection": 180,
        "avgFps": 144,
        "minFps": 137,
        "maxFps": 152,
        "totalFrames": 178,
        "frameRates": 144
      },
      {
        "trial_number": 40,
        "trial_index": 262,
        "rt": 734,
        "correct": true,
        "response": "ArrowRight",
        "congruent": true,
        "gazeTowards": false,
        "gazeCondition": "away",
        "faceOnLeft": true,
        "impliedDirection": 0,
        "testDirection": 0,
        "avgFps": 144,
        "minFps": 137,
        "maxFps": 154,
        "totalFrames": 106,
        "frameRates": 144
      },
      {
        "trial_number": 41,
        "trial_index": 267,
        "rt": 1731,
        "correct": true,
        "response": "ArrowRight",
        "congruent": false,
        "gazeTowards": false,
        "gazeCondition": "away",
        "faceOnLeft": false,
        "impliedDirection": 180,
        "testDirection": 0,
        "avgFps": 144,
        "minFps": 137,
        "maxFps": 156,
        "totalFrames": 250,
        "frameRates": 144
      },
      {
        "trial_number": 42,
        "trial_index": 272,
        "rt": 1487,
        "correct": false,
        "response": "ArrowLeft",
        "congruent": true,
        "gazeTowards": true,
        "gazeCondition": "towards",
        "faceOnLeft": true,
        "impliedDirection": 0,
        "testDirection": 0,
        "avgFps": 144,
        "minFps": 133,
        "maxFps": 156,
        "totalFrames": 213,
        "frameRates": 144
      },
      {
        "trial_number": 43,
        "trial_index": 277,
        "rt": 823,
        "correct": true,
        "response": "ArrowLeft",
        "congruent": true,
        "gazeTowards": false,
        "gazeCondition": "away",
        "faceOnLeft": false,
        "impliedDirection": 180,
        "testDirection": 180,
        "avgFps": 145,
        "minFps": 132,
        "maxFps": 176,
        "totalFrames": 118,
        "frameRates": 145
      },
      {
        "trial_number": 44,
        "trial_index": 282,
        "rt": 658,
        "correct": true,
        "response": "ArrowRight",
        "congruent": false,
        "gazeTowards": true,
        "gazeCondition": "towards",
        "faceOnLeft": false,
        "impliedDirection": 180,
        "testDirection": 0,
        "avgFps": 144,
        "minFps": 135,
        "maxFps": 154,
        "totalFrames": 94,
        "frameRates": 144
      },
      {
        "trial_number": 45,
        "trial_index": 287,
        "rt": 936,
        "correct": true,
        "response": "ArrowLeft",
        "congruent": true,
        "gazeTowards": true,
        "gazeCondition": "towards",
        "faceOnLeft": false,
        "impliedDirection": 180,
        "testDirection": 180,
        "avgFps": 144,
        "minFps": 137,
        "maxFps": 156,
        "totalFrames": 135,
        "frameRates": 144
      },
      {
        "trial_number": 46,
        "trial_index": 292,
        "rt": 1195,
        "correct": true,
        "response": "ArrowLeft",
        "congruent": false,
        "gazeTowards": false,
        "gazeCondition": "away",
        "faceOnLeft": true,
        "impliedDirection": 0,
        "testDirection": 180,
        "avgFps": 144,
        "minFps": 135,
        "maxFps": 152,
        "totalFrames": 173,
        "frameRates": 144
      },
      {
        "trial_number": 47,
        "trial_index": 297,
        "rt": 890,
        "correct": true,
        "response": "ArrowLeft",
        "congruent": false,
        "gazeTowards": true,
        "gazeCondition": "towards",
        "faceOnLeft": true,
        "impliedDirection": 0,
        "testDirection": 180,
        "avgFps": 144,
        "minFps": 130,
        "maxFps": 169,
        "totalFrames": 128,
        "frameRates": 144
      },
      {
        "trial_number": 48,
        "trial_index": 302,
        "rt": 835,
        "correct": true,
        "response": "ArrowRight",
        "congruent": true,
        "gazeTowards": true,
        "gazeCondition": "towards",
        "faceOnLeft": true,
        "impliedDirection": 0,
        "testDirection": 0,
        "avgFps": 144,
        "minFps": 137,
        "maxFps": 149,
        "totalFrames": 120,
        "frameRates": 144
      },
      {
        "trial_number": 49,
        "trial_index": 307,
        "rt": 1147,
        "correct": true,
        "response": "ArrowRight",
        "congruent": true,
        "gazeTowards": false,
        "gazeCondition": "away",
        "faceOnLeft": true,
        "impliedDirection": 0,
        "testDirection": 0,
        "avgFps": 144,
        "minFps": 133,
        "maxFps": 154,
        "totalFrames": 165,
        "frameRates": 144
      },
      {
        "trial_number": 50,
        "trial_index": 312,
        "rt": 780,
        "correct": true,
        "response": "ArrowLeft",
        "congruent": true,
        "gazeTowards": true,
        "gazeCondition": "towards",
        "faceOnLeft": false,
        "impliedDirection": 180,
        "testDirection": 180,
        "avgFps": 144,
        "minFps": 97,
        "maxFps": 154,
        "totalFrames": 112,
        "frameRates": 144
      },
      {
        "trial_number": 51,
        "trial_index": 317,
        "rt": 1005,
        "correct": true,
        "response": "ArrowLeft",
        "congruent": true,
        "gazeTowards": true,
        "gazeCondition": "towards",
        "faceOnLeft": false,
        "impliedDirection": 180,
        "testDirection": 180,
        "avgFps": 144,
        "minFps": 130,
        "maxFps": 161,
        "totalFrames": 144,
        "frameRates": 144
      },
      {
        "trial_number": 52,
        "trial_index": 325,
        "rt": 744,
        "correct": true,
        "response": "ArrowRight",
        "congruent": true,
        "gazeTowards": false,
        "gazeCondition": "away",
        "faceOnLeft": true,
        "impliedDirection": 0,
        "testDirection": 0,
        "avgFps": 144,
        "minFps": 135,
        "maxFps": 154,
        "totalFrames": 107,
        "frameRates": 144
      },
      {
        "trial_number": 53,
        "trial_index": 333,
        "rt": 1025,
        "correct": true,
        "response": "ArrowRight",
        "congruent": true,
        "gazeTowards": false,
        "gazeCondition": "away",
        "faceOnLeft": true,
        "impliedDirection": 0,
        "testDirection": 0,
        "avgFps": 144,
        "minFps": 135,
        "maxFps": 154,
        "totalFrames": 147,
        "frameRates": 144
      },
      {
        "trial_number": 54,
        "trial_index": 338,
        "rt": 1748,
        "correct": true,
        "response": "ArrowRight",
        "congruent": false,
        "gazeTowards": false,
        "gazeCondition": "away",
        "faceOnLeft": false,
        "impliedDirection": 180,
        "testDirection": 0,
        "avgFps": 144,
        "minFps": 135,
        "maxFps": 187,
        "totalFrames": 252,
        "frameRates": 144
      },
      {
        "trial_number": 55,
        "trial_index": 343,
        "rt": 1057,
        "correct": true,
        "response": "ArrowLeft",
        "congruent": false,
        "gazeTowards": true,
        "gazeCondition": "towards",
        "faceOnLeft": true,
        "impliedDirection": 0,
        "testDirection": 180,
        "avgFps": 145,
        "minFps": 137,
        "maxFps": 418,
        "totalFrames": 152,
        "frameRates": 145
      },
      {
        "trial_number": 56,
        "trial_index": 351,
        "rt": 1675,
        "correct": true,
        "response": "ArrowRight",
        "congruent": false,
        "gazeTowards": true,
        "gazeCondition": "towards",
        "faceOnLeft": false,
        "impliedDirection": 180,
        "testDirection": 0,
        "avgFps": 144,
        "minFps": 67,
        "maxFps": 179,
        "totalFrames": 241,
        "frameRates": 144
      },
      {
        "trial_number": 57,
        "trial_index": 356,
        "rt": 1283,
        "correct": true,
        "response": "ArrowRight",
        "congruent": false,
        "gazeTowards": true,
        "gazeCondition": "towards",
        "faceOnLeft": false,
        "impliedDirection": 180,
        "testDirection": 0,
        "avgFps": 145,
        "minFps": 133,
        "maxFps": 418,
        "totalFrames": 185,
        "frameRates": 145
      },
      {
        "trial_number": 58,
        "trial_index": 361,
        "rt": 1784,
        "correct": false,
        "response": "ArrowLeft",
        "congruent": true,
        "gazeTowards": true,
        "gazeCondition": "towards",
        "faceOnLeft": true,
        "impliedDirection": 0,
        "testDirection": 0,
        "avgFps": 144,
        "minFps": 106,
        "maxFps": 154,
        "totalFrames": 257,
        "frameRates": 144
      },
      {
        "trial_number": 59,
        "trial_index": 367,
        "rt": 1022,
        "correct": true,
        "response": "ArrowLeft",
        "congruent": true,
        "gazeTowards": true,
        "gazeCondition": "towards",
        "faceOnLeft": false,
        "impliedDirection": 180,
        "testDirection": 180,
        "avgFps": 143,
        "minFps": 75,
        "maxFps": 154,
        "totalFrames": 147,
        "frameRates": 143
      },
      {
        "trial_number": 60,
        "trial_index": 372,
        "rt": 1238,
        "correct": true,
        "response": "ArrowRight",
        "congruent": true,
        "gazeTowards": false,
        "gazeCondition": "away",
        "faceOnLeft": true,
        "impliedDirection": 0,
        "testDirection": 0,
        "avgFps": 144,
        "minFps": 135,
        "maxFps": 154,
        "totalFrames": 179,
        "frameRates": 144
      },
      {
        "trial_number": 61,
        "trial_index": 377,
        "rt": 1196,
        "correct": true,
        "response": "ArrowRight",
        "congruent": false,
        "gazeTowards": false,
        "gazeCondition": "away",
        "faceOnLeft": false,
        "impliedDirection": 180,
        "testDirection": 0,
        "avgFps": 144,
        "minFps": 137,
        "maxFps": 154,
        "totalFrames": 172,
        "frameRates": 144
      },
      {
        "trial_number": 62,
        "trial_index": 382,
        "rt": 1228,
        "correct": true,
        "response": "ArrowRight",
        "congruent": true,
        "gazeTowards": true,
        "gazeCondition": "towards",
        "faceOnLeft": true,
        "impliedDirection": 0,
        "testDirection": 0,
        "avgFps": 144,
        "minFps": 135,
        "maxFps": 154,
        "totalFrames": 177,
        "frameRates": 144
      },
      {
        "trial_number": 63,
        "trial_index": 387,
        "rt": 1262,
        "correct": true,
        "response": "ArrowLeft",
        "congruent": true,
        "gazeTowards": false,
        "gazeCondition": "away",
        "faceOnLeft": false,
        "impliedDirection": 180,
        "testDirection": 180,
        "avgFps": 144,
        "minFps": 137,
        "maxFps": 154,
        "totalFrames": 182,
        "frameRates": 144
      },
      {
        "trial_number": 64,
        "trial_index": 392,
        "rt": 1450,
        "correct": true,
        "response": "ArrowLeft",
        "congruent": false,
        "gazeTowards": false,
        "gazeCondition": "away",
        "faceOnLeft": true,
        "impliedDirection": 0,
        "testDirection": 180,
        "avgFps": 144,
        "minFps": 137,
        "maxFps": 152,
        "totalFrames": 208,
        "frameRates": 144
      },
      {
        "trial_number": 65,
        "trial_index": 397,
        "rt": 1213,
        "correct": true,
        "response": "ArrowRight",
        "congruent": false,
        "gazeTowards": true,
        "gazeCondition": "towards",
        "faceOnLeft": false,
        "impliedDirection": 180,
        "testDirection": 0,
        "avgFps": 144,
        "minFps": 135,
        "maxFps": 152,
        "totalFrames": 174,
        "frameRates": 144
      },
      {
        "trial_number": 66,
        "trial_index": 405,
        "rt": 1246,
        "correct": true,
        "response": "ArrowLeft",
        "congruent": true,
        "gazeTowards": false,
        "gazeCondition": "away",
        "faceOnLeft": false,
        "impliedDirection": 180,
        "testDirection": 180,
        "avgFps": 144,
        "minFps": 135,
        "maxFps": 194,
        "totalFrames": 179,
        "frameRates": 144
      },
      {
        "trial_number": 67,
        "trial_index": 410,
        "rt": 1086,
        "correct": true,
        "response": "ArrowLeft",
        "congruent": true,
        "gazeTowards": false,
        "gazeCondition": "away",
        "faceOnLeft": false,
        "impliedDirection": 180,
        "testDirection": 180,
        "avgFps": 144,
        "minFps": 137,
        "maxFps": 156,
        "totalFrames": 156,
        "frameRates": 144
      },
      {
        "trial_number": 68,
        "trial_index": 415,
        "rt": 1422,
        "correct": true,
        "response": "ArrowLeft",
        "congruent": false,
        "gazeTowards": true,
        "gazeCondition": "towards",
        "faceOnLeft": true,
        "impliedDirection": 0,
        "testDirection": 180,
        "avgFps": 144,
        "minFps": 133,
        "maxFps": 154,
        "totalFrames": 205,
        "frameRates": 144
      },
      {
        "trial_number": 69,
        "trial_index": 423,
        "rt": 1167,
        "correct": true,
        "response": "ArrowRight",
        "congruent": true,
        "gazeTowards": true,
        "gazeCondition": "towards",
        "faceOnLeft": true,
        "impliedDirection": 0,
        "testDirection": 0,
        "avgFps": 144,
        "minFps": 133,
        "maxFps": 154,
        "totalFrames": 168,
        "frameRates": 144
      },
      {
        "trial_number": 70,
        "trial_index": 428,
        "rt": 1206,
        "correct": true,
        "response": "ArrowLeft",
        "congruent": false,
        "gazeTowards": true,
        "gazeCondition": "towards",
        "faceOnLeft": true,
        "impliedDirection": 0,
        "testDirection": 180,
        "avgFps": 144,
        "minFps": 137,
        "maxFps": 152,
        "totalFrames": 174,
        "frameRates": 144
      },
      {
        "trial_number": 71,
        "trial_index": 436,
        "rt": 1266,
        "correct": true,
        "response": "ArrowRight",
        "congruent": true,
        "gazeTowards": false,
        "gazeCondition": "away",
        "faceOnLeft": true,
        "impliedDirection": 0,
        "testDirection": 0,
        "avgFps": 144,
        "minFps": 135,
        "maxFps": 154,
        "totalFrames": 182,
        "frameRates": 144
      },
      {
        "trial_number": 72,
        "trial_index": 441,
        "rt": 1271,
        "correct": true,
        "response": "ArrowRight",
        "congruent": true,
        "gazeTowards": true,
        "gazeCondition": "towards",
        "faceOnLeft": true,
        "impliedDirection": 0,
        "testDirection": 0,
        "avgFps": 143,
        "minFps": 66,
        "maxFps": 179,
        "totalFrames": 182,
        "frameRates": 143
      },
      {
        "trial_number": 73,
        "trial_index": 446,
        "rt": 1279,
        "correct": true,
        "response": "ArrowRight",
        "congruent": true,
        "gazeTowards": true,
        "gazeCondition": "towards",
        "faceOnLeft": true,
        "impliedDirection": 0,
        "testDirection": 0,
        "avgFps": 145,
        "minFps": 139,
        "maxFps": 401,
        "totalFrames": 184,
        "frameRates": 145
      },
      {
        "trial_number": 74,
        "trial_index": 451,
        "rt": 961,
        "correct": true,
        "response": "ArrowLeft",
        "congruent": true,
        "gazeTowards": true,
        "gazeCondition": "towards",
        "faceOnLeft": false,
        "impliedDirection": 180,
        "testDirection": 180,
        "avgFps": 144,
        "minFps": 139,
        "maxFps": 152,
        "totalFrames": 138,
        "frameRates": 144
      },
      {
        "trial_number": 75,
        "trial_index": 456,
        "rt": 1282,
        "correct": true,
        "response": "ArrowRight",
        "congruent": true,
        "gazeTowards": false,
        "gazeCondition": "away",
        "faceOnLeft": true,
        "impliedDirection": 0,
        "testDirection": 0,
        "avgFps": 144,
        "minFps": 139,
        "maxFps": 149,
        "totalFrames": 185,
        "frameRates": 144
      },
      {
        "trial_number": 76,
        "trial_index": 461,
        "rt": 1232,
        "correct": true,
        "response": "ArrowLeft",
        "congruent": false,
        "gazeTowards": false,
        "gazeCondition": "away",
        "faceOnLeft": true,
        "impliedDirection": 0,
        "testDirection": 180,
        "avgFps": 144,
        "minFps": 133,
        "maxFps": 154,
        "totalFrames": 177,
        "frameRates": 144
      },
      {
        "trial_number": 77,
        "trial_index": 466,
        "rt": 1255,
        "correct": true,
        "response": "ArrowRight",
        "congruent": true,
        "gazeTowards": false,
        "gazeCondition": "away",
        "faceOnLeft": true,
        "impliedDirection": 0,
        "testDirection": 0,
        "avgFps": 144,
        "minFps": 137,
        "maxFps": 152,
        "totalFrames": 180,
        "frameRates": 144
      },
      {
        "trial_number": 78,
        "trial_index": 471,
        "rt": 992,
        "correct": true,
        "response": "ArrowLeft",
        "congruent": true,
        "gazeTowards": false,
        "gazeCondition": "away",
        "faceOnLeft": false,
        "impliedDirection": 180,
        "testDirection": 180,
        "avgFps": 143,
        "minFps": 70,
        "maxFps": 156,
        "totalFrames": 142,
        "frameRates": 143
      },
      {
        "trial_number": 79,
        "trial_index": 476,
        "rt": 1278,
        "correct": true,
        "response": "ArrowLeft",
        "congruent": false,
        "gazeTowards": false,
        "gazeCondition": "away",
        "faceOnLeft": true,
        "impliedDirection": 0,
        "testDirection": 180,
        "avgFps": 144,
        "minFps": 132,
        "maxFps": 154,
        "totalFrames": 184,
        "frameRates": 144
      },
      {
        "trial_number": 80,
        "trial_index": 481,
        "rt": 1119,
        "correct": true,
        "response": "ArrowRight",
        "congruent": true,
        "gazeTowards": true,
        "gazeCondition": "towards",
        "faceOnLeft": true,
        "impliedDirection": 0,
        "testDirection": 0,
        "avgFps": 144,
        "minFps": 135,
        "maxFps": 154,
        "totalFrames": 161,
        "frameRates": 144
      },
      {
        "trial_number": 81,
        "trial_index": 486,
        "rt": 877,
        "correct": true,
        "response": "ArrowLeft",
        "congruent": false,
        "gazeTowards": true,
        "gazeCondition": "towards",
        "faceOnLeft": true,
        "impliedDirection": 0,
        "testDirection": 180,
        "avgFps": 144,
        "minFps": 135,
        "maxFps": 152,
        "totalFrames": 126,
        "frameRates": 144
      },
      {
        "trial_number": 82,
        "trial_index": 491,
        "rt": 953,
        "correct": true,
        "response": "ArrowLeft",
        "congruent": false,
        "gazeTowards": true,
        "gazeCondition": "towards",
        "faceOnLeft": true,
        "impliedDirection": 0,
        "testDirection": 180,
        "avgFps": 145,
        "minFps": 137,
        "maxFps": 418,
        "totalFrames": 138,
        "frameRates": 145
      },
      {
        "trial_number": 83,
        "trial_index": 496,
        "rt": 1088,
        "correct": true,
        "response": "ArrowLeft",
        "congruent": false,
        "gazeTowards": false,
        "gazeCondition": "away",
        "faceOnLeft": true,
        "impliedDirection": 0,
        "testDirection": 180,
        "avgFps": 143,
        "minFps": 80,
        "maxFps": 154,
        "totalFrames": 156,
        "frameRates": 143
      },
      {
        "trial_number": 84,
        "trial_index": 501,
        "rt": 737,
        "correct": true,
        "response": "ArrowRight",
        "congruent": true,
        "gazeTowards": false,
        "gazeCondition": "away",
        "faceOnLeft": true,
        "impliedDirection": 0,
        "testDirection": 0,
        "avgFps": 144,
        "minFps": 137,
        "maxFps": 152,
        "totalFrames": 106,
        "frameRates": 144
      },
      {
        "trial_number": 85,
        "trial_index": 506,
        "rt": 1237,
        "correct": true,
        "response": "ArrowLeft",
        "congruent": true,
        "gazeTowards": true,
        "gazeCondition": "towards",
        "faceOnLeft": false,
        "impliedDirection": 180,
        "testDirection": 180,
        "avgFps": 144,
        "minFps": 133,
        "maxFps": 152,
        "totalFrames": 178,
        "frameRates": 144
      },
      {
        "trial_number": 86,
        "trial_index": 511,
        "rt": 1034,
        "correct": true,
        "response": "ArrowRight",
        "congruent": false,
        "gazeTowards": false,
        "gazeCondition": "away",
        "faceOnLeft": false,
        "impliedDirection": 180,
        "testDirection": 0,
        "avgFps": 144,
        "minFps": 137,
        "maxFps": 154,
        "totalFrames": 149,
        "frameRates": 144
      },
      {
        "trial_number": 87,
        "trial_index": 516,
        "rt": 715,
        "correct": true,
        "response": "ArrowLeft",
        "congruent": true,
        "gazeTowards": false,
        "gazeCondition": "away",
        "faceOnLeft": false,
        "impliedDirection": 180,
        "testDirection": 180,
        "avgFps": 144,
        "minFps": 132,
        "maxFps": 152,
        "totalFrames": 102,
        "frameRates": 144
      },
      {
        "trial_number": 88,
        "trial_index": 521,
        "rt": 1375,
        "correct": true,
        "response": "ArrowLeft",
        "congruent": false,
        "gazeTowards": true,
        "gazeCondition": "towards",
        "faceOnLeft": true,
        "impliedDirection": 0,
        "testDirection": 180,
        "avgFps": 144,
        "minFps": 135,
        "maxFps": 154,
        "totalFrames": 198,
        "frameRates": 144
      },
      {
        "trial_number": 89,
        "trial_index": 527,
        "rt": 1228,
        "correct": true,
        "response": "ArrowRight",
        "congruent": false,
        "gazeTowards": true,
        "gazeCondition": "towards",
        "faceOnLeft": false,
        "impliedDirection": 180,
        "testDirection": 0,
        "avgFps": 144,
        "minFps": 137,
        "maxFps": 154,
        "totalFrames": 177,
        "frameRates": 144
      },
      {
        "trial_number": 90,
        "trial_index": 532,
        "rt": 1364,
        "correct": true,
        "response": "ArrowRight",
        "congruent": false,
        "gazeTowards": true,
        "gazeCondition": "towards",
        "faceOnLeft": false,
        "impliedDirection": 180,
        "testDirection": 0,
        "avgFps": 144,
        "minFps": 135,
        "maxFps": 152,
        "totalFrames": 195,
        "frameRates": 144
      },
      {
        "trial_number": 91,
        "trial_index": 537,
        "rt": 1891,
        "correct": true,
        "response": "ArrowRight",
        "congruent": true,
        "gazeTowards": true,
        "gazeCondition": "towards",
        "faceOnLeft": true,
        "impliedDirection": 0,
        "testDirection": 0,
        "avgFps": 144,
        "minFps": 135,
        "maxFps": 156,
        "totalFrames": 272,
        "frameRates": 144
      },
      {
        "trial_number": 92,
        "trial_index": 542,
        "rt": 1277,
        "correct": true,
        "response": "ArrowRight",
        "congruent": false,
        "gazeTowards": false,
        "gazeCondition": "away",
        "faceOnLeft": false,
        "impliedDirection": 180,
        "testDirection": 0,
        "avgFps": 144,
        "minFps": 135,
        "maxFps": 156,
        "totalFrames": 184,
        "frameRates": 144
      },
      {
        "trial_number": 93,
        "trial_index": 547,
        "rt": 911,
        "correct": true,
        "response": "ArrowLeft",
        "congruent": false,
        "gazeTowards": true,
        "gazeCondition": "towards",
        "faceOnLeft": true,
        "impliedDirection": 0,
        "testDirection": 180,
        "avgFps": 145,
        "minFps": 135,
        "maxFps": 436,
        "totalFrames": 131,
        "frameRates": 145
      },
      {
        "trial_number": 94,
        "trial_index": 552,
        "rt": 1130,
        "correct": true,
        "response": "ArrowLeft",
        "congruent": false,
        "gazeTowards": false,
        "gazeCondition": "away",
        "faceOnLeft": true,
        "impliedDirection": 0,
        "testDirection": 180,
        "avgFps": 144,
        "minFps": 133,
        "maxFps": 178,
        "totalFrames": 162,
        "frameRates": 144
      },
      {
        "trial_number": 95,
        "trial_index": 557,
        "rt": 1500,
        "correct": true,
        "response": "ArrowRight",
        "congruent": true,
        "gazeTowards": true,
        "gazeCondition": "towards",
        "faceOnLeft": true,
        "impliedDirection": 0,
        "testDirection": 0,
        "avgFps": 145,
        "minFps": 135,
        "maxFps": 386,
        "totalFrames": 216,
        "frameRates": 145
      },
      {
        "trial_number": 96,
        "trial_index": 562,
        "rt": 1534,
        "correct": true,
        "response": "ArrowRight",
        "congruent": true,
        "gazeTowards": false,
        "gazeCondition": "away",
        "faceOnLeft": true,
        "impliedDirection": 0,
        "testDirection": 0,
        "avgFps": 145,
        "minFps": 135,
        "maxFps": 1073,
        "totalFrames": 221,
        "frameRates": 145
      },
      {
        "trial_number": 97,
        "trial_index": 570,
        "rt": 1115,
        "correct": true,
        "response": "ArrowLeft",
        "congruent": false,
        "gazeTowards": false,
        "gazeCondition": "away",
        "faceOnLeft": true,
        "impliedDirection": 0,
        "testDirection": 180,
        "avgFps": 144,
        "minFps": 135,
        "maxFps": 156,
        "totalFrames": 161,
        "frameRates": 144
      },
      {
        "trial_number": 98,
        "trial_index": 575,
        "rt": 1408,
        "correct": true,
        "response": "ArrowRight",
        "congruent": true,
        "gazeTowards": true,
        "gazeCondition": "towards",
        "faceOnLeft": true,
        "impliedDirection": 0,
        "testDirection": 0,
        "avgFps": 144,
        "minFps": 137,
        "maxFps": 169,
        "totalFrames": 201,
        "frameRates": 144
      },
      {
        "trial_number": 99,
        "trial_index": 580,
        "rt": 1254,
        "correct": true,
        "response": "ArrowLeft",
        "congruent": true,
        "gazeTowards": false,
        "gazeCondition": "away",
        "faceOnLeft": false,
        "impliedDirection": 180,
        "testDirection": 180,
        "avgFps": 144,
        "minFps": 122,
        "maxFps": 169,
        "totalFrames": 180,
        "frameRates": 144
      },
      {
        "trial_number": 100,
        "trial_index": 585,
        "rt": 1395,
        "correct": true,
        "response": "ArrowRight",
        "congruent": false,
        "gazeTowards": false,
        "gazeCondition": "away",
        "faceOnLeft": false,
        "impliedDirection": 180,
        "testDirection": 0,
        "avgFps": 145,
        "minFps": 135,
        "maxFps": 436,
        "totalFrames": 201,
        "frameRates": 145
      },
      {
        "trial_number": 101,
        "trial_index": 590,
        "rt": 1153,
        "correct": true,
        "response": "ArrowLeft",
        "congruent": false,
        "gazeTowards": true,
        "gazeCondition": "towards",
        "faceOnLeft": true,
        "impliedDirection": 0,
        "testDirection": 180,
        "avgFps": 144,
        "minFps": 135,
        "maxFps": 154,
        "totalFrames": 166,
        "frameRates": 144
      },
      {
        "trial_number": 102,
        "trial_index": 595,
        "rt": 1406,
        "correct": true,
        "response": "ArrowLeft",
        "congruent": true,
        "gazeTowards": true,
        "gazeCondition": "towards",
        "faceOnLeft": false,
        "impliedDirection": 180,
        "testDirection": 180,
        "avgFps": 144,
        "minFps": 137,
        "maxFps": 156,
        "totalFrames": 202,
        "frameRates": 144
      },
      {
        "trial_number": 103,
        "trial_index": 600,
        "rt": 1295,
        "correct": true,
        "response": "ArrowLeft",
        "congruent": false,
        "gazeTowards": true,
        "gazeCondition": "towards",
        "faceOnLeft": true,
        "impliedDirection": 0,
        "testDirection": 180,
        "avgFps": 144,
        "minFps": 135,
        "maxFps": 154,
        "totalFrames": 186,
        "frameRates": 144
      },
      {
        "trial_number": 104,
        "trial_index": 605,
        "rt": 1351,
        "correct": true,
        "response": "ArrowRight",
        "congruent": true,
        "gazeTowards": false,
        "gazeCondition": "away",
        "faceOnLeft": true,
        "impliedDirection": 0,
        "testDirection": 0,
        "avgFps": 144,
        "minFps": 133,
        "maxFps": 154,
        "totalFrames": 195,
        "frameRates": 144
      },
      {
        "trial_number": 105,
        "trial_index": 610,
        "rt": 1197,
        "correct": true,
        "response": "ArrowLeft",
        "congruent": false,
        "gazeTowards": false,
        "gazeCondition": "away",
        "faceOnLeft": true,
        "impliedDirection": 0,
        "testDirection": 180,
        "avgFps": 144,
        "minFps": 139,
        "maxFps": 152,
        "totalFrames": 172,
        "frameRates": 144
      },
      {
        "trial_number": 106,
        "trial_index": 615,
        "rt": 1642,
        "correct": true,
        "response": "ArrowRight",
        "congruent": true,
        "gazeTowards": true,
        "gazeCondition": "towards",
        "faceOnLeft": true,
        "impliedDirection": 0,
        "testDirection": 0,
        "avgFps": 144,
        "minFps": 128,
        "maxFps": 164,
        "totalFrames": 236,
        "frameRates": 144
      },
      {
        "trial_number": 107,
        "trial_index": 620,
        "rt": 1634,
        "correct": true,
        "response": "ArrowRight",
        "congruent": false,
        "gazeTowards": false,
        "gazeCondition": "away",
        "faceOnLeft": false,
        "impliedDirection": 180,
        "testDirection": 0,
        "avgFps": 144,
        "minFps": 133,
        "maxFps": 154,
        "totalFrames": 235,
        "frameRates": 144
      },
      {
        "trial_number": 108,
        "trial_index": 625,
        "rt": 1530,
        "correct": true,
        "response": "ArrowLeft",
        "congruent": false,
        "gazeTowards": false,
        "gazeCondition": "away",
        "faceOnLeft": true,
        "impliedDirection": 0,
        "testDirection": 180,
        "avgFps": 144,
        "minFps": 132,
        "maxFps": 161,
        "totalFrames": 220,
        "frameRates": 144
      },
      {
        "trial_number": 109,
        "trial_index": 630,
        "rt": 1223,
        "correct": true,
        "response": "ArrowLeft",
        "congruent": true,
        "gazeTowards": false,
        "gazeCondition": "away",
        "faceOnLeft": false,
        "impliedDirection": 180,
        "testDirection": 180,
        "avgFps": 144,
        "minFps": 93,
        "maxFps": 179,
        "totalFrames": 176,
        "frameRates": 144
      },
      {
        "trial_number": 110,
        "trial_index": 635,
        "rt": 1001,
        "correct": true,
        "response": "ArrowLeft",
        "congruent": true,
        "gazeTowards": false,
        "gazeCondition": "away",
        "faceOnLeft": false,
        "impliedDirection": 180,
        "testDirection": 180,
        "avgFps": 143,
        "minFps": 71,
        "maxFps": 156,
        "totalFrames": 144,
        "frameRates": 143
      },
      {
        "trial_number": 111,
        "trial_index": 640,
        "rt": 1197,
        "correct": true,
        "response": "ArrowLeft",
        "congruent": false,
        "gazeTowards": false,
        "gazeCondition": "away",
        "faceOnLeft": true,
        "impliedDirection": 0,
        "testDirection": 180,
        "avgFps": 144,
        "minFps": 135,
        "maxFps": 152,
        "totalFrames": 172,
        "frameRates": 144
      },
      {
        "trial_number": 112,
        "trial_index": 645,
        "rt": 1561,
        "correct": true,
        "response": "ArrowRight",
        "congruent": true,
        "gazeTowards": true,
        "gazeCondition": "towards",
        "faceOnLeft": true,
        "impliedDirection": 0,
        "testDirection": 0,
        "avgFps": 144,
        "minFps": 137,
        "maxFps": 154,
        "totalFrames": 225,
        "frameRates": 144
      },
      {
        "trial_number": 113,
        "trial_index": 650,
        "rt": 1280,
        "correct": true,
        "response": "ArrowRight",
        "congruent": true,
        "gazeTowards": true,
        "gazeCondition": "towards",
        "faceOnLeft": true,
        "impliedDirection": 0,
        "testDirection": 0,
        "avgFps": 143,
        "minFps": 73,
        "maxFps": 156,
        "totalFrames": 183,
        "frameRates": 143
      },
      {
        "trial_number": 114,
        "trial_index": 655,
        "rt": 1215,
        "correct": true,
        "response": "ArrowRight",
        "congruent": true,
        "gazeTowards": false,
        "gazeCondition": "away",
        "faceOnLeft": true,
        "impliedDirection": 0,
        "testDirection": 0,
        "avgFps": 144,
        "minFps": 133,
        "maxFps": 156,
        "totalFrames": 175,
        "frameRates": 144
      },
      {
        "trial_number": 115,
        "trial_index": 660,
        "rt": 1383,
        "correct": true,
        "response": "ArrowRight",
        "congruent": false,
        "gazeTowards": true,
        "gazeCondition": "towards",
        "faceOnLeft": false,
        "impliedDirection": 180,
        "testDirection": 0,
        "avgFps": 144,
        "minFps": 137,
        "maxFps": 154,
        "totalFrames": 199,
        "frameRates": 144
      },
      {
        "trial_number": 116,
        "trial_index": 665,
        "rt": 1377,
        "correct": true,
        "response": "ArrowRight",
        "congruent": true,
        "gazeTowards": false,
        "gazeCondition": "away",
        "faceOnLeft": true,
        "impliedDirection": 0,
        "testDirection": 0,
        "avgFps": 144,
        "minFps": 123,
        "maxFps": 169,
        "totalFrames": 198,
        "frameRates": 144
      },
      {
        "trial_number": 117,
        "trial_index": 670,
        "rt": 857,
        "correct": true,
        "response": "ArrowLeft",
        "congruent": true,
        "gazeTowards": true,
        "gazeCondition": "towards",
        "faceOnLeft": false,
        "impliedDirection": 180,
        "testDirection": 180,
        "avgFps": 144,
        "minFps": 139,
        "maxFps": 154,
        "totalFrames": 123,
        "frameRates": 144
      },
      {
        "trial_number": 118,
        "trial_index": 675,
        "rt": 1202,
        "correct": true,
        "response": "ArrowLeft",
        "congruent": true,
        "gazeTowards": true,
        "gazeCondition": "towards",
        "faceOnLeft": false,
        "impliedDirection": 180,
        "testDirection": 180,
        "avgFps": 144,
        "minFps": 137,
        "maxFps": 154,
        "totalFrames": 173,
        "frameRates": 144
      },
      {
        "trial_number": 119,
        "trial_index": 683,
        "rt": 819,
        "correct": true,
        "response": "ArrowLeft",
        "congruent": false,
        "gazeTowards": true,
        "gazeCondition": "towards",
        "faceOnLeft": true,
        "impliedDirection": 0,
        "testDirection": 180,
        "avgFps": 144,
        "minFps": 135,
        "maxFps": 168,
        "totalFrames": 118,
        "frameRates": 144
      }
    ],
    "catch": {
      "total": 12,
      "correct": 12,
      "accuracy": 100,
      "meanRT": 606,
      "trials": [
        {
          "trial_number": 0,
          "trial_index": 93,
          "rt": 814,
          "correct": true,
          "colorTarget": "tree",
          "gazeTowards": true,
          "gazeCondition": "towards",
          "faceOnLeft": false
        },
        {
          "trial_number": 1,
          "trial_index": 136,
          "rt": 585,
          "correct": true,
          "colorTarget": "face",
          "gazeTowards": false,
          "gazeCondition": "away",
          "faceOnLeft": false
        },
        {
          "trial_number": 2,
          "trial_index": 189,
          "rt": 519,
          "correct": true,
          "colorTarget": "face",
          "gazeTowards": false,
          "gazeCondition": "away",
          "faceOnLeft": true
        },
        {
          "trial_number": 3,
          "trial_index": 192,
          "rt": 455,
          "correct": true,
          "colorTarget": "tree",
          "gazeTowards": false,
          "gazeCondition": "away",
          "faceOnLeft": true
        },
        {
          "trial_number": 4,
          "trial_index": 321,
          "rt": 828,
          "correct": true,
          "colorTarget": "face",
          "gazeTowards": true,
          "gazeCondition": "towards",
          "faceOnLeft": false
        },
        {
          "trial_number": 5,
          "trial_index": 329,
          "rt": 770,
          "correct": true,
          "colorTarget": "face",
          "gazeTowards": true,
          "gazeCondition": "towards",
          "faceOnLeft": true
        },
        {
          "trial_number": 6,
          "trial_index": 347,
          "rt": 729,
          "correct": true,
          "colorTarget": "tree",
          "gazeTowards": true,
          "gazeCondition": "towards",
          "faceOnLeft": false
        },
        {
          "trial_number": 7,
          "trial_index": 401,
          "rt": 401,
          "correct": true,
          "colorTarget": "tree",
          "gazeTowards": false,
          "gazeCondition": "away",
          "faceOnLeft": true
        },
        {
          "trial_number": 8,
          "trial_index": 419,
          "rt": 618,
          "correct": true,
          "colorTarget": "face",
          "gazeTowards": false,
          "gazeCondition": "away",
          "faceOnLeft": false
        },
        {
          "trial_number": 9,
          "trial_index": 432,
          "rt": 381,
          "correct": true,
          "colorTarget": "face",
          "gazeTowards": true,
          "gazeCondition": "towards",
          "faceOnLeft": false
        },
        {
          "trial_number": 10,
          "trial_index": 566,
          "rt": 678,
          "correct": true,
          "colorTarget": "tree",
          "gazeTowards": false,
          "gazeCondition": "away",
          "faceOnLeft": false
        },
        {
          "trial_number": 11,
          "trial_index": 679,
          "rt": 495,
          "correct": true,
          "colorTarget": "tree",
          "gazeTowards": true,
          "gazeCondition": "towards",
          "faceOnLeft": false
        }
      ]
    },
    "practice": {
      "trials": [
        {
          "trial_number": 0,
          "rt": null,
          "correct": false,
          "direction": 0
        },
        {
          "trial_number": 1,
          "rt": 1033,
          "correct": true,
          "direction": 0
        },
        {
          "trial_number": 2,
          "rt": 1227,
          "correct": true,
          "direction": 180
        },
        {
          "trial_number": 3,
          "rt": null,
          "correct": false,
          "direction": 180
        },
        {
          "trial_number": 4,
          "rt": 1054,
          "correct": true,
          "direction": 180
        },
        {
          "trial_number": 5,
          "rt": 790,
          "correct": true,
          "direction": 0
        },
        {
          "trial_number": 6,
          "rt": 765,
          "correct": true,
          "direction": 0
        },
        {
          "trial_number": 7,
          "rt": 924,
          "correct": true,
          "direction": 0
        },
        {
          "trial_number": 8,
          "rt": 729,
          "correct": true,
          "direction": 180
        },
        {
          "trial_number": 9,
          "rt": 719,
          "correct": true,
          "direction": 0
        }
      ],
      "meanRT": 905,
      "accuracy": 80
    }
  }
}