{
  "experiment": "rdk-face-1",
  "UUID": "5f549337-325f-4402-850a-6eb4e9e17172",
  "data": {
    "session": {
      "experiment_version": "1.8.6",
      "treatment": "faces_towards_away_catch",
      "file_version": "1.8.6",
      "totalTrials": 120,
      "totalTrialsIncludingCatch": 132,
      "conditions": {
        "gazeTowardsCount": 60,
        "gazeAwayCount": 60,
        "gazeTowardsAccuracy": 95,
        "gazeAwayAccuracy": 93
      },
      "session_group": "default",
      "browserData": {
        "os": "Windows",
        "browser": "Chrome",
        "screenResolution": "2048x1152",
        "browserViewport": "2048x1152",
        "devicePixelRatio": 1.25,
        "colorDepth": 32,
        "hardwareConcurrency": 12,
        "deviceMemory": 8,
        "gpuRenderer": "ANGLE (NVIDIA, NVIDIA GeForce RTX 3070 (0x00002484) Direct3D11 vs_5_0 ps_5_0, D3D11)",
        "measuredRefreshRateHz": 97
      },
      "attention": {
        "visibilityEvents": [
          {
            "event": "blur",
            "state": "blurred",
            "timestamp": 1772776430441
          },
          {
            "event": "visibilitychange",
            "state": "hidden",
            "timestamp": 1772776430442
          },
          {
            "event": "visibilitychange",
            "state": "visible",
            "timestamp": 1772776431764
          },
          {
            "event": "focus",
            "state": "focused",
            "timestamp": 1772776431768
          }
        ]
      },
      "calibration": {
        "monitorWidthCm": 38,
        "viewingDistanceCm": 54,
        "pixelsPerDegree": 50
      },
      "parameters": {
        "coherence": 0.4,
        "apertureDeg": 5,
        "densityDotsPerDeg2": 40,
        "dotDiameterDeg": 0.035,
        "dotSpeedDegPerSec": 3,
        "lifetimeMs": 200,
        "fixationDurationMs": 1500,
        "faceDurationMs": 1500,
        "testDurationMs": 2000,
        "catchResponseMs": 3000
      },
      "prolific": {
        "prolificPid": "673fe23a86818d6026205f04",
        "studyId": "",
        "sessionId": ""
      },
      "timing": {
        "startTime": "2026-03-06T05:53:48.743Z",
        "endTime": "2026-03-06T06:07:31.093Z",
        "totalElapsedTimeMs": 822350
      }
    },
    "trials": [
      {
        "trial_number": 0,
        "trial_index": 90,
        "rt": 771,
        "correct": true,
        "response": "ArrowLeft",
        "congruent": false,
        "gazeTowards": false,
        "gazeCondition": "away",
        "faceOnLeft": true,
        "impliedDirection": 0,
        "testDirection": 180,
        "avgFps": 144,
        "minFps": 132,
        "maxFps": 159,
        "totalFrames": 111,
        "frameRates": 144
      },
      {
        "trial_number": 1,
        "trial_index": 95,
        "rt": 778,
        "correct": true,
        "response": "ArrowRight",
        "congruent": true,
        "gazeTowards": true,
        "gazeCondition": "towards",
        "faceOnLeft": true,
        "impliedDirection": 0,
        "testDirection": 0,
        "avgFps": 144,
        "minFps": 128,
        "maxFps": 169,
        "totalFrames": 112,
        "frameRates": 144
      },
      {
        "trial_number": 2,
        "trial_index": 100,
        "rt": 884,
        "correct": true,
        "response": "ArrowLeft",
        "congruent": true,
        "gazeTowards": false,
        "gazeCondition": "away",
        "faceOnLeft": false,
        "impliedDirection": 180,
        "testDirection": 180,
        "avgFps": 144,
        "minFps": 114,
        "maxFps": 179,
        "totalFrames": 127,
        "frameRates": 144
      },
      {
        "trial_number": 3,
        "trial_index": 105,
        "rt": 854,
        "correct": true,
        "response": "ArrowLeft",
        "congruent": true,
        "gazeTowards": false,
        "gazeCondition": "away",
        "faceOnLeft": false,
        "impliedDirection": 180,
        "testDirection": 180,
        "avgFps": 143,
        "minFps": 71,
        "maxFps": 667,
        "totalFrames": 122,
        "frameRates": 143
      },
      {
        "trial_number": 4,
        "trial_index": 110,
        "rt": 667,
        "correct": true,
        "response": "ArrowLeft",
        "congruent": false,
        "gazeTowards": false,
        "gazeCondition": "away",
        "faceOnLeft": true,
        "impliedDirection": 0,
        "testDirection": 180,
        "avgFps": 144,
        "minFps": 127,
        "maxFps": 169,
        "totalFrames": 96,
        "frameRates": 144
      },
      {
        "trial_number": 5,
        "trial_index": 118,
        "rt": 1014,
        "correct": true,
        "response": "ArrowRight",
        "congruent": true,
        "gazeTowards": true,
        "gazeCondition": "towards",
        "faceOnLeft": true,
        "impliedDirection": 0,
        "testDirection": 0,
        "avgFps": 144,
        "minFps": 92,
        "maxFps": 222,
        "totalFrames": 146,
        "frameRates": 144
      },
      {
        "trial_number": 6,
        "trial_index": 123,
        "rt": 649,
        "correct": true,
        "response": "ArrowLeft",
        "congruent": false,
        "gazeTowards": true,
        "gazeCondition": "towards",
        "faceOnLeft": true,
        "impliedDirection": 0,
        "testDirection": 180,
        "avgFps": 144,
        "minFps": 105,
        "maxFps": 238,
        "totalFrames": 93,
        "frameRates": 144
      },
      {
        "trial_number": 7,
        "trial_index": 131,
        "rt": 790,
        "correct": true,
        "response": "ArrowRight",
        "congruent": false,
        "gazeTowards": true,
        "gazeCondition": "towards",
        "faceOnLeft": false,
        "impliedDirection": 180,
        "testDirection": 0,
        "avgFps": 144,
        "minFps": 93,
        "maxFps": 323,
        "totalFrames": 113,
        "frameRates": 144
      },
      {
        "trial_number": 8,
        "trial_index": 136,
        "rt": 899,
        "correct": true,
        "response": "ArrowLeft",
        "congruent": false,
        "gazeTowards": true,
        "gazeCondition": "towards",
        "faceOnLeft": true,
        "impliedDirection": 0,
        "testDirection": 180,
        "avgFps": 144,
        "minFps": 92,
        "maxFps": 526,
        "totalFrames": 129,
        "frameRates": 144
      },
      {
        "trial_number": 9,
        "trial_index": 141,
        "rt": 981,
        "correct": true,
        "response": "ArrowRight",
        "congruent": false,
        "gazeTowards": true,
        "gazeCondition": "towards",
        "faceOnLeft": false,
        "impliedDirection": 180,
        "testDirection": 0,
        "avgFps": 144,
        "minFps": 128,
        "maxFps": 159,
        "totalFrames": 141,
        "frameRates": 144
      },
      {
        "trial_number": 10,
        "trial_index": 146,
        "rt": 1473,
        "correct": true,
        "response": "ArrowLeft",
        "congruent": false,
        "gazeTowards": true,
        "gazeCondition": "towards",
        "faceOnLeft": true,
        "impliedDirection": 0,
        "testDirection": 180,
        "avgFps": 143,
        "minFps": 88,
        "maxFps": 175,
        "totalFrames": 211,
        "frameRates": 143
      },
      {
        "trial_number": 11,
        "trial_index": 151,
        "rt": 876,
        "correct": true,
        "response": "ArrowLeft",
        "congruent": false,
        "gazeTowards": true,
        "gazeCondition": "towards",
        "faceOnLeft": true,
        "impliedDirection": 0,
        "testDirection": 180,
        "avgFps": 144,
        "minFps": 95,
        "maxFps": 233,
        "totalFrames": 126,
        "frameRates": 144
      },
      {
        "trial_number": 12,
        "trial_index": 156,
        "rt": 675,
        "correct": true,
        "response": "ArrowRight",
        "congruent": true,
        "gazeTowards": true,
        "gazeCondition": "towards",
        "faceOnLeft": true,
        "impliedDirection": 0,
        "testDirection": 0,
        "avgFps": 142,
        "minFps": 78,
        "maxFps": 286,
        "totalFrames": 96,
        "frameRates": 142
      },
      {
        "trial_number": 13,
        "trial_index": 161,
        "rt": 756,
        "correct": true,
        "response": "ArrowRight",
        "congruent": false,
        "gazeTowards": false,
        "gazeCondition": "away",
        "faceOnLeft": false,
        "impliedDirection": 180,
        "testDirection": 0,
        "avgFps": 144,
        "minFps": 135,
        "maxFps": 154,
        "totalFrames": 109,
        "frameRates": 144
      },
      {
        "trial_number": 14,
        "trial_index": 166,
        "rt": 670,
        "correct": true,
        "response": "ArrowRight",
        "congruent": true,
        "gazeTowards": true,
        "gazeCondition": "towards",
        "faceOnLeft": true,
        "impliedDirection": 0,
        "testDirection": 0,
        "avgFps": 144,
        "minFps": 127,
        "maxFps": 167,
        "totalFrames": 96,
        "frameRates": 144
      },
      {
        "trial_number": 15,
        "trial_index": 171,
        "rt": 750,
        "correct": true,
        "response": "ArrowLeft",
        "congruent": true,
        "gazeTowards": true,
        "gazeCondition": "towards",
        "faceOnLeft": false,
        "impliedDirection": 180,
        "testDirection": 180,
        "avgFps": 144,
        "minFps": 132,
        "maxFps": 159,
        "totalFrames": 108,
        "frameRates": 144
      },
      {
        "trial_number": 16,
        "trial_index": 176,
        "rt": 920,
        "correct": true,
        "response": "ArrowLeft",
        "congruent": false,
        "gazeTowards": false,
        "gazeCondition": "away",
        "faceOnLeft": true,
        "impliedDirection": 0,
        "testDirection": 180,
        "avgFps": 144,
        "minFps": 128,
        "maxFps": 167,
        "totalFrames": 132,
        "frameRates": 144
      },
      {
        "trial_number": 17,
        "trial_index": 181,
        "rt": 549,
        "correct": true,
        "response": "ArrowLeft",
        "congruent": false,
        "gazeTowards": false,
        "gazeCondition": "away",
        "faceOnLeft": true,
        "impliedDirection": 0,
        "testDirection": 180,
        "avgFps": 142,
        "minFps": 70,
        "maxFps": 270,
        "totalFrames": 78,
        "frameRates": 142
      },
      {
        "trial_number": 18,
        "trial_index": 189,
        "rt": 1136,
        "correct": true,
        "response": "ArrowRight",
        "congruent": false,
        "gazeTowards": false,
        "gazeCondition": "away",
        "faceOnLeft": false,
        "impliedDirection": 180,
        "testDirection": 0,
        "avgFps": 143,
        "minFps": 76,
        "maxFps": 400,
        "totalFrames": 163,
        "frameRates": 143
      },
      {
        "trial_number": 19,
        "trial_index": 194,
        "rt": 918,
        "correct": true,
        "response": "ArrowLeft",
        "congruent": false,
        "gazeTowards": false,
        "gazeCondition": "away",
        "faceOnLeft": true,
        "impliedDirection": 0,
        "testDirection": 180,
        "avgFps": 143,
        "minFps": 82,
        "maxFps": 500,
        "totalFrames": 131,
        "frameRates": 143
      },
      {
        "trial_number": 20,
        "trial_index": 199,
        "rt": 1010,
        "correct": true,
        "response": "ArrowLeft",
        "congruent": false,
        "gazeTowards": false,
        "gazeCondition": "away",
        "faceOnLeft": true,
        "impliedDirection": 0,
        "testDirection": 180,
        "avgFps": 144,
        "minFps": 109,
        "maxFps": 179,
        "totalFrames": 146,
        "frameRates": 144
      },
      {
        "trial_number": 21,
        "trial_index": 204,
        "rt": 824,
        "correct": true,
        "response": "ArrowLeft",
        "congruent": true,
        "gazeTowards": false,
        "gazeCondition": "away",
        "faceOnLeft": false,
        "impliedDirection": 180,
        "testDirection": 180,
        "avgFps": 142,
        "minFps": 76,
        "maxFps": 147,
        "totalFrames": 117,
        "frameRates": 142
      },
      {
        "trial_number": 22,
        "trial_index": 209,
        "rt": 1250,
        "correct": true,
        "response": "ArrowLeft",
        "congruent": true,
        "gazeTowards": false,
        "gazeCondition": "away",
        "faceOnLeft": false,
        "impliedDirection": 180,
        "testDirection": 180,
        "avgFps": 143,
        "minFps": 86,
        "maxFps": 189,
        "totalFrames": 179,
        "frameRates": 143
      },
      {
        "trial_number": 23,
        "trial_index": 214,
        "rt": 647,
        "correct": true,
        "response": "ArrowLeft",
        "congruent": true,
        "gazeTowards": true,
        "gazeCondition": "towards",
        "faceOnLeft": false,
        "impliedDirection": 180,
        "testDirection": 180,
        "avgFps": 144,
        "minFps": 135,
        "maxFps": 154,
        "totalFrames": 93,
        "frameRates": 144
      },
      {
        "trial_number": 24,
        "trial_index": 219,
        "rt": 698,
        "correct": true,
        "response": "ArrowRight",
        "congruent": true,
        "gazeTowards": true,
        "gazeCondition": "towards",
        "faceOnLeft": true,
        "impliedDirection": 0,
        "testDirection": 0,
        "avgFps": 143,
        "minFps": 93,
        "maxFps": 169,
        "totalFrames": 99,
        "frameRates": 143
      },
      {
        "trial_number": 25,
        "trial_index": 224,
        "rt": 1360,
        "correct": true,
        "response": "ArrowRight",
        "congruent": false,
        "gazeTowards": true,
        "gazeCondition": "towards",
        "faceOnLeft": false,
        "impliedDirection": 180,
        "testDirection": 0,
        "avgFps": 142,
        "minFps": 68,
        "maxFps": 270,
        "totalFrames": 194,
        "frameRates": 142
      },
      {
        "trial_number": 26,
        "trial_index": 229,
        "rt": 821,
        "correct": true,
        "response": "ArrowLeft",
        "congruent": false,
        "gazeTowards": false,
        "gazeCondition": "away",
        "faceOnLeft": true,
        "impliedDirection": 0,
        "testDirection": 180,
        "avgFps": 143,
        "minFps": 70,
        "maxFps": 217,
        "totalFrames": 117,
        "frameRates": 143
      },
      {
        "trial_number": 27,
        "trial_index": 234,
        "rt": 1445,
        "correct": true,
        "response": "ArrowLeft",
        "congruent": false,
        "gazeTowards": true,
        "gazeCondition": "towards",
        "faceOnLeft": true,
        "impliedDirection": 0,
        "testDirection": 180,
        "avgFps": 144,
        "minFps": 87,
        "maxFps": 278,
        "totalFrames": 207,
        "frameRates": 144
      },
      {
        "trial_number": 28,
        "trial_index": 242,
        "rt": 1847,
        "correct": true,
        "response": "ArrowLeft",
        "congruent": false,
        "gazeTowards": true,
        "gazeCondition": "towards",
        "faceOnLeft": true,
        "impliedDirection": 0,
        "testDirection": 180,
        "avgFps": 143,
        "minFps": 71,
        "maxFps": 294,
        "totalFrames": 263,
        "frameRates": 143
      },
      {
        "trial_number": 29,
        "trial_index": 248,
        "rt": 919,
        "correct": true,
        "response": "ArrowLeft",
        "congruent": true,
        "gazeTowards": false,
        "gazeCondition": "away",
        "faceOnLeft": false,
        "impliedDirection": 180,
        "testDirection": 180,
        "avgFps": 143,
        "minFps": 71,
        "maxFps": 500,
        "totalFrames": 131,
        "frameRates": 143
      },
      {
        "trial_number": 30,
        "trial_index": 253,
        "rt": 1039,
        "correct": true,
        "response": "ArrowLeft",
        "congruent": false,
        "gazeTowards": true,
        "gazeCondition": "towards",
        "faceOnLeft": true,
        "impliedDirection": 0,
        "testDirection": 180,
        "avgFps": 143,
        "minFps": 84,
        "maxFps": 833,
        "totalFrames": 149,
        "frameRates": 143
      },
      {
        "trial_number": 31,
        "trial_index": 258,
        "rt": 749,
        "correct": true,
        "response": "ArrowRight",
        "congruent": false,
        "gazeTowards": true,
        "gazeCondition": "towards",
        "faceOnLeft": false,
        "impliedDirection": 180,
        "testDirection": 0,
        "avgFps": 143,
        "minFps": 69,
        "maxFps": 159,
        "totalFrames": 107,
        "frameRates": 143
      },
      {
        "trial_number": 32,
        "trial_index": 263,
        "rt": 750,
        "correct": true,
        "response": "ArrowRight",
        "congruent": true,
        "gazeTowards": false,
        "gazeCondition": "away",
        "faceOnLeft": true,
        "impliedDirection": 0,
        "testDirection": 0,
        "avgFps": 143,
        "minFps": 74,
        "maxFps": 345,
        "totalFrames": 107,
        "frameRates": 143
      },
      {
        "trial_number": 33,
        "trial_index": 268,
        "rt": 549,
        "correct": true,
        "response": "ArrowLeft",
        "congruent": true,
        "gazeTowards": true,
        "gazeCondition": "towards",
        "faceOnLeft": false,
        "impliedDirection": 180,
        "testDirection": 180,
        "avgFps": 144,
        "minFps": 128,
        "maxFps": 167,
        "totalFrames": 79,
        "frameRates": 144
      },
      {
        "trial_number": 34,
        "trial_index": 273,
        "rt": 1758,
        "correct": false,
        "response": "ArrowRight",
        "congruent": true,
        "gazeTowards": false,
        "gazeCondition": "away",
        "faceOnLeft": false,
        "impliedDirection": 180,
        "testDirection": 180,
        "avgFps": 143,
        "minFps": 71,
        "maxFps": 278,
        "totalFrames": 252,
        "frameRates": 143
      },
      {
        "trial_number": 35,
        "trial_index": 278,
        "rt": 940,
        "correct": true,
        "response": "ArrowLeft",
        "congruent": false,
        "gazeTowards": false,
        "gazeCondition": "away",
        "faceOnLeft": true,
        "impliedDirection": 0,
        "testDirection": 180,
        "avgFps": 143,
        "minFps": 70,
        "maxFps": 217,
        "totalFrames": 134,
        "frameRates": 143
      },
      {
        "trial_number": 36,
        "trial_index": 283,
        "rt": 1823,
        "correct": true,
        "response": "ArrowLeft",
        "congruent": false,
        "gazeTowards": true,
        "gazeCondition": "towards",
        "faceOnLeft": true,
        "impliedDirection": 0,
        "testDirection": 180,
        "avgFps": 143,
        "minFps": 78,
        "maxFps": 213,
        "totalFrames": 260,
        "frameRates": 143
      },
      {
        "trial_number": 37,
        "trial_index": 288,
        "rt": 744,
        "correct": true,
        "response": "ArrowRight",
        "congruent": true,
        "gazeTowards": true,
        "gazeCondition": "towards",
        "faceOnLeft": true,
        "impliedDirection": 0,
        "testDirection": 0,
        "avgFps": 143,
        "minFps": 62,
        "maxFps": 204,
        "totalFrames": 106,
        "frameRates": 143
      },
      {
        "trial_number": 38,
        "trial_index": 293,
        "rt": 763,
        "correct": true,
        "response": "ArrowRight",
        "congruent": true,
        "gazeTowards": true,
        "gazeCondition": "towards",
        "faceOnLeft": true,
        "impliedDirection": 0,
        "testDirection": 0,
        "avgFps": 144,
        "minFps": 102,
        "maxFps": 238,
        "totalFrames": 109,
        "frameRates": 144
      },
      {
        "trial_number": 39,
        "trial_index": 298,
        "rt": 928,
        "correct": true,
        "response": "ArrowLeft",
        "congruent": false,
        "gazeTowards": true,
        "gazeCondition": "towards",
        "faceOnLeft": true,
        "impliedDirection": 0,
        "testDirection": 180,
        "avgFps": 143,
        "minFps": 72,
        "maxFps": 455,
        "totalFrames": 133,
        "frameRates": 143
      },
      {
        "trial_number": 40,
        "trial_index": 303,
        "rt": 1612,
        "correct": false,
        "response": "ArrowRight",
        "congruent": true,
        "gazeTowards": true,
        "gazeCondition": "towards",
        "faceOnLeft": false,
        "impliedDirection": 180,
        "testDirection": 180,
        "avgFps": 143,
        "minFps": 72,
        "maxFps": 204,
        "totalFrames": 231,
        "frameRates": 143
      },
      {
        "trial_number": 41,
        "trial_index": 308,
        "rt": 1916,
        "correct": false,
        "response": "ArrowRight",
        "congruent": true,
        "gazeTowards": true,
        "gazeCondition": "towards",
        "faceOnLeft": false,
        "impliedDirection": 180,
        "testDirection": 180,
        "avgFps": 143,
        "minFps": 71,
        "maxFps": 213,
        "totalFrames": 274,
        "frameRates": 143
      },
      {
        "trial_number": 42,
        "trial_index": 313,
        "rt": 1816,
        "correct": false,
        "response": "ArrowRight",
        "congruent": false,
        "gazeTowards": true,
        "gazeCondition": "towards",
        "faceOnLeft": true,
        "impliedDirection": 0,
        "testDirection": 180,
        "avgFps": 143,
        "minFps": 71,
        "maxFps": 625,
        "totalFrames": 260,
        "frameRates": 143
      },
      {
        "trial_number": 43,
        "trial_index": 318,
        "rt": null,
        "correct": false,
        "response": null,
        "congruent": false,
        "gazeTowards": false,
        "gazeCondition": "away",
        "faceOnLeft": true,
        "impliedDirection": 0,
        "testDirection": 180,
        "avgFps": 144,
        "minFps": 82,
        "maxFps": 526,
        "totalFrames": 288,
        "frameRates": 144
      },
      {
        "trial_number": 44,
        "trial_index": 323,
        "rt": 634,
        "correct": true,
        "response": "ArrowRight",
        "congruent": true,
        "gazeTowards": true,
        "gazeCondition": "towards",
        "faceOnLeft": true,
        "impliedDirection": 0,
        "testDirection": 0,
        "avgFps": 144,
        "minFps": 127,
        "maxFps": 156,
        "totalFrames": 91,
        "frameRates": 144
      },
      {
        "trial_number": 45,
        "trial_index": 328,
        "rt": 902,
        "correct": true,
        "response": "ArrowLeft",
        "congruent": true,
        "gazeTowards": false,
        "gazeCondition": "away",
        "faceOnLeft": false,
        "impliedDirection": 180,
        "testDirection": 180,
        "avgFps": 144,
        "minFps": 133,
        "maxFps": 156,
        "totalFrames": 130,
        "frameRates": 144
      },
      {
        "trial_number": 46,
        "trial_index": 333,
        "rt": 1062,
        "correct": true,
        "response": "ArrowLeft",
        "congruent": false,
        "gazeTowards": true,
        "gazeCondition": "towards",
        "faceOnLeft": true,
        "impliedDirection": 0,
        "testDirection": 180,
        "avgFps": 144,
        "minFps": 120,
        "maxFps": 179,
        "totalFrames": 153,
        "frameRates": 144
      },
      {
        "trial_number": 47,
        "trial_index": 338,
        "rt": 1370,
        "correct": false,
        "response": "ArrowRight",
        "congruent": false,
        "gazeTowards": false,
        "gazeCondition": "away",
        "faceOnLeft": true,
        "impliedDirection": 0,
        "testDirection": 180,
        "avgFps": 144,
        "minFps": 122,
        "maxFps": 175,
        "totalFrames": 197,
        "frameRates": 144
      },
      {
        "trial_number": 48,
        "trial_index": 343,
        "rt": 646,
        "correct": true,
        "response": "ArrowRight",
        "congruent": false,
        "gazeTowards": true,
        "gazeCondition": "towards",
        "faceOnLeft": false,
        "impliedDirection": 180,
        "testDirection": 0,
        "avgFps": 144,
        "minFps": 130,
        "maxFps": 164,
        "totalFrames": 93,
        "frameRates": 144
      },
      {
        "trial_number": 49,
        "trial_index": 351,
        "rt": 1458,
        "correct": true,
        "response": "ArrowLeft",
        "congruent": true,
        "gazeTowards": true,
        "gazeCondition": "towards",
        "faceOnLeft": false,
        "impliedDirection": 180,
        "testDirection": 180,
        "avgFps": 143,
        "minFps": 84,
        "maxFps": 476,
        "totalFrames": 208,
        "frameRates": 143
      },
      {
        "trial_number": 50,
        "trial_index": 356,
        "rt": 885,
        "correct": true,
        "response": "ArrowLeft",
        "congruent": true,
        "gazeTowards": false,
        "gazeCondition": "away",
        "faceOnLeft": false,
        "impliedDirection": 180,
        "testDirection": 180,
        "avgFps": 144,
        "minFps": 125,
        "maxFps": 164,
        "totalFrames": 128,
        "frameRates": 144
      },
      {
        "trial_number": 51,
        "trial_index": 361,
        "rt": 854,
        "correct": true,
        "response": "ArrowLeft",
        "congruent": false,
        "gazeTowards": true,
        "gazeCondition": "towards",
        "faceOnLeft": true,
        "impliedDirection": 0,
        "testDirection": 180,
        "avgFps": 144,
        "minFps": 127,
        "maxFps": 164,
        "totalFrames": 123,
        "frameRates": 144
      },
      {
        "trial_number": 52,
        "trial_index": 366,
        "rt": 812,
        "correct": true,
        "response": "ArrowRight",
        "congruent": true,
        "gazeTowards": false,
        "gazeCondition": "away",
        "faceOnLeft": true,
        "impliedDirection": 0,
        "testDirection": 0,
        "avgFps": 144,
        "minFps": 93,
        "maxFps": 313,
        "totalFrames": 117,
        "frameRates": 144
      },
      {
        "trial_number": 53,
        "trial_index": 371,
        "rt": 751,
        "correct": true,
        "response": "ArrowLeft",
        "congruent": true,
        "gazeTowards": true,
        "gazeCondition": "towards",
        "faceOnLeft": false,
        "impliedDirection": 180,
        "testDirection": 180,
        "avgFps": 143,
        "minFps": 83,
        "maxFps": 196,
        "totalFrames": 107,
        "frameRates": 143
      },
      {
        "trial_number": 54,
        "trial_index": 376,
        "rt": 815,
        "correct": true,
        "response": "ArrowLeft",
        "congruent": true,
        "gazeTowards": false,
        "gazeCondition": "away",
        "faceOnLeft": false,
        "impliedDirection": 180,
        "testDirection": 180,
        "avgFps": 144,
        "minFps": 127,
        "maxFps": 169,
        "totalFrames": 118,
        "frameRates": 144
      },
      {
        "trial_number": 55,
        "trial_index": 381,
        "rt": 629,
        "correct": true,
        "response": "ArrowRight",
        "congruent": true,
        "gazeTowards": false,
        "gazeCondition": "away",
        "faceOnLeft": true,
        "impliedDirection": 0,
        "testDirection": 0,
        "avgFps": 144,
        "minFps": 133,
        "maxFps": 156,
        "totalFrames": 90,
        "frameRates": 144
      },
      {
        "trial_number": 56,
        "trial_index": 386,
        "rt": 736,
        "correct": true,
        "response": "ArrowRight",
        "congruent": true,
        "gazeTowards": true,
        "gazeCondition": "towards",
        "faceOnLeft": true,
        "impliedDirection": 0,
        "testDirection": 0,
        "avgFps": 144,
        "minFps": 85,
        "maxFps": 455,
        "totalFrames": 106,
        "frameRates": 144
      },
      {
        "trial_number": 57,
        "trial_index": 391,
        "rt": 1195,
        "correct": true,
        "response": "ArrowLeft",
        "congruent": true,
        "gazeTowards": false,
        "gazeCondition": "away",
        "faceOnLeft": false,
        "impliedDirection": 180,
        "testDirection": 180,
        "avgFps": 144,
        "minFps": 88,
        "maxFps": 400,
        "totalFrames": 172,
        "frameRates": 144
      },
      {
        "trial_number": 58,
        "trial_index": 396,
        "rt": 960,
        "correct": true,
        "response": "ArrowLeft",
        "congruent": false,
        "gazeTowards": true,
        "gazeCondition": "towards",
        "faceOnLeft": true,
        "impliedDirection": 0,
        "testDirection": 180,
        "avgFps": 142,
        "minFps": 56,
        "maxFps": 323,
        "totalFrames": 136,
        "frameRates": 142
      },
      {
        "trial_number": 59,
        "trial_index": 401,
        "rt": 686,
        "correct": true,
        "response": "ArrowLeft",
        "congruent": true,
        "gazeTowards": true,
        "gazeCondition": "towards",
        "faceOnLeft": false,
        "impliedDirection": 180,
        "testDirection": 180,
        "avgFps": 144,
        "minFps": 132,
        "maxFps": 159,
        "totalFrames": 98,
        "frameRates": 144
      },
      {
        "trial_number": 60,
        "trial_index": 410,
        "rt": 697,
        "correct": true,
        "response": "ArrowRight",
        "congruent": true,
        "gazeTowards": true,
        "gazeCondition": "towards",
        "faceOnLeft": true,
        "impliedDirection": 0,
        "testDirection": 0,
        "avgFps": 144,
        "minFps": 103,
        "maxFps": 270,
        "totalFrames": 100,
        "frameRates": 144
      },
      {
        "trial_number": 61,
        "trial_index": 415,
        "rt": 1083,
        "correct": true,
        "response": "ArrowLeft",
        "congruent": false,
        "gazeTowards": true,
        "gazeCondition": "towards",
        "faceOnLeft": true,
        "impliedDirection": 0,
        "testDirection": 180,
        "avgFps": 143,
        "minFps": 93,
        "maxFps": 179,
        "totalFrames": 155,
        "frameRates": 143
      },
      {
        "trial_number": 62,
        "trial_index": 423,
        "rt": 686,
        "correct": true,
        "response": "ArrowLeft",
        "congruent": false,
        "gazeTowards": false,
        "gazeCondition": "away",
        "faceOnLeft": true,
        "impliedDirection": 0,
        "testDirection": 180,
        "avgFps": 144,
        "minFps": 97,
        "maxFps": 182,
        "totalFrames": 98,
        "frameRates": 144
      },
      {
        "trial_number": 63,
        "trial_index": 428,
        "rt": 566,
        "correct": true,
        "response": "ArrowRight",
        "congruent": true,
        "gazeTowards": false,
        "gazeCondition": "away",
        "faceOnLeft": true,
        "impliedDirection": 0,
        "testDirection": 0,
        "avgFps": 142,
        "minFps": 70,
        "maxFps": 161,
        "totalFrames": 81,
        "frameRates": 142
      },
      {
        "trial_number": 64,
        "trial_index": 433,
        "rt": 576,
        "correct": true,
        "response": "ArrowRight",
        "congruent": true,
        "gazeTowards": true,
        "gazeCondition": "towards",
        "faceOnLeft": true,
        "impliedDirection": 0,
        "testDirection": 0,
        "avgFps": 144,
        "minFps": 132,
        "maxFps": 167,
        "totalFrames": 83,
        "frameRates": 144
      },
      {
        "trial_number": 65,
        "trial_index": 438,
        "rt": 672,
        "correct": true,
        "response": "ArrowLeft",
        "congruent": false,
        "gazeTowards": false,
        "gazeCondition": "away",
        "faceOnLeft": true,
        "impliedDirection": 0,
        "testDirection": 180,
        "avgFps": 142,
        "minFps": 70,
        "maxFps": 149,
        "totalFrames": 96,
        "frameRates": 142
      },
      {
        "trial_number": 66,
        "trial_index": 443,
        "rt": 620,
        "correct": true,
        "response": "ArrowRight",
        "congruent": true,
        "gazeTowards": false,
        "gazeCondition": "away",
        "faceOnLeft": true,
        "impliedDirection": 0,
        "testDirection": 0,
        "avgFps": 144,
        "minFps": 125,
        "maxFps": 169,
        "totalFrames": 89,
        "frameRates": 144
      },
      {
        "trial_number": 67,
        "trial_index": 448,
        "rt": 569,
        "correct": true,
        "response": "ArrowRight",
        "congruent": false,
        "gazeTowards": true,
        "gazeCondition": "towards",
        "faceOnLeft": false,
        "impliedDirection": 180,
        "testDirection": 0,
        "avgFps": 144,
        "minFps": 106,
        "maxFps": 227,
        "totalFrames": 82,
        "frameRates": 144
      },
      {
        "trial_number": 68,
        "trial_index": 453,
        "rt": 555,
        "correct": true,
        "response": "ArrowLeft",
        "congruent": true,
        "gazeTowards": false,
        "gazeCondition": "away",
        "faceOnLeft": false,
        "impliedDirection": 180,
        "testDirection": 180,
        "avgFps": 144,
        "minFps": 103,
        "maxFps": 196,
        "totalFrames": 80,
        "frameRates": 144
      },
      {
        "trial_number": 69,
        "trial_index": 458,
        "rt": 583,
        "correct": true,
        "response": "ArrowRight",
        "congruent": false,
        "gazeTowards": false,
        "gazeCondition": "away",
        "faceOnLeft": false,
        "impliedDirection": 180,
        "testDirection": 0,
        "avgFps": 142,
        "minFps": 97,
        "maxFps": 244,
        "totalFrames": 83,
        "frameRates": 142
      },
      {
        "trial_number": 70,
        "trial_index": 463,
        "rt": 700,
        "correct": true,
        "response": "ArrowRight",
        "congruent": true,
        "gazeTowards": true,
        "gazeCondition": "towards",
        "faceOnLeft": true,
        "impliedDirection": 0,
        "testDirection": 0,
        "avgFps": 144,
        "minFps": 137,
        "maxFps": 152,
        "totalFrames": 101,
        "frameRates": 144
      },
      {
        "trial_number": 71,
        "trial_index": 468,
        "rt": 705,
        "correct": true,
        "response": "ArrowLeft",
        "congruent": true,
        "gazeTowards": false,
        "gazeCondition": "away",
        "faceOnLeft": false,
        "impliedDirection": 180,
        "testDirection": 180,
        "avgFps": 144,
        "minFps": 127,
        "maxFps": 167,
        "totalFrames": 102,
        "frameRates": 144
      },
      {
        "trial_number": 72,
        "trial_index": 473,
        "rt": 659,
        "correct": true,
        "response": "ArrowRight",
        "congruent": true,
        "gazeTowards": false,
        "gazeCondition": "away",
        "faceOnLeft": true,
        "impliedDirection": 0,
        "testDirection": 0,
        "avgFps": 142,
        "minFps": 79,
        "maxFps": 385,
        "totalFrames": 94,
        "frameRates": 142
      },
      {
        "trial_number": 73,
        "trial_index": 478,
        "rt": 988,
        "correct": true,
        "response": "ArrowLeft",
        "congruent": false,
        "gazeTowards": true,
        "gazeCondition": "towards",
        "faceOnLeft": true,
        "impliedDirection": 0,
        "testDirection": 180,
        "avgFps": 144,
        "minFps": 53,
        "maxFps": 943,
        "totalFrames": 142,
        "frameRates": 144
      },
      {
        "trial_number": 74,
        "trial_index": 483,
        "rt": 1128,
        "correct": true,
        "response": "ArrowLeft",
        "congruent": false,
        "gazeTowards": false,
        "gazeCondition": "away",
        "faceOnLeft": true,
        "impliedDirection": 0,
        "testDirection": 180,
        "avgFps": 143,
        "minFps": 85,
        "maxFps": 172,
        "totalFrames": 161,
        "frameRates": 143
      },
      {
        "trial_number": 75,
        "trial_index": 488,
        "rt": 645,
        "correct": true,
        "response": "ArrowRight",
        "congruent": true,
        "gazeTowards": false,
        "gazeCondition": "away",
        "faceOnLeft": true,
        "impliedDirection": 0,
        "testDirection": 0,
        "avgFps": 144,
        "minFps": 135,
        "maxFps": 154,
        "totalFrames": 93,
        "frameRates": 144
      },
      {
        "trial_number": 76,
        "trial_index": 496,
        "rt": 587,
        "correct": true,
        "response": "ArrowLeft",
        "congruent": false,
        "gazeTowards": false,
        "gazeCondition": "away",
        "faceOnLeft": true,
        "impliedDirection": 0,
        "testDirection": 180,
        "avgFps": 142,
        "minFps": 81,
        "maxFps": 159,
        "totalFrames": 83,
        "frameRates": 142
      },
      {
        "trial_number": 77,
        "trial_index": 501,
        "rt": 933,
        "correct": true,
        "response": "ArrowLeft",
        "congruent": true,
        "gazeTowards": false,
        "gazeCondition": "away",
        "faceOnLeft": false,
        "impliedDirection": 180,
        "testDirection": 180,
        "avgFps": 143,
        "minFps": 73,
        "maxFps": 370,
        "totalFrames": 133,
        "frameRates": 143
      },
      {
        "trial_number": 78,
        "trial_index": 506,
        "rt": 1174,
        "correct": true,
        "response": "ArrowLeft",
        "congruent": true,
        "gazeTowards": false,
        "gazeCondition": "away",
        "faceOnLeft": false,
        "impliedDirection": 180,
        "testDirection": 180,
        "avgFps": 143,
        "minFps": 79,
        "maxFps": 400,
        "totalFrames": 167,
        "frameRates": 143
      },
      {
        "trial_number": 79,
        "trial_index": 511,
        "rt": 739,
        "correct": true,
        "response": "ArrowLeft",
        "congruent": true,
        "gazeTowards": true,
        "gazeCondition": "towards",
        "faceOnLeft": false,
        "impliedDirection": 180,
        "testDirection": 180,
        "avgFps": 144,
        "minFps": 135,
        "maxFps": 154,
        "totalFrames": 106,
        "frameRates": 144
      },
      {
        "trial_number": 80,
        "trial_index": 516,
        "rt": 757,
        "correct": true,
        "response": "ArrowRight",
        "congruent": false,
        "gazeTowards": false,
        "gazeCondition": "away",
        "faceOnLeft": false,
        "impliedDirection": 180,
        "testDirection": 0,
        "avgFps": 144,
        "minFps": 133,
        "maxFps": 156,
        "totalFrames": 108,
        "frameRates": 144
      },
      {
        "trial_number": 81,
        "trial_index": 521,
        "rt": 520,
        "correct": true,
        "response": "ArrowLeft",
        "congruent": true,
        "gazeTowards": true,
        "gazeCondition": "towards",
        "faceOnLeft": false,
        "impliedDirection": 180,
        "testDirection": 180,
        "avgFps": 142,
        "minFps": 76,
        "maxFps": 149,
        "totalFrames": 74,
        "frameRates": 142
      },
      {
        "trial_number": 82,
        "trial_index": 526,
        "rt": 803,
        "correct": true,
        "response": "ArrowLeft",
        "congruent": false,
        "gazeTowards": true,
        "gazeCondition": "towards",
        "faceOnLeft": true,
        "impliedDirection": 0,
        "testDirection": 180,
        "avgFps": 143,
        "minFps": 92,
        "maxFps": 152,
        "totalFrames": 115,
        "frameRates": 143
      },
      {
        "trial_number": 83,
        "trial_index": 531,
        "rt": 699,
        "correct": true,
        "response": "ArrowLeft",
        "congruent": false,
        "gazeTowards": true,
        "gazeCondition": "towards",
        "faceOnLeft": true,
        "impliedDirection": 0,
        "testDirection": 180,
        "avgFps": 142,
        "minFps": 85,
        "maxFps": 196,
        "totalFrames": 99,
        "frameRates": 142
      },
      {
        "trial_number": 84,
        "trial_index": 539,
        "rt": 909,
        "correct": true,
        "response": "ArrowLeft",
        "congruent": false,
        "gazeTowards": false,
        "gazeCondition": "away",
        "faceOnLeft": true,
        "impliedDirection": 0,
        "testDirection": 180,
        "avgFps": 144,
        "minFps": 104,
        "maxFps": 189,
        "totalFrames": 131,
        "frameRates": 144
      },
      {
        "trial_number": 85,
        "trial_index": 544,
        "rt": 819,
        "correct": true,
        "response": "ArrowLeft",
        "congruent": true,
        "gazeTowards": false,
        "gazeCondition": "away",
        "faceOnLeft": false,
        "impliedDirection": 180,
        "testDirection": 180,
        "avgFps": 144,
        "minFps": 114,
        "maxFps": 204,
        "totalFrames": 118,
        "frameRates": 144
      },
      {
        "trial_number": 86,
        "trial_index": 549,
        "rt": 750,
        "correct": true,
        "response": "ArrowLeft",
        "congruent": true,
        "gazeTowards": false,
        "gazeCondition": "away",
        "faceOnLeft": false,
        "impliedDirection": 180,
        "testDirection": 180,
        "avgFps": 144,
        "minFps": 90,
        "maxFps": 667,
        "totalFrames": 108,
        "frameRates": 144
      },
      {
        "trial_number": 87,
        "trial_index": 554,
        "rt": 617,
        "correct": true,
        "response": "ArrowLeft",
        "congruent": false,
        "gazeTowards": true,
        "gazeCondition": "towards",
        "faceOnLeft": true,
        "impliedDirection": 0,
        "testDirection": 180,
        "avgFps": 144,
        "minFps": 96,
        "maxFps": 278,
        "totalFrames": 88,
        "frameRates": 144
      },
      {
        "trial_number": 88,
        "trial_index": 559,
        "rt": 893,
        "correct": true,
        "response": "ArrowRight",
        "congruent": false,
        "gazeTowards": false,
        "gazeCondition": "away",
        "faceOnLeft": false,
        "impliedDirection": 180,
        "testDirection": 0,
        "avgFps": 144,
        "minFps": 123,
        "maxFps": 164,
        "totalFrames": 128,
        "frameRates": 144
      },
      {
        "trial_number": 89,
        "trial_index": 564,
        "rt": 512,
        "correct": true,
        "response": "ArrowLeft",
        "congruent": true,
        "gazeTowards": false,
        "gazeCondition": "away",
        "faceOnLeft": false,
        "impliedDirection": 180,
        "testDirection": 180,
        "avgFps": 144,
        "minFps": 133,
        "maxFps": 156,
        "totalFrames": 73,
        "frameRates": 144
      },
      {
        "trial_number": 90,
        "trial_index": 570,
        "rt": 532,
        "correct": true,
        "response": "ArrowLeft",
        "congruent": true,
        "gazeTowards": false,
        "gazeCondition": "away",
        "faceOnLeft": false,
        "impliedDirection": 180,
        "testDirection": 180,
        "avgFps": 145,
        "minFps": 124,
        "maxFps": 556,
        "totalFrames": 77,
        "frameRates": 145
      },
      {
        "trial_number": 91,
        "trial_index": 578,
        "rt": 1478,
        "correct": true,
        "response": "ArrowRight",
        "congruent": true,
        "gazeTowards": true,
        "gazeCondition": "towards",
        "faceOnLeft": true,
        "impliedDirection": 0,
        "testDirection": 0,
        "avgFps": 143,
        "minFps": 86,
        "maxFps": 167,
        "totalFrames": 211,
        "frameRates": 143
      },
      {
        "trial_number": 92,
        "trial_index": 583,
        "rt": 668,
        "correct": true,
        "response": "ArrowLeft",
        "congruent": false,
        "gazeTowards": false,
        "gazeCondition": "away",
        "faceOnLeft": true,
        "impliedDirection": 0,
        "testDirection": 180,
        "avgFps": 141,
        "minFps": 71,
        "maxFps": 250,
        "totalFrames": 94,
        "frameRates": 141
      },
      {
        "trial_number": 93,
        "trial_index": 588,
        "rt": 792,
        "correct": true,
        "response": "ArrowLeft",
        "congruent": true,
        "gazeTowards": true,
        "gazeCondition": "towards",
        "faceOnLeft": false,
        "impliedDirection": 180,
        "testDirection": 180,
        "avgFps": 141,
        "minFps": 70,
        "maxFps": 185,
        "totalFrames": 112,
        "frameRates": 141
      },
      {
        "trial_number": 94,
        "trial_index": 593,
        "rt": 593,
        "correct": true,
        "response": "ArrowLeft",
        "congruent": true,
        "gazeTowards": true,
        "gazeCondition": "towards",
        "faceOnLeft": false,
        "impliedDirection": 180,
        "testDirection": 180,
        "avgFps": 142,
        "minFps": 91,
        "maxFps": 154,
        "totalFrames": 84,
        "frameRates": 142
      },
      {
        "trial_number": 95,
        "trial_index": 598,
        "rt": 532,
        "correct": true,
        "response": "ArrowLeft",
        "congruent": true,
        "gazeTowards": false,
        "gazeCondition": "away",
        "faceOnLeft": false,
        "impliedDirection": 180,
        "testDirection": 180,
        "avgFps": 142,
        "minFps": 79,
        "maxFps": 192,
        "totalFrames": 75,
        "frameRates": 142
      },
      {
        "trial_number": 96,
        "trial_index": 603,
        "rt": 591,
        "correct": true,
        "response": "ArrowLeft",
        "congruent": true,
        "gazeTowards": false,
        "gazeCondition": "away",
        "faceOnLeft": false,
        "impliedDirection": 180,
        "testDirection": 180,
        "avgFps": 142,
        "minFps": 93,
        "maxFps": 149,
        "totalFrames": 84,
        "frameRates": 142
      },
      {
        "trial_number": 97,
        "trial_index": 608,
        "rt": 684,
        "correct": true,
        "response": "ArrowRight",
        "congruent": true,
        "gazeTowards": false,
        "gazeCondition": "away",
        "faceOnLeft": true,
        "impliedDirection": 0,
        "testDirection": 0,
        "avgFps": 142,
        "minFps": 70,
        "maxFps": 222,
        "totalFrames": 97,
        "frameRates": 142
      },
      {
        "trial_number": 98,
        "trial_index": 613,
        "rt": 546,
        "correct": true,
        "response": "ArrowLeft",
        "congruent": true,
        "gazeTowards": true,
        "gazeCondition": "towards",
        "faceOnLeft": false,
        "impliedDirection": 180,
        "testDirection": 180,
        "avgFps": 144,
        "minFps": 139,
        "maxFps": 147,
        "totalFrames": 78,
        "frameRates": 144
      },
      {
        "trial_number": 99,
        "trial_index": 618,
        "rt": 815,
        "correct": true,
        "response": "ArrowLeft",
        "congruent": false,
        "gazeTowards": true,
        "gazeCondition": "towards",
        "faceOnLeft": true,
        "impliedDirection": 0,
        "testDirection": 180,
        "avgFps": 143,
        "minFps": 68,
        "maxFps": 167,
        "totalFrames": 117,
        "frameRates": 143
      },
      {
        "trial_number": 100,
        "trial_index": 626,
        "rt": 577,
        "correct": true,
        "response": "ArrowLeft",
        "congruent": false,
        "gazeTowards": false,
        "gazeCondition": "away",
        "faceOnLeft": true,
        "impliedDirection": 0,
        "testDirection": 180,
        "avgFps": 142,
        "minFps": 80,
        "maxFps": 192,
        "totalFrames": 82,
        "frameRates": 142
      },
      {
        "trial_number": 101,
        "trial_index": 631,
        "rt": 571,
        "correct": true,
        "response": "ArrowLeft",
        "congruent": false,
        "gazeTowards": false,
        "gazeCondition": "away",
        "faceOnLeft": true,
        "impliedDirection": 0,
        "testDirection": 180,
        "avgFps": 142,
        "minFps": 70,
        "maxFps": 222,
        "totalFrames": 81,
        "frameRates": 142
      },
      {
        "trial_number": 102,
        "trial_index": 636,
        "rt": 560,
        "correct": true,
        "response": "ArrowLeft",
        "congruent": false,
        "gazeTowards": false,
        "gazeCondition": "away",
        "faceOnLeft": true,
        "impliedDirection": 0,
        "testDirection": 180,
        "avgFps": 144,
        "minFps": 116,
        "maxFps": 192,
        "totalFrames": 80,
        "frameRates": 144
      },
      {
        "trial_number": 103,
        "trial_index": 641,
        "rt": 622,
        "correct": true,
        "response": "ArrowRight",
        "congruent": true,
        "gazeTowards": false,
        "gazeCondition": "away",
        "faceOnLeft": true,
        "impliedDirection": 0,
        "testDirection": 0,
        "avgFps": 144,
        "minFps": 111,
        "maxFps": 175,
        "totalFrames": 90,
        "frameRates": 144
      },
      {
        "trial_number": 104,
        "trial_index": 646,
        "rt": 720,
        "correct": true,
        "response": "ArrowRight",
        "congruent": false,
        "gazeTowards": false,
        "gazeCondition": "away",
        "faceOnLeft": false,
        "impliedDirection": 180,
        "testDirection": 0,
        "avgFps": 141,
        "minFps": 81,
        "maxFps": 200,
        "totalFrames": 102,
        "frameRates": 141
      },
      {
        "trial_number": 105,
        "trial_index": 651,
        "rt": 626,
        "correct": true,
        "response": "ArrowRight",
        "congruent": true,
        "gazeTowards": true,
        "gazeCondition": "towards",
        "faceOnLeft": true,
        "impliedDirection": 0,
        "testDirection": 0,
        "avgFps": 144,
        "minFps": 93,
        "maxFps": 313,
        "totalFrames": 90,
        "frameRates": 144
      },
      {
        "trial_number": 106,
        "trial_index": 656,
        "rt": 642,
        "correct": true,
        "response": "ArrowRight",
        "congruent": false,
        "gazeTowards": false,
        "gazeCondition": "away",
        "faceOnLeft": false,
        "impliedDirection": 180,
        "testDirection": 0,
        "avgFps": 144,
        "minFps": 100,
        "maxFps": 208,
        "totalFrames": 93,
        "frameRates": 144
      },
      {
        "trial_number": 107,
        "trial_index": 661,
        "rt": 691,
        "correct": true,
        "response": "ArrowRight",
        "congruent": false,
        "gazeTowards": false,
        "gazeCondition": "away",
        "faceOnLeft": false,
        "impliedDirection": 180,
        "testDirection": 0,
        "avgFps": 138,
        "minFps": 54,
        "maxFps": 417,
        "totalFrames": 96,
        "frameRates": 138
      },
      {
        "trial_number": 108,
        "trial_index": 669,
        "rt": 1575,
        "correct": false,
        "response": "ArrowRight",
        "congruent": true,
        "gazeTowards": false,
        "gazeCondition": "away",
        "faceOnLeft": false,
        "impliedDirection": 180,
        "testDirection": 180,
        "avgFps": 144,
        "minFps": 125,
        "maxFps": 169,
        "totalFrames": 227,
        "frameRates": 144
      },
      {
        "trial_number": 109,
        "trial_index": 674,
        "rt": 800,
        "correct": true,
        "response": "ArrowRight",
        "congruent": false,
        "gazeTowards": true,
        "gazeCondition": "towards",
        "faceOnLeft": false,
        "impliedDirection": 180,
        "testDirection": 0,
        "avgFps": 144,
        "minFps": 114,
        "maxFps": 233,
        "totalFrames": 115,
        "frameRates": 144
      },
      {
        "trial_number": 110,
        "trial_index": 679,
        "rt": 540,
        "correct": true,
        "response": "ArrowRight",
        "congruent": false,
        "gazeTowards": true,
        "gazeCondition": "towards",
        "faceOnLeft": false,
        "impliedDirection": 180,
        "testDirection": 0,
        "avgFps": 144,
        "minFps": 112,
        "maxFps": 217,
        "totalFrames": 78,
        "frameRates": 144
      },
      {
        "trial_number": 111,
        "trial_index": 684,
        "rt": 650,
        "correct": true,
        "response": "ArrowRight",
        "congruent": true,
        "gazeTowards": true,
        "gazeCondition": "towards",
        "faceOnLeft": true,
        "impliedDirection": 0,
        "testDirection": 0,
        "avgFps": 144,
        "minFps": 135,
        "maxFps": 152,
        "totalFrames": 94,
        "frameRates": 144
      },
      {
        "trial_number": 112,
        "trial_index": 689,
        "rt": 1334,
        "correct": true,
        "response": "ArrowLeft",
        "congruent": false,
        "gazeTowards": false,
        "gazeCondition": "away",
        "faceOnLeft": true,
        "impliedDirection": 0,
        "testDirection": 180,
        "avgFps": 144,
        "minFps": 106,
        "maxFps": 233,
        "totalFrames": 192,
        "frameRates": 144
      },
      {
        "trial_number": 113,
        "trial_index": 694,
        "rt": 615,
        "correct": true,
        "response": "ArrowRight",
        "congruent": true,
        "gazeTowards": true,
        "gazeCondition": "towards",
        "faceOnLeft": true,
        "impliedDirection": 0,
        "testDirection": 0,
        "avgFps": 141,
        "minFps": 46,
        "maxFps": 156,
        "totalFrames": 87,
        "frameRates": 141
      },
      {
        "trial_number": 114,
        "trial_index": 699,
        "rt": 537,
        "correct": true,
        "response": "ArrowRight",
        "congruent": true,
        "gazeTowards": true,
        "gazeCondition": "towards",
        "faceOnLeft": true,
        "impliedDirection": 0,
        "testDirection": 0,
        "avgFps": 140,
        "minFps": 64,
        "maxFps": 208,
        "totalFrames": 76,
        "frameRates": 140
      },
      {
        "trial_number": 115,
        "trial_index": 704,
        "rt": 580,
        "correct": true,
        "response": "ArrowRight",
        "congruent": false,
        "gazeTowards": true,
        "gazeCondition": "towards",
        "faceOnLeft": false,
        "impliedDirection": 180,
        "testDirection": 0,
        "avgFps": 144,
        "minFps": 127,
        "maxFps": 167,
        "totalFrames": 83,
        "frameRates": 144
      },
      {
        "trial_number": 116,
        "trial_index": 709,
        "rt": 576,
        "correct": true,
        "response": "ArrowRight",
        "congruent": false,
        "gazeTowards": false,
        "gazeCondition": "away",
        "faceOnLeft": false,
        "impliedDirection": 180,
        "testDirection": 0,
        "avgFps": 144,
        "minFps": 104,
        "maxFps": 238,
        "totalFrames": 82,
        "frameRates": 144
      },
      {
        "trial_number": 117,
        "trial_index": 714,
        "rt": 524,
        "correct": true,
        "response": "ArrowRight",
        "congruent": false,
        "gazeTowards": true,
        "gazeCondition": "towards",
        "faceOnLeft": false,
        "impliedDirection": 180,
        "testDirection": 0,
        "avgFps": 144,
        "minFps": 127,
        "maxFps": 169,
        "totalFrames": 75,
        "frameRates": 144
      },
      {
        "trial_number": 118,
        "trial_index": 719,
        "rt": 744,
        "correct": true,
        "response": "ArrowLeft",
        "congruent": false,
        "gazeTowards": true,
        "gazeCondition": "towards",
        "faceOnLeft": true,
        "impliedDirection": 0,
        "testDirection": 180,
        "avgFps": 143,
        "minFps": 68,
        "maxFps": 200,
        "totalFrames": 107,
        "frameRates": 143
      },
      {
        "trial_number": 119,
        "trial_index": 724,
        "rt": 573,
        "correct": true,
        "response": "ArrowRight",
        "congruent": false,
        "gazeTowards": false,
        "gazeCondition": "away",
        "faceOnLeft": false,
        "impliedDirection": 180,
        "testDirection": 0,
        "avgFps": 144,
        "minFps": 112,
        "maxFps": 204,
        "totalFrames": 82,
        "frameRates": 144
      }
    ],
    "catch": {
      "total": 12,
      "correct": 12,
      "accuracy": 100,
      "meanRT": 759,
      "trials": [
        {
          "trial_number": 0,
          "trial_index": 114,
          "rt": 686,
          "correct": true,
          "colorTarget": "face",
          "gazeTowards": true,
          "gazeCondition": "towards",
          "faceOnLeft": false
        },
        {
          "trial_number": 1,
          "trial_index": 127,
          "rt": 709,
          "correct": true,
          "colorTarget": "face",
          "gazeTowards": false,
          "gazeCondition": "away",
          "faceOnLeft": true
        },
        {
          "trial_number": 2,
          "trial_index": 185,
          "rt": 836,
          "correct": true,
          "colorTarget": "tree",
          "gazeTowards": true,
          "gazeCondition": "towards",
          "faceOnLeft": true
        },
        {
          "trial_number": 3,
          "trial_index": 238,
          "rt": 755,
          "correct": true,
          "colorTarget": "tree",
          "gazeTowards": true,
          "gazeCondition": "towards",
          "faceOnLeft": false
        },
        {
          "trial_number": 4,
          "trial_index": 347,
          "rt": 912,
          "correct": true,
          "colorTarget": "face",
          "gazeTowards": false,
          "gazeCondition": "away",
          "faceOnLeft": false
        },
        {
          "trial_number": 5,
          "trial_index": 405,
          "rt": 840,
          "correct": true,
          "colorTarget": "tree",
          "gazeTowards": false,
          "gazeCondition": "away",
          "faceOnLeft": true
        },
        {
          "trial_number": 6,
          "trial_index": 419,
          "rt": 711,
          "correct": true,
          "colorTarget": "tree",
          "gazeTowards": false,
          "gazeCondition": "away",
          "faceOnLeft": true
        },
        {
          "trial_number": 7,
          "trial_index": 492,
          "rt": 777,
          "correct": true,
          "colorTarget": "face",
          "gazeTowards": false,
          "gazeCondition": "away",
          "faceOnLeft": false
        },
        {
          "trial_number": 8,
          "trial_index": 535,
          "rt": 893,
          "correct": true,
          "colorTarget": "tree",
          "gazeTowards": false,
          "gazeCondition": "away",
          "faceOnLeft": false
        },
        {
          "trial_number": 9,
          "trial_index": 574,
          "rt": 693,
          "correct": true,
          "colorTarget": "face",
          "gazeTowards": true,
          "gazeCondition": "towards",
          "faceOnLeft": true
        },
        {
          "trial_number": 10,
          "trial_index": 622,
          "rt": 551,
          "correct": true,
          "colorTarget": "tree",
          "gazeTowards": false,
          "gazeCondition": "away",
          "faceOnLeft": true
        },
        {
          "trial_number": 11,
          "trial_index": 665,
          "rt": 746,
          "correct": true,
          "colorTarget": "face",
          "gazeTowards": false,
          "gazeCondition": "away",
          "faceOnLeft": true
        }
      ]
    },
    "practice": {
      "trials": [
        {
          "trial_number": 0,
          "rt": 1281,
          "correct": true,
          "direction": 0
        },
        {
          "trial_number": 1,
          "rt": null,
          "correct": false,
          "direction": 180
        },
        {
          "trial_number": 2,
          "rt": 904,
          "correct": false,
          "direction": 180
        },
        {
          "trial_number": 3,
          "rt": 1168,
          "correct": true,
          "direction": 180
        },
        {
          "trial_number": 4,
          "rt": 1049,
          "correct": true,
          "direction": 180
        },
        {
          "trial_number": 5,
          "rt": 1643,
          "correct": false,
          "direction": 180
        },
        {
          "trial_number": 6,
          "rt": 1830,
          "correct": false,
          "direction": 180
        },
        {
          "trial_number": 7,
          "rt": 870,
          "correct": false,
          "direction": 180
        },
        {
          "trial_number": 8,
          "rt": 903,
          "correct": true,
          "direction": 180
        },
        {
          "trial_number": 9,
          "rt": 1656,
          "correct": true,
          "direction": 180
        },
        {
          "trial_number": 10,
          "rt": 1200,
          "correct": true,
          "direction": 0
        },
        {
          "trial_number": 11,
          "rt": 644,
          "correct": true,
          "direction": 180
        },
        {
          "trial_number": 12,
          "rt": 745,
          "correct": true,
          "direction": 180
        },
        {
          "trial_number": 13,
          "rt": 784,
          "correct": true,
          "direction": 180
        },
        {
          "trial_number": 14,
          "rt": 1111,
          "correct": true,
          "direction": 180
        },
        {
          "trial_number": 15,
          "rt": 1135,
          "correct": true,
          "direction": 180
        },
        {
          "trial_number": 16,
          "rt": 889,
          "correct": true,
          "direction": 180
        },
        {
          "trial_number": 17,
          "rt": 695,
          "correct": true,
          "direction": 180
        },
        {
          "trial_number": 18,
          "rt": 528,
          "correct": true,
          "direction": 180
        },
        {
          "trial_number": 19,
          "rt": 692,
          "correct": true,
          "direction": 180
        }
      ],
      "meanRT": 1038,
      "accuracy": 75
    }
  }
}