{
  "experiment": "rdk-face-1",
  "UUID": "8387852c-4db8-44a6-9667-9e4ddc47215b",
  "data": {
    "session": {
      "experiment_version": "1.8.6",
      "treatment": "faces_towards_away_catch",
      "file_version": "1.8.6",
      "totalTrials": 120,
      "totalTrialsIncludingCatch": 132,
      "conditions": {
        "gazeTowardsCount": 60,
        "gazeAwayCount": 60,
        "gazeTowardsAccuracy": 95,
        "gazeAwayAccuracy": 90
      },
      "session_group": "default",
      "browserData": {
        "os": "Windows",
        "browser": "Chrome",
        "screenResolution": "1920x1080",
        "browserViewport": "1920x1080",
        "devicePixelRatio": 1,
        "colorDepth": 32,
        "hardwareConcurrency": 16,
        "deviceMemory": 8,
        "gpuRenderer": "ANGLE (NVIDIA, NVIDIA GeForce RTX 3060 (0x00002504) Direct3D11 vs_5_0 ps_5_0, D3D11)",
        "measuredRefreshRateHz": 113
      },
      "attention": {
        "visibilityEvents": []
      },
      "calibration": {
        "monitorWidthCm": 38,
        "viewingDistanceCm": 54,
        "pixelsPerDegree": 50
      },
      "parameters": {
        "coherence": 0.4,
        "apertureDeg": 5,
        "densityDotsPerDeg2": 40,
        "dotDiameterDeg": 0.035,
        "dotSpeedDegPerSec": 3,
        "lifetimeMs": 200,
        "fixationDurationMs": 1500,
        "faceDurationMs": 1500,
        "testDurationMs": 2000,
        "catchResponseMs": 3000
      },
      "prolific": {
        "prolificPid": "695fd555816e87d0d2f102b0",
        "studyId": "",
        "sessionId": ""
      },
      "timing": {
        "startTime": "2026-03-06T02:59:36.872Z",
        "endTime": "2026-03-06T03:15:14.238Z",
        "totalElapsedTimeMs": 937366
      }
    },
    "trials": [
      {
        "trial_number": 0,
        "trial_index": 131,
        "rt": 896,
        "correct": true,
        "response": "ArrowLeft",
        "congruent": true,
        "gazeTowards": false,
        "gazeCondition": "away",
        "faceOnLeft": false,
        "impliedDirection": 180,
        "testDirection": 180,
        "avgFps": 120,
        "minFps": 118,
        "maxFps": 122,
        "totalFrames": 108,
        "frameRates": 120
      },
      {
        "trial_number": 1,
        "trial_index": 136,
        "rt": 1238,
        "correct": true,
        "response": "ArrowLeft",
        "congruent": false,
        "gazeTowards": false,
        "gazeCondition": "away",
        "faceOnLeft": true,
        "impliedDirection": 0,
        "testDirection": 180,
        "avgFps": 120,
        "minFps": 118,
        "maxFps": 122,
        "totalFrames": 148,
        "frameRates": 120
      },
      {
        "trial_number": 2,
        "trial_index": 141,
        "rt": 1945,
        "correct": true,
        "response": "ArrowLeft",
        "congruent": false,
        "gazeTowards": false,
        "gazeCondition": "away",
        "faceOnLeft": true,
        "impliedDirection": 0,
        "testDirection": 180,
        "avgFps": 120,
        "minFps": 118,
        "maxFps": 122,
        "totalFrames": 233,
        "frameRates": 120
      },
      {
        "trial_number": 3,
        "trial_index": 146,
        "rt": 1721,
        "correct": true,
        "response": "ArrowLeft",
        "congruent": false,
        "gazeTowards": true,
        "gazeCondition": "towards",
        "faceOnLeft": true,
        "impliedDirection": 0,
        "testDirection": 180,
        "avgFps": 120,
        "minFps": 118,
        "maxFps": 122,
        "totalFrames": 206,
        "frameRates": 120
      },
      {
        "trial_number": 4,
        "trial_index": 151,
        "rt": 756,
        "correct": true,
        "response": "ArrowRight",
        "congruent": true,
        "gazeTowards": false,
        "gazeCondition": "away",
        "faceOnLeft": true,
        "impliedDirection": 0,
        "testDirection": 0,
        "avgFps": 120,
        "minFps": 118,
        "maxFps": 122,
        "totalFrames": 91,
        "frameRates": 120
      },
      {
        "trial_number": 5,
        "trial_index": 156,
        "rt": 1303,
        "correct": false,
        "response": "ArrowLeft",
        "congruent": false,
        "gazeTowards": false,
        "gazeCondition": "away",
        "faceOnLeft": false,
        "impliedDirection": 180,
        "testDirection": 0,
        "avgFps": 120,
        "minFps": 118,
        "maxFps": 122,
        "totalFrames": 156,
        "frameRates": 120
      },
      {
        "trial_number": 6,
        "trial_index": 161,
        "rt": 1739,
        "correct": false,
        "response": "ArrowLeft",
        "congruent": true,
        "gazeTowards": true,
        "gazeCondition": "towards",
        "faceOnLeft": true,
        "impliedDirection": 0,
        "testDirection": 0,
        "avgFps": 120,
        "minFps": 118,
        "maxFps": 122,
        "totalFrames": 209,
        "frameRates": 120
      },
      {
        "trial_number": 7,
        "trial_index": 166,
        "rt": 796,
        "correct": true,
        "response": "ArrowLeft",
        "congruent": false,
        "gazeTowards": false,
        "gazeCondition": "away",
        "faceOnLeft": true,
        "impliedDirection": 0,
        "testDirection": 180,
        "avgFps": 120,
        "minFps": 118,
        "maxFps": 122,
        "totalFrames": 96,
        "frameRates": 120
      },
      {
        "trial_number": 8,
        "trial_index": 171,
        "rt": 1503,
        "correct": true,
        "response": "ArrowRight",
        "congruent": false,
        "gazeTowards": false,
        "gazeCondition": "away",
        "faceOnLeft": false,
        "impliedDirection": 180,
        "testDirection": 0,
        "avgFps": 120,
        "minFps": 108,
        "maxFps": 132,
        "totalFrames": 180,
        "frameRates": 120
      },
      {
        "trial_number": 9,
        "trial_index": 176,
        "rt": 894,
        "correct": false,
        "response": "ArrowLeft",
        "congruent": true,
        "gazeTowards": true,
        "gazeCondition": "towards",
        "faceOnLeft": true,
        "impliedDirection": 0,
        "testDirection": 0,
        "avgFps": 120,
        "minFps": 118,
        "maxFps": 122,
        "totalFrames": 107,
        "frameRates": 120
      },
      {
        "trial_number": 10,
        "trial_index": 181,
        "rt": 1835,
        "correct": true,
        "response": "ArrowRight",
        "congruent": true,
        "gazeTowards": false,
        "gazeCondition": "away",
        "faceOnLeft": true,
        "impliedDirection": 0,
        "testDirection": 0,
        "avgFps": 120,
        "minFps": 116,
        "maxFps": 122,
        "totalFrames": 220,
        "frameRates": 120
      },
      {
        "trial_number": 11,
        "trial_index": 186,
        "rt": 1006,
        "correct": true,
        "response": "ArrowLeft",
        "congruent": true,
        "gazeTowards": true,
        "gazeCondition": "towards",
        "faceOnLeft": false,
        "impliedDirection": 180,
        "testDirection": 180,
        "avgFps": 120,
        "minFps": 118,
        "maxFps": 122,
        "totalFrames": 120,
        "frameRates": 120
      },
      {
        "trial_number": 12,
        "trial_index": 194,
        "rt": 2007,
        "correct": true,
        "response": "ArrowLeft",
        "congruent": false,
        "gazeTowards": true,
        "gazeCondition": "towards",
        "faceOnLeft": true,
        "impliedDirection": 0,
        "testDirection": 180,
        "avgFps": 120,
        "minFps": 118,
        "maxFps": 122,
        "totalFrames": 240,
        "frameRates": 120
      },
      {
        "trial_number": 13,
        "trial_index": 202,
        "rt": null,
        "correct": false,
        "response": null,
        "congruent": true,
        "gazeTowards": true,
        "gazeCondition": "towards",
        "faceOnLeft": true,
        "impliedDirection": 0,
        "testDirection": 0,
        "avgFps": 120,
        "minFps": 118,
        "maxFps": 122,
        "totalFrames": 240,
        "frameRates": 120
      },
      {
        "trial_number": 14,
        "trial_index": 207,
        "rt": 1334,
        "correct": false,
        "response": "ArrowLeft",
        "congruent": false,
        "gazeTowards": false,
        "gazeCondition": "away",
        "faceOnLeft": false,
        "impliedDirection": 180,
        "testDirection": 0,
        "avgFps": 120,
        "minFps": 118,
        "maxFps": 122,
        "totalFrames": 160,
        "frameRates": 120
      },
      {
        "trial_number": 15,
        "trial_index": 212,
        "rt": 1534,
        "correct": false,
        "response": "ArrowLeft",
        "congruent": false,
        "gazeTowards": false,
        "gazeCondition": "away",
        "faceOnLeft": false,
        "impliedDirection": 180,
        "testDirection": 0,
        "avgFps": 120,
        "minFps": 118,
        "maxFps": 122,
        "totalFrames": 184,
        "frameRates": 120
      },
      {
        "trial_number": 16,
        "trial_index": 217,
        "rt": 1402,
        "correct": false,
        "response": "ArrowLeft",
        "congruent": false,
        "gazeTowards": false,
        "gazeCondition": "away",
        "faceOnLeft": false,
        "impliedDirection": 180,
        "testDirection": 0,
        "avgFps": 120,
        "minFps": 118,
        "maxFps": 122,
        "totalFrames": 168,
        "frameRates": 120
      },
      {
        "trial_number": 17,
        "trial_index": 222,
        "rt": 786,
        "correct": true,
        "response": "ArrowLeft",
        "congruent": true,
        "gazeTowards": false,
        "gazeCondition": "away",
        "faceOnLeft": false,
        "impliedDirection": 180,
        "testDirection": 180,
        "avgFps": 120,
        "minFps": 119,
        "maxFps": 122,
        "totalFrames": 94,
        "frameRates": 120
      },
      {
        "trial_number": 18,
        "trial_index": 230,
        "rt": 1809,
        "correct": true,
        "response": "ArrowRight",
        "congruent": true,
        "gazeTowards": true,
        "gazeCondition": "towards",
        "faceOnLeft": true,
        "impliedDirection": 0,
        "testDirection": 0,
        "avgFps": 120,
        "minFps": 118,
        "maxFps": 122,
        "totalFrames": 217,
        "frameRates": 120
      },
      {
        "trial_number": 19,
        "trial_index": 235,
        "rt": 1623,
        "correct": true,
        "response": "ArrowLeft",
        "congruent": false,
        "gazeTowards": false,
        "gazeCondition": "away",
        "faceOnLeft": true,
        "impliedDirection": 0,
        "testDirection": 180,
        "avgFps": 120,
        "minFps": 118,
        "maxFps": 122,
        "totalFrames": 195,
        "frameRates": 120
      },
      {
        "trial_number": 20,
        "trial_index": 243,
        "rt": null,
        "correct": false,
        "response": null,
        "congruent": true,
        "gazeTowards": false,
        "gazeCondition": "away",
        "faceOnLeft": true,
        "impliedDirection": 0,
        "testDirection": 0,
        "avgFps": 120,
        "minFps": 118,
        "maxFps": 122,
        "totalFrames": 240,
        "frameRates": 120
      },
      {
        "trial_number": 21,
        "trial_index": 248,
        "rt": 1589,
        "correct": true,
        "response": "ArrowLeft",
        "congruent": true,
        "gazeTowards": true,
        "gazeCondition": "towards",
        "faceOnLeft": false,
        "impliedDirection": 180,
        "testDirection": 180,
        "avgFps": 120,
        "minFps": 118,
        "maxFps": 122,
        "totalFrames": 190,
        "frameRates": 120
      },
      {
        "trial_number": 22,
        "trial_index": 253,
        "rt": 1336,
        "correct": true,
        "response": "ArrowLeft",
        "congruent": true,
        "gazeTowards": false,
        "gazeCondition": "away",
        "faceOnLeft": false,
        "impliedDirection": 180,
        "testDirection": 180,
        "avgFps": 120,
        "minFps": 118,
        "maxFps": 122,
        "totalFrames": 160,
        "frameRates": 120
      },
      {
        "trial_number": 23,
        "trial_index": 258,
        "rt": 950,
        "correct": true,
        "response": "ArrowRight",
        "congruent": true,
        "gazeTowards": false,
        "gazeCondition": "away",
        "faceOnLeft": true,
        "impliedDirection": 0,
        "testDirection": 0,
        "avgFps": 120,
        "minFps": 118,
        "maxFps": 122,
        "totalFrames": 114,
        "frameRates": 120
      },
      {
        "trial_number": 24,
        "trial_index": 263,
        "rt": 1206,
        "correct": true,
        "response": "ArrowLeft",
        "congruent": true,
        "gazeTowards": true,
        "gazeCondition": "towards",
        "faceOnLeft": false,
        "impliedDirection": 180,
        "testDirection": 180,
        "avgFps": 120,
        "minFps": 118,
        "maxFps": 122,
        "totalFrames": 144,
        "frameRates": 120
      },
      {
        "trial_number": 25,
        "trial_index": 271,
        "rt": 1177,
        "correct": true,
        "response": "ArrowLeft",
        "congruent": true,
        "gazeTowards": true,
        "gazeCondition": "towards",
        "faceOnLeft": false,
        "impliedDirection": 180,
        "testDirection": 180,
        "avgFps": 120,
        "minFps": 118,
        "maxFps": 122,
        "totalFrames": 141,
        "frameRates": 120
      },
      {
        "trial_number": 26,
        "trial_index": 276,
        "rt": 837,
        "correct": true,
        "response": "ArrowRight",
        "congruent": true,
        "gazeTowards": false,
        "gazeCondition": "away",
        "faceOnLeft": true,
        "impliedDirection": 0,
        "testDirection": 0,
        "avgFps": 120,
        "minFps": 118,
        "maxFps": 122,
        "totalFrames": 101,
        "frameRates": 120
      },
      {
        "trial_number": 27,
        "trial_index": 281,
        "rt": 894,
        "correct": true,
        "response": "ArrowLeft",
        "congruent": false,
        "gazeTowards": true,
        "gazeCondition": "towards",
        "faceOnLeft": true,
        "impliedDirection": 0,
        "testDirection": 180,
        "avgFps": 120,
        "minFps": 118,
        "maxFps": 122,
        "totalFrames": 108,
        "frameRates": 120
      },
      {
        "trial_number": 28,
        "trial_index": 287,
        "rt": 1021,
        "correct": true,
        "response": "ArrowLeft",
        "congruent": true,
        "gazeTowards": true,
        "gazeCondition": "towards",
        "faceOnLeft": false,
        "impliedDirection": 180,
        "testDirection": 180,
        "avgFps": 120,
        "minFps": 118,
        "maxFps": 122,
        "totalFrames": 122,
        "frameRates": 120
      },
      {
        "trial_number": 29,
        "trial_index": 292,
        "rt": 729,
        "correct": true,
        "response": "ArrowRight",
        "congruent": false,
        "gazeTowards": true,
        "gazeCondition": "towards",
        "faceOnLeft": false,
        "impliedDirection": 180,
        "testDirection": 0,
        "avgFps": 120,
        "minFps": 118,
        "maxFps": 122,
        "totalFrames": 87,
        "frameRates": 120
      },
      {
        "trial_number": 30,
        "trial_index": 297,
        "rt": 1069,
        "correct": true,
        "response": "ArrowRight",
        "congruent": false,
        "gazeTowards": true,
        "gazeCondition": "towards",
        "faceOnLeft": false,
        "impliedDirection": 180,
        "testDirection": 0,
        "avgFps": 120,
        "minFps": 118,
        "maxFps": 122,
        "totalFrames": 128,
        "frameRates": 120
      },
      {
        "trial_number": 31,
        "trial_index": 302,
        "rt": 1005,
        "correct": true,
        "response": "ArrowRight",
        "congruent": false,
        "gazeTowards": true,
        "gazeCondition": "towards",
        "faceOnLeft": false,
        "impliedDirection": 180,
        "testDirection": 0,
        "avgFps": 120,
        "minFps": 118,
        "maxFps": 122,
        "totalFrames": 121,
        "frameRates": 120
      },
      {
        "trial_number": 32,
        "trial_index": 307,
        "rt": 777,
        "correct": true,
        "response": "ArrowLeft",
        "congruent": true,
        "gazeTowards": true,
        "gazeCondition": "towards",
        "faceOnLeft": false,
        "impliedDirection": 180,
        "testDirection": 180,
        "avgFps": 120,
        "minFps": 119,
        "maxFps": 122,
        "totalFrames": 93,
        "frameRates": 120
      },
      {
        "trial_number": 33,
        "trial_index": 312,
        "rt": 927,
        "correct": true,
        "response": "ArrowRight",
        "congruent": true,
        "gazeTowards": false,
        "gazeCondition": "away",
        "faceOnLeft": true,
        "impliedDirection": 0,
        "testDirection": 0,
        "avgFps": 120,
        "minFps": 119,
        "maxFps": 122,
        "totalFrames": 111,
        "frameRates": 120
      },
      {
        "trial_number": 34,
        "trial_index": 317,
        "rt": 1085,
        "correct": true,
        "response": "ArrowRight",
        "congruent": false,
        "gazeTowards": false,
        "gazeCondition": "away",
        "faceOnLeft": false,
        "impliedDirection": 180,
        "testDirection": 0,
        "avgFps": 120,
        "minFps": 118,
        "maxFps": 122,
        "totalFrames": 130,
        "frameRates": 120
      },
      {
        "trial_number": 35,
        "trial_index": 322,
        "rt": 895,
        "correct": true,
        "response": "ArrowRight",
        "congruent": false,
        "gazeTowards": true,
        "gazeCondition": "towards",
        "faceOnLeft": false,
        "impliedDirection": 180,
        "testDirection": 0,
        "avgFps": 120,
        "minFps": 118,
        "maxFps": 122,
        "totalFrames": 108,
        "frameRates": 120
      },
      {
        "trial_number": 36,
        "trial_index": 327,
        "rt": 925,
        "correct": true,
        "response": "ArrowRight",
        "congruent": true,
        "gazeTowards": true,
        "gazeCondition": "towards",
        "faceOnLeft": true,
        "impliedDirection": 0,
        "testDirection": 0,
        "avgFps": 120,
        "minFps": 119,
        "maxFps": 122,
        "totalFrames": 111,
        "frameRates": 120
      },
      {
        "trial_number": 37,
        "trial_index": 332,
        "rt": 693,
        "correct": true,
        "response": "ArrowLeft",
        "congruent": false,
        "gazeTowards": false,
        "gazeCondition": "away",
        "faceOnLeft": true,
        "impliedDirection": 0,
        "testDirection": 180,
        "avgFps": 120,
        "minFps": 118,
        "maxFps": 122,
        "totalFrames": 83,
        "frameRates": 120
      },
      {
        "trial_number": 38,
        "trial_index": 337,
        "rt": 747,
        "correct": true,
        "response": "ArrowRight",
        "congruent": false,
        "gazeTowards": false,
        "gazeCondition": "away",
        "faceOnLeft": false,
        "impliedDirection": 180,
        "testDirection": 0,
        "avgFps": 120,
        "minFps": 119,
        "maxFps": 122,
        "totalFrames": 89,
        "frameRates": 120
      },
      {
        "trial_number": 39,
        "trial_index": 342,
        "rt": 755,
        "correct": true,
        "response": "ArrowLeft",
        "congruent": true,
        "gazeTowards": false,
        "gazeCondition": "away",
        "faceOnLeft": false,
        "impliedDirection": 180,
        "testDirection": 180,
        "avgFps": 120,
        "minFps": 119,
        "maxFps": 122,
        "totalFrames": 91,
        "frameRates": 120
      },
      {
        "trial_number": 40,
        "trial_index": 347,
        "rt": 708,
        "correct": true,
        "response": "ArrowLeft",
        "congruent": false,
        "gazeTowards": false,
        "gazeCondition": "away",
        "faceOnLeft": true,
        "impliedDirection": 0,
        "testDirection": 180,
        "avgFps": 120,
        "minFps": 118,
        "maxFps": 122,
        "totalFrames": 85,
        "frameRates": 120
      },
      {
        "trial_number": 41,
        "trial_index": 352,
        "rt": 1111,
        "correct": true,
        "response": "ArrowRight",
        "congruent": false,
        "gazeTowards": true,
        "gazeCondition": "towards",
        "faceOnLeft": false,
        "impliedDirection": 180,
        "testDirection": 0,
        "avgFps": 120,
        "minFps": 118,
        "maxFps": 122,
        "totalFrames": 133,
        "frameRates": 120
      },
      {
        "trial_number": 42,
        "trial_index": 360,
        "rt": 1292,
        "correct": true,
        "response": "ArrowLeft",
        "congruent": false,
        "gazeTowards": true,
        "gazeCondition": "towards",
        "faceOnLeft": true,
        "impliedDirection": 0,
        "testDirection": 180,
        "avgFps": 120,
        "minFps": 118,
        "maxFps": 122,
        "totalFrames": 155,
        "frameRates": 120
      },
      {
        "trial_number": 43,
        "trial_index": 365,
        "rt": 856,
        "correct": true,
        "response": "ArrowRight",
        "congruent": false,
        "gazeTowards": false,
        "gazeCondition": "away",
        "faceOnLeft": false,
        "impliedDirection": 180,
        "testDirection": 0,
        "avgFps": 120,
        "minFps": 119,
        "maxFps": 122,
        "totalFrames": 103,
        "frameRates": 120
      },
      {
        "trial_number": 44,
        "trial_index": 370,
        "rt": 778,
        "correct": true,
        "response": "ArrowRight",
        "congruent": false,
        "gazeTowards": false,
        "gazeCondition": "away",
        "faceOnLeft": false,
        "impliedDirection": 180,
        "testDirection": 0,
        "avgFps": 120,
        "minFps": 118,
        "maxFps": 122,
        "totalFrames": 93,
        "frameRates": 120
      },
      {
        "trial_number": 45,
        "trial_index": 375,
        "rt": 1352,
        "correct": true,
        "response": "ArrowRight",
        "congruent": true,
        "gazeTowards": true,
        "gazeCondition": "towards",
        "faceOnLeft": true,
        "impliedDirection": 0,
        "testDirection": 0,
        "avgFps": 119,
        "minFps": 57,
        "maxFps": 132,
        "totalFrames": 162,
        "frameRates": 119
      },
      {
        "trial_number": 46,
        "trial_index": 380,
        "rt": 751,
        "correct": true,
        "response": "ArrowLeft",
        "congruent": true,
        "gazeTowards": true,
        "gazeCondition": "towards",
        "faceOnLeft": false,
        "impliedDirection": 180,
        "testDirection": 180,
        "avgFps": 120,
        "minFps": 119,
        "maxFps": 122,
        "totalFrames": 90,
        "frameRates": 120
      },
      {
        "trial_number": 47,
        "trial_index": 385,
        "rt": 1064,
        "correct": true,
        "response": "ArrowRight",
        "congruent": true,
        "gazeTowards": true,
        "gazeCondition": "towards",
        "faceOnLeft": true,
        "impliedDirection": 0,
        "testDirection": 0,
        "avgFps": 120,
        "minFps": 118,
        "maxFps": 122,
        "totalFrames": 128,
        "frameRates": 120
      },
      {
        "trial_number": 48,
        "trial_index": 390,
        "rt": 655,
        "correct": true,
        "response": "ArrowLeft",
        "congruent": true,
        "gazeTowards": true,
        "gazeCondition": "towards",
        "faceOnLeft": false,
        "impliedDirection": 180,
        "testDirection": 180,
        "avgFps": 120,
        "minFps": 118,
        "maxFps": 123,
        "totalFrames": 79,
        "frameRates": 120
      },
      {
        "trial_number": 49,
        "trial_index": 395,
        "rt": 761,
        "correct": true,
        "response": "ArrowLeft",
        "congruent": false,
        "gazeTowards": true,
        "gazeCondition": "towards",
        "faceOnLeft": true,
        "impliedDirection": 0,
        "testDirection": 180,
        "avgFps": 119,
        "minFps": 56,
        "maxFps": 133,
        "totalFrames": 91,
        "frameRates": 119
      },
      {
        "trial_number": 50,
        "trial_index": 400,
        "rt": 802,
        "correct": true,
        "response": "ArrowRight",
        "congruent": false,
        "gazeTowards": true,
        "gazeCondition": "towards",
        "faceOnLeft": false,
        "impliedDirection": 180,
        "testDirection": 0,
        "avgFps": 120,
        "minFps": 103,
        "maxFps": 141,
        "totalFrames": 96,
        "frameRates": 120
      },
      {
        "trial_number": 51,
        "trial_index": 405,
        "rt": 899,
        "correct": true,
        "response": "ArrowRight",
        "congruent": false,
        "gazeTowards": false,
        "gazeCondition": "away",
        "faceOnLeft": false,
        "impliedDirection": 180,
        "testDirection": 0,
        "avgFps": 120,
        "minFps": 118,
        "maxFps": 122,
        "totalFrames": 108,
        "frameRates": 120
      },
      {
        "trial_number": 52,
        "trial_index": 410,
        "rt": 645,
        "correct": true,
        "response": "ArrowRight",
        "congruent": false,
        "gazeTowards": false,
        "gazeCondition": "away",
        "faceOnLeft": false,
        "impliedDirection": 180,
        "testDirection": 0,
        "avgFps": 118,
        "minFps": 55,
        "maxFps": 145,
        "totalFrames": 77,
        "frameRates": 118
      },
      {
        "trial_number": 53,
        "trial_index": 415,
        "rt": 733,
        "correct": true,
        "response": "ArrowLeft",
        "congruent": false,
        "gazeTowards": true,
        "gazeCondition": "towards",
        "faceOnLeft": true,
        "impliedDirection": 0,
        "testDirection": 180,
        "avgFps": 119,
        "minFps": 56,
        "maxFps": 133,
        "totalFrames": 87,
        "frameRates": 119
      },
      {
        "trial_number": 54,
        "trial_index": 420,
        "rt": 1164,
        "correct": true,
        "response": "ArrowLeft",
        "congruent": false,
        "gazeTowards": true,
        "gazeCondition": "towards",
        "faceOnLeft": true,
        "impliedDirection": 0,
        "testDirection": 180,
        "avgFps": 119,
        "minFps": 55,
        "maxFps": 147,
        "totalFrames": 139,
        "frameRates": 119
      },
      {
        "trial_number": 55,
        "trial_index": 425,
        "rt": 1138,
        "correct": true,
        "response": "ArrowRight",
        "congruent": true,
        "gazeTowards": true,
        "gazeCondition": "towards",
        "faceOnLeft": true,
        "impliedDirection": 0,
        "testDirection": 0,
        "avgFps": 119,
        "minFps": 55,
        "maxFps": 147,
        "totalFrames": 136,
        "frameRates": 119
      },
      {
        "trial_number": 56,
        "trial_index": 433,
        "rt": 1009,
        "correct": true,
        "response": "ArrowLeft",
        "congruent": false,
        "gazeTowards": true,
        "gazeCondition": "towards",
        "faceOnLeft": true,
        "impliedDirection": 0,
        "testDirection": 180,
        "avgFps": 120,
        "minFps": 119,
        "maxFps": 122,
        "totalFrames": 121,
        "frameRates": 120
      },
      {
        "trial_number": 57,
        "trial_index": 438,
        "rt": 833,
        "correct": true,
        "response": "ArrowRight",
        "congruent": true,
        "gazeTowards": true,
        "gazeCondition": "towards",
        "faceOnLeft": true,
        "impliedDirection": 0,
        "testDirection": 0,
        "avgFps": 120,
        "minFps": 118,
        "maxFps": 122,
        "totalFrames": 100,
        "frameRates": 120
      },
      {
        "trial_number": 58,
        "trial_index": 443,
        "rt": 792,
        "correct": true,
        "response": "ArrowRight",
        "congruent": false,
        "gazeTowards": true,
        "gazeCondition": "towards",
        "faceOnLeft": false,
        "impliedDirection": 180,
        "testDirection": 0,
        "avgFps": 120,
        "minFps": 118,
        "maxFps": 122,
        "totalFrames": 95,
        "frameRates": 120
      },
      {
        "trial_number": 59,
        "trial_index": 449,
        "rt": 971,
        "correct": true,
        "response": "ArrowRight",
        "congruent": false,
        "gazeTowards": false,
        "gazeCondition": "away",
        "faceOnLeft": false,
        "impliedDirection": 180,
        "testDirection": 0,
        "avgFps": 120,
        "minFps": 118,
        "maxFps": 122,
        "totalFrames": 117,
        "frameRates": 120
      },
      {
        "trial_number": 60,
        "trial_index": 454,
        "rt": 1085,
        "correct": true,
        "response": "ArrowRight",
        "congruent": false,
        "gazeTowards": false,
        "gazeCondition": "away",
        "faceOnLeft": false,
        "impliedDirection": 180,
        "testDirection": 0,
        "avgFps": 120,
        "minFps": 118,
        "maxFps": 122,
        "totalFrames": 130,
        "frameRates": 120
      },
      {
        "trial_number": 61,
        "trial_index": 459,
        "rt": 711,
        "correct": true,
        "response": "ArrowRight",
        "congruent": false,
        "gazeTowards": true,
        "gazeCondition": "towards",
        "faceOnLeft": false,
        "impliedDirection": 180,
        "testDirection": 0,
        "avgFps": 120,
        "minFps": 118,
        "maxFps": 122,
        "totalFrames": 86,
        "frameRates": 120
      },
      {
        "trial_number": 62,
        "trial_index": 464,
        "rt": 631,
        "correct": true,
        "response": "ArrowRight",
        "congruent": false,
        "gazeTowards": true,
        "gazeCondition": "towards",
        "faceOnLeft": false,
        "impliedDirection": 180,
        "testDirection": 0,
        "avgFps": 120,
        "minFps": 118,
        "maxFps": 122,
        "totalFrames": 76,
        "frameRates": 120
      },
      {
        "trial_number": 63,
        "trial_index": 469,
        "rt": 966,
        "correct": true,
        "response": "ArrowRight",
        "congruent": true,
        "gazeTowards": false,
        "gazeCondition": "away",
        "faceOnLeft": true,
        "impliedDirection": 0,
        "testDirection": 0,
        "avgFps": 120,
        "minFps": 118,
        "maxFps": 122,
        "totalFrames": 116,
        "frameRates": 120
      },
      {
        "trial_number": 64,
        "trial_index": 474,
        "rt": 596,
        "correct": true,
        "response": "ArrowLeft",
        "congruent": true,
        "gazeTowards": false,
        "gazeCondition": "away",
        "faceOnLeft": false,
        "impliedDirection": 180,
        "testDirection": 180,
        "avgFps": 120,
        "minFps": 119,
        "maxFps": 122,
        "totalFrames": 72,
        "frameRates": 120
      },
      {
        "trial_number": 65,
        "trial_index": 479,
        "rt": 763,
        "correct": true,
        "response": "ArrowLeft",
        "congruent": false,
        "gazeTowards": true,
        "gazeCondition": "towards",
        "faceOnLeft": true,
        "impliedDirection": 0,
        "testDirection": 180,
        "avgFps": 120,
        "minFps": 118,
        "maxFps": 122,
        "totalFrames": 92,
        "frameRates": 120
      },
      {
        "trial_number": 66,
        "trial_index": 484,
        "rt": 680,
        "correct": true,
        "response": "ArrowRight",
        "congruent": true,
        "gazeTowards": true,
        "gazeCondition": "towards",
        "faceOnLeft": true,
        "impliedDirection": 0,
        "testDirection": 0,
        "avgFps": 120,
        "minFps": 118,
        "maxFps": 122,
        "totalFrames": 81,
        "frameRates": 120
      },
      {
        "trial_number": 67,
        "trial_index": 489,
        "rt": 1006,
        "correct": true,
        "response": "ArrowLeft",
        "congruent": false,
        "gazeTowards": true,
        "gazeCondition": "towards",
        "faceOnLeft": true,
        "impliedDirection": 0,
        "testDirection": 180,
        "avgFps": 120,
        "minFps": 118,
        "maxFps": 122,
        "totalFrames": 120,
        "frameRates": 120
      },
      {
        "trial_number": 68,
        "trial_index": 494,
        "rt": 1194,
        "correct": true,
        "response": "ArrowLeft",
        "congruent": true,
        "gazeTowards": true,
        "gazeCondition": "towards",
        "faceOnLeft": false,
        "impliedDirection": 180,
        "testDirection": 180,
        "avgFps": 120,
        "minFps": 118,
        "maxFps": 122,
        "totalFrames": 144,
        "frameRates": 120
      },
      {
        "trial_number": 69,
        "trial_index": 499,
        "rt": 814,
        "correct": true,
        "response": "ArrowRight",
        "congruent": true,
        "gazeTowards": true,
        "gazeCondition": "towards",
        "faceOnLeft": true,
        "impliedDirection": 0,
        "testDirection": 0,
        "avgFps": 119,
        "minFps": 54,
        "maxFps": 154,
        "totalFrames": 97,
        "frameRates": 119
      },
      {
        "trial_number": 70,
        "trial_index": 504,
        "rt": 894,
        "correct": true,
        "response": "ArrowLeft",
        "congruent": false,
        "gazeTowards": false,
        "gazeCondition": "away",
        "faceOnLeft": true,
        "impliedDirection": 0,
        "testDirection": 180,
        "avgFps": 120,
        "minFps": 118,
        "maxFps": 122,
        "totalFrames": 107,
        "frameRates": 120
      },
      {
        "trial_number": 71,
        "trial_index": 509,
        "rt": 1288,
        "correct": true,
        "response": "ArrowRight",
        "congruent": false,
        "gazeTowards": false,
        "gazeCondition": "away",
        "faceOnLeft": false,
        "impliedDirection": 180,
        "testDirection": 0,
        "avgFps": 120,
        "minFps": 101,
        "maxFps": 145,
        "totalFrames": 154,
        "frameRates": 120
      },
      {
        "trial_number": 72,
        "trial_index": 514,
        "rt": 818,
        "correct": true,
        "response": "ArrowRight",
        "congruent": true,
        "gazeTowards": false,
        "gazeCondition": "away",
        "faceOnLeft": true,
        "impliedDirection": 0,
        "testDirection": 0,
        "avgFps": 120,
        "minFps": 119,
        "maxFps": 122,
        "totalFrames": 98,
        "frameRates": 120
      },
      {
        "trial_number": 73,
        "trial_index": 519,
        "rt": 1081,
        "correct": true,
        "response": "ArrowLeft",
        "congruent": false,
        "gazeTowards": false,
        "gazeCondition": "away",
        "faceOnLeft": true,
        "impliedDirection": 0,
        "testDirection": 180,
        "avgFps": 120,
        "minFps": 118,
        "maxFps": 122,
        "totalFrames": 129,
        "frameRates": 120
      },
      {
        "trial_number": 74,
        "trial_index": 524,
        "rt": 883,
        "correct": true,
        "response": "ArrowRight",
        "congruent": false,
        "gazeTowards": true,
        "gazeCondition": "towards",
        "faceOnLeft": false,
        "impliedDirection": 180,
        "testDirection": 0,
        "avgFps": 120,
        "minFps": 118,
        "maxFps": 122,
        "totalFrames": 106,
        "frameRates": 120
      },
      {
        "trial_number": 75,
        "trial_index": 529,
        "rt": 943,
        "correct": true,
        "response": "ArrowRight",
        "congruent": true,
        "gazeTowards": true,
        "gazeCondition": "towards",
        "faceOnLeft": true,
        "impliedDirection": 0,
        "testDirection": 0,
        "avgFps": 120,
        "minFps": 118,
        "maxFps": 122,
        "totalFrames": 113,
        "frameRates": 120
      },
      {
        "trial_number": 76,
        "trial_index": 534,
        "rt": 1427,
        "correct": true,
        "response": "ArrowLeft",
        "congruent": false,
        "gazeTowards": true,
        "gazeCondition": "towards",
        "faceOnLeft": true,
        "impliedDirection": 0,
        "testDirection": 180,
        "avgFps": 119,
        "minFps": 60,
        "maxFps": 122,
        "totalFrames": 170,
        "frameRates": 119
      },
      {
        "trial_number": 77,
        "trial_index": 539,
        "rt": 1166,
        "correct": true,
        "response": "ArrowLeft",
        "congruent": true,
        "gazeTowards": true,
        "gazeCondition": "towards",
        "faceOnLeft": false,
        "impliedDirection": 180,
        "testDirection": 180,
        "avgFps": 120,
        "minFps": 118,
        "maxFps": 122,
        "totalFrames": 140,
        "frameRates": 120
      },
      {
        "trial_number": 78,
        "trial_index": 544,
        "rt": 1099,
        "correct": true,
        "response": "ArrowRight",
        "congruent": false,
        "gazeTowards": true,
        "gazeCondition": "towards",
        "faceOnLeft": false,
        "impliedDirection": 180,
        "testDirection": 0,
        "avgFps": 120,
        "minFps": 119,
        "maxFps": 122,
        "totalFrames": 132,
        "frameRates": 120
      },
      {
        "trial_number": 79,
        "trial_index": 549,
        "rt": 1049,
        "correct": true,
        "response": "ArrowLeft",
        "congruent": true,
        "gazeTowards": false,
        "gazeCondition": "away",
        "faceOnLeft": false,
        "impliedDirection": 180,
        "testDirection": 180,
        "avgFps": 120,
        "minFps": 118,
        "maxFps": 122,
        "totalFrames": 126,
        "frameRates": 120
      },
      {
        "trial_number": 80,
        "trial_index": 554,
        "rt": 892,
        "correct": true,
        "response": "ArrowLeft",
        "congruent": true,
        "gazeTowards": true,
        "gazeCondition": "towards",
        "faceOnLeft": false,
        "impliedDirection": 180,
        "testDirection": 180,
        "avgFps": 120,
        "minFps": 118,
        "maxFps": 122,
        "totalFrames": 107,
        "frameRates": 120
      },
      {
        "trial_number": 81,
        "trial_index": 559,
        "rt": 1020,
        "correct": true,
        "response": "ArrowLeft",
        "congruent": true,
        "gazeTowards": false,
        "gazeCondition": "away",
        "faceOnLeft": false,
        "impliedDirection": 180,
        "testDirection": 180,
        "avgFps": 120,
        "minFps": 119,
        "maxFps": 122,
        "totalFrames": 123,
        "frameRates": 120
      },
      {
        "trial_number": 82,
        "trial_index": 564,
        "rt": 821,
        "correct": true,
        "response": "ArrowLeft",
        "congruent": true,
        "gazeTowards": false,
        "gazeCondition": "away",
        "faceOnLeft": false,
        "impliedDirection": 180,
        "testDirection": 180,
        "avgFps": 120,
        "minFps": 118,
        "maxFps": 122,
        "totalFrames": 99,
        "frameRates": 120
      },
      {
        "trial_number": 83,
        "trial_index": 569,
        "rt": 1034,
        "correct": true,
        "response": "ArrowLeft",
        "congruent": true,
        "gazeTowards": false,
        "gazeCondition": "away",
        "faceOnLeft": false,
        "impliedDirection": 180,
        "testDirection": 180,
        "avgFps": 120,
        "minFps": 119,
        "maxFps": 122,
        "totalFrames": 124,
        "frameRates": 120
      },
      {
        "trial_number": 84,
        "trial_index": 574,
        "rt": null,
        "correct": false,
        "response": null,
        "congruent": false,
        "gazeTowards": false,
        "gazeCondition": "away",
        "faceOnLeft": true,
        "impliedDirection": 0,
        "testDirection": 180,
        "avgFps": 120,
        "minFps": 118,
        "maxFps": 122,
        "totalFrames": 241,
        "frameRates": 120
      },
      {
        "trial_number": 85,
        "trial_index": 579,
        "rt": 758,
        "correct": true,
        "response": "ArrowRight",
        "congruent": false,
        "gazeTowards": false,
        "gazeCondition": "away",
        "faceOnLeft": false,
        "impliedDirection": 180,
        "testDirection": 0,
        "avgFps": 120,
        "minFps": 118,
        "maxFps": 122,
        "totalFrames": 90,
        "frameRates": 120
      },
      {
        "trial_number": 86,
        "trial_index": 587,
        "rt": 642,
        "correct": true,
        "response": "ArrowLeft",
        "congruent": true,
        "gazeTowards": false,
        "gazeCondition": "away",
        "faceOnLeft": false,
        "impliedDirection": 180,
        "testDirection": 180,
        "avgFps": 120,
        "minFps": 118,
        "maxFps": 122,
        "totalFrames": 77,
        "frameRates": 120
      },
      {
        "trial_number": 87,
        "trial_index": 592,
        "rt": 731,
        "correct": true,
        "response": "ArrowRight",
        "congruent": true,
        "gazeTowards": false,
        "gazeCondition": "away",
        "faceOnLeft": true,
        "impliedDirection": 0,
        "testDirection": 0,
        "avgFps": 120,
        "minFps": 118,
        "maxFps": 122,
        "totalFrames": 88,
        "frameRates": 120
      },
      {
        "trial_number": 88,
        "trial_index": 597,
        "rt": 606,
        "correct": true,
        "response": "ArrowLeft",
        "congruent": true,
        "gazeTowards": true,
        "gazeCondition": "towards",
        "faceOnLeft": false,
        "impliedDirection": 180,
        "testDirection": 180,
        "avgFps": 120,
        "minFps": 118,
        "maxFps": 122,
        "totalFrames": 72,
        "frameRates": 120
      },
      {
        "trial_number": 89,
        "trial_index": 602,
        "rt": 1073,
        "correct": true,
        "response": "ArrowLeft",
        "congruent": false,
        "gazeTowards": false,
        "gazeCondition": "away",
        "faceOnLeft": true,
        "impliedDirection": 0,
        "testDirection": 180,
        "avgFps": 120,
        "minFps": 118,
        "maxFps": 122,
        "totalFrames": 129,
        "frameRates": 120
      },
      {
        "trial_number": 90,
        "trial_index": 607,
        "rt": 814,
        "correct": true,
        "response": "ArrowRight",
        "congruent": false,
        "gazeTowards": true,
        "gazeCondition": "towards",
        "faceOnLeft": false,
        "impliedDirection": 180,
        "testDirection": 0,
        "avgFps": 120,
        "minFps": 116,
        "maxFps": 122,
        "totalFrames": 97,
        "frameRates": 120
      },
      {
        "trial_number": 91,
        "trial_index": 613,
        "rt": 758,
        "correct": true,
        "response": "ArrowLeft",
        "congruent": true,
        "gazeTowards": false,
        "gazeCondition": "away",
        "faceOnLeft": false,
        "impliedDirection": 180,
        "testDirection": 180,
        "avgFps": 120,
        "minFps": 118,
        "maxFps": 122,
        "totalFrames": 91,
        "frameRates": 120
      },
      {
        "trial_number": 92,
        "trial_index": 618,
        "rt": 800,
        "correct": true,
        "response": "ArrowLeft",
        "congruent": false,
        "gazeTowards": true,
        "gazeCondition": "towards",
        "faceOnLeft": true,
        "impliedDirection": 0,
        "testDirection": 180,
        "avgFps": 120,
        "minFps": 118,
        "maxFps": 122,
        "totalFrames": 96,
        "frameRates": 120
      },
      {
        "trial_number": 93,
        "trial_index": 623,
        "rt": 753,
        "correct": true,
        "response": "ArrowLeft",
        "congruent": false,
        "gazeTowards": false,
        "gazeCondition": "away",
        "faceOnLeft": true,
        "impliedDirection": 0,
        "testDirection": 180,
        "avgFps": 120,
        "minFps": 118,
        "maxFps": 122,
        "totalFrames": 90,
        "frameRates": 120
      },
      {
        "trial_number": 94,
        "trial_index": 628,
        "rt": 737,
        "correct": true,
        "response": "ArrowLeft",
        "congruent": true,
        "gazeTowards": false,
        "gazeCondition": "away",
        "faceOnLeft": false,
        "impliedDirection": 180,
        "testDirection": 180,
        "avgFps": 120,
        "minFps": 118,
        "maxFps": 122,
        "totalFrames": 88,
        "frameRates": 120
      },
      {
        "trial_number": 95,
        "trial_index": 633,
        "rt": 625,
        "correct": true,
        "response": "ArrowLeft",
        "congruent": false,
        "gazeTowards": true,
        "gazeCondition": "towards",
        "faceOnLeft": true,
        "impliedDirection": 0,
        "testDirection": 180,
        "avgFps": 120,
        "minFps": 118,
        "maxFps": 122,
        "totalFrames": 75,
        "frameRates": 120
      },
      {
        "trial_number": 96,
        "trial_index": 638,
        "rt": 857,
        "correct": true,
        "response": "ArrowLeft",
        "congruent": true,
        "gazeTowards": true,
        "gazeCondition": "towards",
        "faceOnLeft": false,
        "impliedDirection": 180,
        "testDirection": 180,
        "avgFps": 120,
        "minFps": 119,
        "maxFps": 122,
        "totalFrames": 103,
        "frameRates": 120
      },
      {
        "trial_number": 97,
        "trial_index": 643,
        "rt": 677,
        "correct": true,
        "response": "ArrowRight",
        "congruent": true,
        "gazeTowards": true,
        "gazeCondition": "towards",
        "faceOnLeft": true,
        "impliedDirection": 0,
        "testDirection": 0,
        "avgFps": 120,
        "minFps": 118,
        "maxFps": 122,
        "totalFrames": 81,
        "frameRates": 120
      },
      {
        "trial_number": 98,
        "trial_index": 648,
        "rt": 872,
        "correct": true,
        "response": "ArrowRight",
        "congruent": true,
        "gazeTowards": true,
        "gazeCondition": "towards",
        "faceOnLeft": true,
        "impliedDirection": 0,
        "testDirection": 0,
        "avgFps": 120,
        "minFps": 119,
        "maxFps": 122,
        "totalFrames": 104,
        "frameRates": 120
      },
      {
        "trial_number": 99,
        "trial_index": 653,
        "rt": 1001,
        "correct": true,
        "response": "ArrowRight",
        "congruent": true,
        "gazeTowards": true,
        "gazeCondition": "towards",
        "faceOnLeft": true,
        "impliedDirection": 0,
        "testDirection": 0,
        "avgFps": 120,
        "minFps": 118,
        "maxFps": 122,
        "totalFrames": 120,
        "frameRates": 120
      },
      {
        "trial_number": 100,
        "trial_index": 658,
        "rt": 763,
        "correct": true,
        "response": "ArrowRight",
        "congruent": false,
        "gazeTowards": true,
        "gazeCondition": "towards",
        "faceOnLeft": false,
        "impliedDirection": 180,
        "testDirection": 0,
        "avgFps": 120,
        "minFps": 118,
        "maxFps": 122,
        "totalFrames": 92,
        "frameRates": 120
      },
      {
        "trial_number": 101,
        "trial_index": 663,
        "rt": 686,
        "correct": true,
        "response": "ArrowLeft",
        "congruent": false,
        "gazeTowards": true,
        "gazeCondition": "towards",
        "faceOnLeft": true,
        "impliedDirection": 0,
        "testDirection": 180,
        "avgFps": 120,
        "minFps": 118,
        "maxFps": 122,
        "totalFrames": 82,
        "frameRates": 120
      },
      {
        "trial_number": 102,
        "trial_index": 668,
        "rt": 1211,
        "correct": true,
        "response": "ArrowRight",
        "congruent": false,
        "gazeTowards": true,
        "gazeCondition": "towards",
        "faceOnLeft": false,
        "impliedDirection": 180,
        "testDirection": 0,
        "avgFps": 120,
        "minFps": 101,
        "maxFps": 141,
        "totalFrames": 145,
        "frameRates": 120
      },
      {
        "trial_number": 103,
        "trial_index": 676,
        "rt": 577,
        "correct": true,
        "response": "ArrowLeft",
        "congruent": true,
        "gazeTowards": false,
        "gazeCondition": "away",
        "faceOnLeft": false,
        "impliedDirection": 180,
        "testDirection": 180,
        "avgFps": 120,
        "minFps": 118,
        "maxFps": 122,
        "totalFrames": 69,
        "frameRates": 120
      },
      {
        "trial_number": 104,
        "trial_index": 681,
        "rt": 635,
        "correct": true,
        "response": "ArrowLeft",
        "congruent": false,
        "gazeTowards": true,
        "gazeCondition": "towards",
        "faceOnLeft": true,
        "impliedDirection": 0,
        "testDirection": 180,
        "avgFps": 120,
        "minFps": 119,
        "maxFps": 122,
        "totalFrames": 76,
        "frameRates": 120
      },
      {
        "trial_number": 105,
        "trial_index": 686,
        "rt": 649,
        "correct": true,
        "response": "ArrowRight",
        "congruent": true,
        "gazeTowards": false,
        "gazeCondition": "away",
        "faceOnLeft": true,
        "impliedDirection": 0,
        "testDirection": 0,
        "avgFps": 120,
        "minFps": 117,
        "maxFps": 122,
        "totalFrames": 78,
        "frameRates": 120
      },
      {
        "trial_number": 106,
        "trial_index": 691,
        "rt": 681,
        "correct": true,
        "response": "ArrowLeft",
        "congruent": true,
        "gazeTowards": false,
        "gazeCondition": "away",
        "faceOnLeft": false,
        "impliedDirection": 180,
        "testDirection": 180,
        "avgFps": 120,
        "minFps": 118,
        "maxFps": 122,
        "totalFrames": 82,
        "frameRates": 120
      },
      {
        "trial_number": 107,
        "trial_index": 702,
        "rt": 818,
        "correct": true,
        "response": "ArrowRight",
        "congruent": false,
        "gazeTowards": false,
        "gazeCondition": "away",
        "faceOnLeft": false,
        "impliedDirection": 180,
        "testDirection": 0,
        "avgFps": 120,
        "minFps": 118,
        "maxFps": 122,
        "totalFrames": 98,
        "frameRates": 120
      },
      {
        "trial_number": 108,
        "trial_index": 707,
        "rt": 635,
        "correct": true,
        "response": "ArrowRight",
        "congruent": true,
        "gazeTowards": false,
        "gazeCondition": "away",
        "faceOnLeft": true,
        "impliedDirection": 0,
        "testDirection": 0,
        "avgFps": 120,
        "minFps": 119,
        "maxFps": 122,
        "totalFrames": 76,
        "frameRates": 120
      },
      {
        "trial_number": 109,
        "trial_index": 712,
        "rt": 819,
        "correct": true,
        "response": "ArrowRight",
        "congruent": false,
        "gazeTowards": false,
        "gazeCondition": "away",
        "faceOnLeft": false,
        "impliedDirection": 180,
        "testDirection": 0,
        "avgFps": 120,
        "minFps": 119,
        "maxFps": 122,
        "totalFrames": 98,
        "frameRates": 120
      },
      {
        "trial_number": 110,
        "trial_index": 720,
        "rt": 636,
        "correct": true,
        "response": "ArrowRight",
        "congruent": true,
        "gazeTowards": true,
        "gazeCondition": "towards",
        "faceOnLeft": true,
        "impliedDirection": 0,
        "testDirection": 0,
        "avgFps": 120,
        "minFps": 119,
        "maxFps": 122,
        "totalFrames": 76,
        "frameRates": 120
      },
      {
        "trial_number": 111,
        "trial_index": 725,
        "rt": 1109,
        "correct": true,
        "response": "ArrowLeft",
        "congruent": false,
        "gazeTowards": false,
        "gazeCondition": "away",
        "faceOnLeft": true,
        "impliedDirection": 0,
        "testDirection": 180,
        "avgFps": 120,
        "minFps": 118,
        "maxFps": 122,
        "totalFrames": 133,
        "frameRates": 120
      },
      {
        "trial_number": 112,
        "trial_index": 730,
        "rt": 910,
        "correct": true,
        "response": "ArrowLeft",
        "congruent": true,
        "gazeTowards": false,
        "gazeCondition": "away",
        "faceOnLeft": false,
        "impliedDirection": 180,
        "testDirection": 180,
        "avgFps": 120,
        "minFps": 118,
        "maxFps": 122,
        "totalFrames": 109,
        "frameRates": 120
      },
      {
        "trial_number": 113,
        "trial_index": 735,
        "rt": 1034,
        "correct": true,
        "response": "ArrowLeft",
        "congruent": true,
        "gazeTowards": true,
        "gazeCondition": "towards",
        "faceOnLeft": false,
        "impliedDirection": 180,
        "testDirection": 180,
        "avgFps": 120,
        "minFps": 118,
        "maxFps": 122,
        "totalFrames": 124,
        "frameRates": 120
      },
      {
        "trial_number": 114,
        "trial_index": 740,
        "rt": 840,
        "correct": true,
        "response": "ArrowRight",
        "congruent": false,
        "gazeTowards": true,
        "gazeCondition": "towards",
        "faceOnLeft": false,
        "impliedDirection": 180,
        "testDirection": 0,
        "avgFps": 119,
        "minFps": 57,
        "maxFps": 132,
        "totalFrames": 100,
        "frameRates": 119
      },
      {
        "trial_number": 115,
        "trial_index": 745,
        "rt": 1004,
        "correct": true,
        "response": "ArrowLeft",
        "congruent": true,
        "gazeTowards": false,
        "gazeCondition": "away",
        "faceOnLeft": false,
        "impliedDirection": 180,
        "testDirection": 180,
        "avgFps": 120,
        "minFps": 118,
        "maxFps": 122,
        "totalFrames": 121,
        "frameRates": 120
      },
      {
        "trial_number": 116,
        "trial_index": 750,
        "rt": 721,
        "correct": true,
        "response": "ArrowLeft",
        "congruent": true,
        "gazeTowards": false,
        "gazeCondition": "away",
        "faceOnLeft": false,
        "impliedDirection": 180,
        "testDirection": 180,
        "avgFps": 120,
        "minFps": 118,
        "maxFps": 122,
        "totalFrames": 86,
        "frameRates": 120
      },
      {
        "trial_number": 117,
        "trial_index": 755,
        "rt": 723,
        "correct": true,
        "response": "ArrowRight",
        "congruent": true,
        "gazeTowards": false,
        "gazeCondition": "away",
        "faceOnLeft": true,
        "impliedDirection": 0,
        "testDirection": 0,
        "avgFps": 120,
        "minFps": 118,
        "maxFps": 122,
        "totalFrames": 87,
        "frameRates": 120
      },
      {
        "trial_number": 118,
        "trial_index": 760,
        "rt": 660,
        "correct": true,
        "response": "ArrowLeft",
        "congruent": false,
        "gazeTowards": false,
        "gazeCondition": "away",
        "faceOnLeft": true,
        "impliedDirection": 0,
        "testDirection": 180,
        "avgFps": 120,
        "minFps": 116,
        "maxFps": 122,
        "totalFrames": 79,
        "frameRates": 120
      },
      {
        "trial_number": 119,
        "trial_index": 765,
        "rt": 907,
        "correct": true,
        "response": "ArrowLeft",
        "congruent": true,
        "gazeTowards": false,
        "gazeCondition": "away",
        "faceOnLeft": false,
        "impliedDirection": 180,
        "testDirection": 180,
        "avgFps": 120,
        "minFps": 119,
        "maxFps": 122,
        "totalFrames": 109,
        "frameRates": 120
      }
    ],
    "catch": {
      "total": 12,
      "correct": 12,
      "accuracy": 100,
      "meanRT": 667,
      "trials": [
        {
          "trial_number": 0,
          "trial_index": 190,
          "rt": 749,
          "correct": true,
          "colorTarget": "face",
          "gazeTowards": true,
          "gazeCondition": "towards",
          "faceOnLeft": false
        },
        {
          "trial_number": 1,
          "trial_index": 198,
          "rt": 652,
          "correct": true,
          "colorTarget": "face",
          "gazeTowards": true,
          "gazeCondition": "towards",
          "faceOnLeft": true
        },
        {
          "trial_number": 2,
          "trial_index": 226,
          "rt": 579,
          "correct": true,
          "colorTarget": "face",
          "gazeTowards": true,
          "gazeCondition": "towards",
          "faceOnLeft": false
        },
        {
          "trial_number": 3,
          "trial_index": 239,
          "rt": 1060,
          "correct": true,
          "colorTarget": "tree",
          "gazeTowards": false,
          "gazeCondition": "away",
          "faceOnLeft": false
        },
        {
          "trial_number": 4,
          "trial_index": 267,
          "rt": 607,
          "correct": true,
          "colorTarget": "tree",
          "gazeTowards": false,
          "gazeCondition": "away",
          "faceOnLeft": true
        },
        {
          "trial_number": 5,
          "trial_index": 356,
          "rt": 711,
          "correct": true,
          "colorTarget": "face",
          "gazeTowards": true,
          "gazeCondition": "towards",
          "faceOnLeft": true
        },
        {
          "trial_number": 6,
          "trial_index": 429,
          "rt": 666,
          "correct": true,
          "colorTarget": "face",
          "gazeTowards": true,
          "gazeCondition": "towards",
          "faceOnLeft": false
        },
        {
          "trial_number": 7,
          "trial_index": 583,
          "rt": 669,
          "correct": true,
          "colorTarget": "tree",
          "gazeTowards": true,
          "gazeCondition": "towards",
          "faceOnLeft": true
        },
        {
          "trial_number": 8,
          "trial_index": 672,
          "rt": 593,
          "correct": true,
          "colorTarget": "tree",
          "gazeTowards": true,
          "gazeCondition": "towards",
          "faceOnLeft": true
        },
        {
          "trial_number": 9,
          "trial_index": 695,
          "rt": 537,
          "correct": true,
          "colorTarget": "tree",
          "gazeTowards": false,
          "gazeCondition": "away",
          "faceOnLeft": true
        },
        {
          "trial_number": 10,
          "trial_index": 698,
          "rt": 605,
          "correct": true,
          "colorTarget": "face",
          "gazeTowards": true,
          "gazeCondition": "towards",
          "faceOnLeft": true
        },
        {
          "trial_number": 11,
          "trial_index": 716,
          "rt": 580,
          "correct": true,
          "colorTarget": "tree",
          "gazeTowards": false,
          "gazeCondition": "away",
          "faceOnLeft": false
        }
      ]
    },
    "practice": {
      "trials": [
        {
          "trial_number": 0,
          "rt": null,
          "correct": false,
          "direction": 180
        },
        {
          "trial_number": 1,
          "rt": null,
          "correct": false,
          "direction": 180
        },
        {
          "trial_number": 2,
          "rt": 974,
          "correct": false,
          "direction": 180
        },
        {
          "trial_number": 3,
          "rt": 1510,
          "correct": true,
          "direction": 0
        },
        {
          "trial_number": 4,
          "rt": null,
          "correct": false,
          "direction": 180
        },
        {
          "trial_number": 5,
          "rt": 812,
          "correct": true,
          "direction": 0
        },
        {
          "trial_number": 6,
          "rt": 1375,
          "correct": true,
          "direction": 0
        },
        {
          "trial_number": 7,
          "rt": 645,
          "correct": true,
          "direction": 180
        },
        {
          "trial_number": 8,
          "rt": 626,
          "correct": true,
          "direction": 0
        },
        {
          "trial_number": 9,
          "rt": 1324,
          "correct": false,
          "direction": 0
        },
        {
          "trial_number": 10,
          "rt": 691,
          "correct": true,
          "direction": 180
        },
        {
          "trial_number": 11,
          "rt": 1163,
          "correct": true,
          "direction": 180
        },
        {
          "trial_number": 12,
          "rt": 1574,
          "correct": false,
          "direction": 180
        },
        {
          "trial_number": 13,
          "rt": 574,
          "correct": true,
          "direction": 0
        },
        {
          "trial_number": 14,
          "rt": 714,
          "correct": true,
          "direction": 180
        },
        {
          "trial_number": 15,
          "rt": 849,
          "correct": true,
          "direction": 0
        },
        {
          "trial_number": 16,
          "rt": 1213,
          "correct": false,
          "direction": 0
        },
        {
          "trial_number": 17,
          "rt": 705,
          "correct": true,
          "direction": 180
        },
        {
          "trial_number": 18,
          "rt": 770,
          "correct": true,
          "direction": 0
        },
        {
          "trial_number": 19,
          "rt": 1160,
          "correct": false,
          "direction": 0
        },
        {
          "trial_number": 20,
          "rt": 1433,
          "correct": true,
          "direction": 180
        },
        {
          "trial_number": 21,
          "rt": 1752,
          "correct": true,
          "direction": 180
        },
        {
          "trial_number": 22,
          "rt": 724,
          "correct": true,
          "direction": 180
        },
        {
          "trial_number": 23,
          "rt": 624,
          "correct": true,
          "direction": 0
        },
        {
          "trial_number": 24,
          "rt": 686,
          "correct": true,
          "direction": 180
        },
        {
          "trial_number": 25,
          "rt": 720,
          "correct": true,
          "direction": 0
        },
        {
          "trial_number": 26,
          "rt": 1288,
          "correct": true,
          "direction": 0
        },
        {
          "trial_number": 27,
          "rt": 656,
          "correct": true,
          "direction": 180
        },
        {
          "trial_number": 28,
          "rt": 733,
          "correct": true,
          "direction": 0
        },
        {
          "trial_number": 29,
          "rt": 1407,
          "correct": false,
          "direction": 0
        }
      ],
      "meanRT": 989,
      "accuracy": 70
    }
  }
}