{
  "experiment": "rdk-face-1",
  "UUID": "c30d5d9a-ebac-43bb-ad0b-540423d9e3fd",
  "data": {
    "session": {
      "experiment_version": "1.8.6",
      "treatment": "faces_towards_away_catch",
      "file_version": "1.8.6",
      "totalTrials": 120,
      "totalTrialsIncludingCatch": 132,
      "conditions": {
        "gazeTowardsCount": 60,
        "gazeAwayCount": 60,
        "gazeTowardsAccuracy": 92,
        "gazeAwayAccuracy": 92
      },
      "session_group": "default",
      "browserData": {
        "os": "Mac",
        "browser": "Chrome",
        "screenResolution": "1680x1050",
        "browserViewport": "1680x1050",
        "devicePixelRatio": 2,
        "colorDepth": 24,
        "hardwareConcurrency": 2,
        "deviceMemory": 8,
        "gpuRenderer": "ANGLE (Intel, ANGLE Metal Renderer: Intel(R) UHD Graphics 617, Unspecified Version)",
        "measuredRefreshRateHz": 59
      },
      "attention": {
        "visibilityEvents": []
      },
      "calibration": {
        "monitorWidthCm": 38,
        "viewingDistanceCm": 54,
        "pixelsPerDegree": 50
      },
      "parameters": {
        "coherence": 0.4,
        "apertureDeg": 5,
        "densityDotsPerDeg2": 40,
        "dotDiameterDeg": 0.035,
        "dotSpeedDegPerSec": 3,
        "lifetimeMs": 200,
        "fixationDurationMs": 1500,
        "faceDurationMs": 1500,
        "testDurationMs": 2000,
        "catchResponseMs": 3000
      },
      "prolific": {
        "prolificPid": "6980ff10f40903e69dd2e00a",
        "studyId": "",
        "sessionId": ""
      },
      "timing": {
        "startTime": "2026-03-06T04:16:11.263Z",
        "endTime": "2026-03-06T04:30:53.343Z",
        "totalElapsedTimeMs": 882080
      }
    },
    "trials": [
      {
        "trial_number": 0,
        "trial_index": 90,
        "rt": 1218,
        "correct": true,
        "response": "ArrowRight",
        "congruent": false,
        "gazeTowards": false,
        "gazeCondition": "away",
        "faceOnLeft": false,
        "impliedDirection": 180,
        "testDirection": 0,
        "avgFps": 59,
        "minFps": 32,
        "maxFps": 64,
        "totalFrames": 73,
        "frameRates": 59
      },
      {
        "trial_number": 1,
        "trial_index": 95,
        "rt": 1171,
        "correct": true,
        "response": "ArrowLeft",
        "congruent": false,
        "gazeTowards": false,
        "gazeCondition": "away",
        "faceOnLeft": true,
        "impliedDirection": 0,
        "testDirection": 180,
        "avgFps": 60,
        "minFps": 56,
        "maxFps": 69,
        "totalFrames": 71,
        "frameRates": 60
      },
      {
        "trial_number": 2,
        "trial_index": 100,
        "rt": 1163,
        "correct": true,
        "response": "ArrowLeft",
        "congruent": true,
        "gazeTowards": false,
        "gazeCondition": "away",
        "faceOnLeft": false,
        "impliedDirection": 180,
        "testDirection": 180,
        "avgFps": 61,
        "minFps": 57,
        "maxFps": 113,
        "totalFrames": 70,
        "frameRates": 61
      },
      {
        "trial_number": 3,
        "trial_index": 105,
        "rt": 1284,
        "correct": true,
        "response": "ArrowRight",
        "congruent": false,
        "gazeTowards": false,
        "gazeCondition": "away",
        "faceOnLeft": false,
        "impliedDirection": 180,
        "testDirection": 0,
        "avgFps": 60,
        "minFps": 57,
        "maxFps": 101,
        "totalFrames": 77,
        "frameRates": 60
      },
      {
        "trial_number": 4,
        "trial_index": 113,
        "rt": 1140,
        "correct": true,
        "response": "ArrowRight",
        "congruent": true,
        "gazeTowards": false,
        "gazeCondition": "away",
        "faceOnLeft": true,
        "impliedDirection": 0,
        "testDirection": 0,
        "avgFps": 60,
        "minFps": 56,
        "maxFps": 74,
        "totalFrames": 68,
        "frameRates": 60
      },
      {
        "trial_number": 5,
        "trial_index": 118,
        "rt": 1554,
        "correct": true,
        "response": "ArrowLeft",
        "congruent": false,
        "gazeTowards": false,
        "gazeCondition": "away",
        "faceOnLeft": true,
        "impliedDirection": 0,
        "testDirection": 180,
        "avgFps": 60,
        "minFps": 56,
        "maxFps": 69,
        "totalFrames": 93,
        "frameRates": 60
      },
      {
        "trial_number": 6,
        "trial_index": 123,
        "rt": 1222,
        "correct": true,
        "response": "ArrowLeft",
        "congruent": false,
        "gazeTowards": true,
        "gazeCondition": "towards",
        "faceOnLeft": true,
        "impliedDirection": 0,
        "testDirection": 180,
        "avgFps": 60,
        "minFps": 38,
        "maxFps": 64,
        "totalFrames": 73,
        "frameRates": 60
      },
      {
        "trial_number": 7,
        "trial_index": 128,
        "rt": 1124,
        "correct": true,
        "response": "ArrowLeft",
        "congruent": false,
        "gazeTowards": false,
        "gazeCondition": "away",
        "faceOnLeft": true,
        "impliedDirection": 0,
        "testDirection": 180,
        "avgFps": 60,
        "minFps": 57,
        "maxFps": 69,
        "totalFrames": 67,
        "frameRates": 60
      },
      {
        "trial_number": 8,
        "trial_index": 133,
        "rt": 1049,
        "correct": true,
        "response": "ArrowLeft",
        "congruent": false,
        "gazeTowards": false,
        "gazeCondition": "away",
        "faceOnLeft": true,
        "impliedDirection": 0,
        "testDirection": 180,
        "avgFps": 60,
        "minFps": 57,
        "maxFps": 96,
        "totalFrames": 63,
        "frameRates": 60
      },
      {
        "trial_number": 9,
        "trial_index": 138,
        "rt": 912,
        "correct": true,
        "response": "ArrowRight",
        "congruent": true,
        "gazeTowards": true,
        "gazeCondition": "towards",
        "faceOnLeft": true,
        "impliedDirection": 0,
        "testDirection": 0,
        "avgFps": 60,
        "minFps": 56,
        "maxFps": 71,
        "totalFrames": 55,
        "frameRates": 60
      },
      {
        "trial_number": 10,
        "trial_index": 146,
        "rt": 1103,
        "correct": true,
        "response": "ArrowLeft",
        "congruent": false,
        "gazeTowards": true,
        "gazeCondition": "towards",
        "faceOnLeft": true,
        "impliedDirection": 0,
        "testDirection": 180,
        "avgFps": 61,
        "minFps": 57,
        "maxFps": 132,
        "totalFrames": 67,
        "frameRates": 61
      },
      {
        "trial_number": 11,
        "trial_index": 151,
        "rt": 889,
        "correct": true,
        "response": "ArrowRight",
        "congruent": true,
        "gazeTowards": true,
        "gazeCondition": "towards",
        "faceOnLeft": true,
        "impliedDirection": 0,
        "testDirection": 0,
        "avgFps": 60,
        "minFps": 57,
        "maxFps": 84,
        "totalFrames": 53,
        "frameRates": 60
      },
      {
        "trial_number": 12,
        "trial_index": 156,
        "rt": 965,
        "correct": true,
        "response": "ArrowLeft",
        "congruent": true,
        "gazeTowards": false,
        "gazeCondition": "away",
        "faceOnLeft": false,
        "impliedDirection": 180,
        "testDirection": 180,
        "avgFps": 59,
        "minFps": 37,
        "maxFps": 64,
        "totalFrames": 57,
        "frameRates": 59
      },
      {
        "trial_number": 13,
        "trial_index": 161,
        "rt": 1010,
        "correct": true,
        "response": "ArrowLeft",
        "congruent": false,
        "gazeTowards": true,
        "gazeCondition": "towards",
        "faceOnLeft": true,
        "impliedDirection": 0,
        "testDirection": 180,
        "avgFps": 61,
        "minFps": 57,
        "maxFps": 115,
        "totalFrames": 61,
        "frameRates": 61
      },
      {
        "trial_number": 14,
        "trial_index": 166,
        "rt": 1233,
        "correct": true,
        "response": "ArrowRight",
        "congruent": false,
        "gazeTowards": false,
        "gazeCondition": "away",
        "faceOnLeft": false,
        "impliedDirection": 180,
        "testDirection": 0,
        "avgFps": 60,
        "minFps": 39,
        "maxFps": 64,
        "totalFrames": 74,
        "frameRates": 60
      },
      {
        "trial_number": 15,
        "trial_index": 171,
        "rt": 1382,
        "correct": true,
        "response": "ArrowRight",
        "congruent": false,
        "gazeTowards": true,
        "gazeCondition": "towards",
        "faceOnLeft": false,
        "impliedDirection": 180,
        "testDirection": 0,
        "avgFps": 60,
        "minFps": 56,
        "maxFps": 90,
        "totalFrames": 83,
        "frameRates": 60
      },
      {
        "trial_number": 16,
        "trial_index": 176,
        "rt": 1088,
        "correct": true,
        "response": "ArrowLeft",
        "congruent": false,
        "gazeTowards": true,
        "gazeCondition": "towards",
        "faceOnLeft": true,
        "impliedDirection": 0,
        "testDirection": 180,
        "avgFps": 60,
        "minFps": 56,
        "maxFps": 70,
        "totalFrames": 65,
        "frameRates": 60
      },
      {
        "trial_number": 17,
        "trial_index": 181,
        "rt": 1520,
        "correct": true,
        "response": "ArrowLeft",
        "congruent": false,
        "gazeTowards": false,
        "gazeCondition": "away",
        "faceOnLeft": true,
        "impliedDirection": 0,
        "testDirection": 180,
        "avgFps": 60,
        "minFps": 56,
        "maxFps": 75,
        "totalFrames": 91,
        "frameRates": 60
      },
      {
        "trial_number": 18,
        "trial_index": 186,
        "rt": 990,
        "correct": true,
        "response": "ArrowRight",
        "congruent": false,
        "gazeTowards": false,
        "gazeCondition": "away",
        "faceOnLeft": false,
        "impliedDirection": 180,
        "testDirection": 0,
        "avgFps": 60,
        "minFps": 57,
        "maxFps": 65,
        "totalFrames": 59,
        "frameRates": 60
      },
      {
        "trial_number": 19,
        "trial_index": 191,
        "rt": 1394,
        "correct": true,
        "response": "ArrowRight",
        "congruent": false,
        "gazeTowards": false,
        "gazeCondition": "away",
        "faceOnLeft": false,
        "impliedDirection": 180,
        "testDirection": 0,
        "avgFps": 60,
        "minFps": 57,
        "maxFps": 116,
        "totalFrames": 84,
        "frameRates": 60
      },
      {
        "trial_number": 20,
        "trial_index": 196,
        "rt": 1077,
        "correct": true,
        "response": "ArrowLeft",
        "congruent": true,
        "gazeTowards": true,
        "gazeCondition": "towards",
        "faceOnLeft": false,
        "impliedDirection": 180,
        "testDirection": 180,
        "avgFps": 60,
        "minFps": 56,
        "maxFps": 70,
        "totalFrames": 65,
        "frameRates": 60
      },
      {
        "trial_number": 21,
        "trial_index": 201,
        "rt": 1694,
        "correct": true,
        "response": "ArrowLeft",
        "congruent": true,
        "gazeTowards": false,
        "gazeCondition": "away",
        "faceOnLeft": false,
        "impliedDirection": 180,
        "testDirection": 180,
        "avgFps": 60,
        "minFps": 56,
        "maxFps": 70,
        "totalFrames": 102,
        "frameRates": 60
      },
      {
        "trial_number": 22,
        "trial_index": 206,
        "rt": 1311,
        "correct": true,
        "response": "ArrowRight",
        "congruent": false,
        "gazeTowards": true,
        "gazeCondition": "towards",
        "faceOnLeft": false,
        "impliedDirection": 180,
        "testDirection": 0,
        "avgFps": 60,
        "minFps": 56,
        "maxFps": 119,
        "totalFrames": 79,
        "frameRates": 60
      },
      {
        "trial_number": 23,
        "trial_index": 211,
        "rt": 1736,
        "correct": false,
        "response": "ArrowRight",
        "congruent": false,
        "gazeTowards": false,
        "gazeCondition": "away",
        "faceOnLeft": true,
        "impliedDirection": 0,
        "testDirection": 180,
        "avgFps": 60,
        "minFps": 57,
        "maxFps": 98,
        "totalFrames": 104,
        "frameRates": 60
      },
      {
        "trial_number": 24,
        "trial_index": 216,
        "rt": 1100,
        "correct": true,
        "response": "ArrowRight",
        "congruent": false,
        "gazeTowards": true,
        "gazeCondition": "towards",
        "faceOnLeft": false,
        "impliedDirection": 180,
        "testDirection": 0,
        "avgFps": 60,
        "minFps": 57,
        "maxFps": 100,
        "totalFrames": 66,
        "frameRates": 60
      },
      {
        "trial_number": 25,
        "trial_index": 221,
        "rt": 1818,
        "correct": true,
        "response": "ArrowRight",
        "congruent": true,
        "gazeTowards": true,
        "gazeCondition": "towards",
        "faceOnLeft": true,
        "impliedDirection": 0,
        "testDirection": 0,
        "avgFps": 60,
        "minFps": 57,
        "maxFps": 109,
        "totalFrames": 109,
        "frameRates": 60
      },
      {
        "trial_number": 26,
        "trial_index": 226,
        "rt": null,
        "correct": false,
        "response": null,
        "congruent": true,
        "gazeTowards": true,
        "gazeCondition": "towards",
        "faceOnLeft": true,
        "impliedDirection": 0,
        "testDirection": 0,
        "avgFps": 60,
        "minFps": 57,
        "maxFps": 111,
        "totalFrames": 120,
        "frameRates": 60
      },
      {
        "trial_number": 27,
        "trial_index": 231,
        "rt": 1136,
        "correct": false,
        "response": "ArrowRight",
        "congruent": true,
        "gazeTowards": true,
        "gazeCondition": "towards",
        "faceOnLeft": false,
        "impliedDirection": 180,
        "testDirection": 180,
        "avgFps": 60,
        "minFps": 57,
        "maxFps": 69,
        "totalFrames": 68,
        "frameRates": 60
      },
      {
        "trial_number": 28,
        "trial_index": 236,
        "rt": 855,
        "correct": true,
        "response": "ArrowRight",
        "congruent": true,
        "gazeTowards": false,
        "gazeCondition": "away",
        "faceOnLeft": true,
        "impliedDirection": 0,
        "testDirection": 0,
        "avgFps": 61,
        "minFps": 57,
        "maxFps": 109,
        "totalFrames": 51,
        "frameRates": 61
      },
      {
        "trial_number": 29,
        "trial_index": 241,
        "rt": 676,
        "correct": true,
        "response": "ArrowLeft",
        "congruent": false,
        "gazeTowards": true,
        "gazeCondition": "towards",
        "faceOnLeft": true,
        "impliedDirection": 0,
        "testDirection": 180,
        "avgFps": 60,
        "minFps": 56,
        "maxFps": 72,
        "totalFrames": 40,
        "frameRates": 60
      },
      {
        "trial_number": 30,
        "trial_index": 246,
        "rt": 1354,
        "correct": true,
        "response": "ArrowRight",
        "congruent": false,
        "gazeTowards": true,
        "gazeCondition": "towards",
        "faceOnLeft": false,
        "impliedDirection": 180,
        "testDirection": 0,
        "avgFps": 60,
        "minFps": 56,
        "maxFps": 83,
        "totalFrames": 81,
        "frameRates": 60
      },
      {
        "trial_number": 31,
        "trial_index": 252,
        "rt": 1104,
        "correct": true,
        "response": "ArrowLeft",
        "congruent": true,
        "gazeTowards": false,
        "gazeCondition": "away",
        "faceOnLeft": false,
        "impliedDirection": 180,
        "testDirection": 180,
        "avgFps": 60,
        "minFps": 56,
        "maxFps": 88,
        "totalFrames": 67,
        "frameRates": 60
      },
      {
        "trial_number": 32,
        "trial_index": 257,
        "rt": 866,
        "correct": true,
        "response": "ArrowRight",
        "congruent": true,
        "gazeTowards": false,
        "gazeCondition": "away",
        "faceOnLeft": true,
        "impliedDirection": 0,
        "testDirection": 0,
        "avgFps": 61,
        "minFps": 57,
        "maxFps": 101,
        "totalFrames": 52,
        "frameRates": 61
      },
      {
        "trial_number": 33,
        "trial_index": 262,
        "rt": 981,
        "correct": true,
        "response": "ArrowLeft",
        "congruent": true,
        "gazeTowards": true,
        "gazeCondition": "towards",
        "faceOnLeft": false,
        "impliedDirection": 180,
        "testDirection": 180,
        "avgFps": 61,
        "minFps": 56,
        "maxFps": 110,
        "totalFrames": 59,
        "frameRates": 61
      },
      {
        "trial_number": 34,
        "trial_index": 267,
        "rt": 1371,
        "correct": true,
        "response": "ArrowRight",
        "congruent": false,
        "gazeTowards": true,
        "gazeCondition": "towards",
        "faceOnLeft": false,
        "impliedDirection": 180,
        "testDirection": 0,
        "avgFps": 60,
        "minFps": 57,
        "maxFps": 74,
        "totalFrames": 82,
        "frameRates": 60
      },
      {
        "trial_number": 35,
        "trial_index": 272,
        "rt": 871,
        "correct": true,
        "response": "ArrowLeft",
        "congruent": true,
        "gazeTowards": false,
        "gazeCondition": "away",
        "faceOnLeft": false,
        "impliedDirection": 180,
        "testDirection": 180,
        "avgFps": 61,
        "minFps": 57,
        "maxFps": 116,
        "totalFrames": 52,
        "frameRates": 61
      },
      {
        "trial_number": 36,
        "trial_index": 280,
        "rt": 1032,
        "correct": true,
        "response": "ArrowLeft",
        "congruent": false,
        "gazeTowards": false,
        "gazeCondition": "away",
        "faceOnLeft": true,
        "impliedDirection": 0,
        "testDirection": 180,
        "avgFps": 60,
        "minFps": 57,
        "maxFps": 70,
        "totalFrames": 62,
        "frameRates": 60
      },
      {
        "trial_number": 37,
        "trial_index": 285,
        "rt": 1544,
        "correct": true,
        "response": "ArrowLeft",
        "congruent": true,
        "gazeTowards": true,
        "gazeCondition": "towards",
        "faceOnLeft": false,
        "impliedDirection": 180,
        "testDirection": 180,
        "avgFps": 60,
        "minFps": 57,
        "maxFps": 98,
        "totalFrames": 93,
        "frameRates": 60
      },
      {
        "trial_number": 38,
        "trial_index": 290,
        "rt": 846,
        "correct": false,
        "response": "ArrowRight",
        "congruent": true,
        "gazeTowards": true,
        "gazeCondition": "towards",
        "faceOnLeft": false,
        "impliedDirection": 180,
        "testDirection": 180,
        "avgFps": 60,
        "minFps": 57,
        "maxFps": 87,
        "totalFrames": 51,
        "frameRates": 60
      },
      {
        "trial_number": 39,
        "trial_index": 295,
        "rt": 696,
        "correct": true,
        "response": "ArrowRight",
        "congruent": true,
        "gazeTowards": false,
        "gazeCondition": "away",
        "faceOnLeft": true,
        "impliedDirection": 0,
        "testDirection": 0,
        "avgFps": 61,
        "minFps": 58,
        "maxFps": 102,
        "totalFrames": 42,
        "frameRates": 61
      },
      {
        "trial_number": 40,
        "trial_index": 300,
        "rt": 1038,
        "correct": true,
        "response": "ArrowLeft",
        "congruent": true,
        "gazeTowards": true,
        "gazeCondition": "towards",
        "faceOnLeft": false,
        "impliedDirection": 180,
        "testDirection": 180,
        "avgFps": 60,
        "minFps": 57,
        "maxFps": 80,
        "totalFrames": 62,
        "frameRates": 60
      },
      {
        "trial_number": 41,
        "trial_index": 305,
        "rt": 1031,
        "correct": true,
        "response": "ArrowLeft",
        "congruent": true,
        "gazeTowards": false,
        "gazeCondition": "away",
        "faceOnLeft": false,
        "impliedDirection": 180,
        "testDirection": 180,
        "avgFps": 60,
        "minFps": 57,
        "maxFps": 96,
        "totalFrames": 62,
        "frameRates": 60
      },
      {
        "trial_number": 42,
        "trial_index": 310,
        "rt": 1280,
        "correct": true,
        "response": "ArrowLeft",
        "congruent": false,
        "gazeTowards": false,
        "gazeCondition": "away",
        "faceOnLeft": true,
        "impliedDirection": 0,
        "testDirection": 180,
        "avgFps": 60,
        "minFps": 56,
        "maxFps": 70,
        "totalFrames": 77,
        "frameRates": 60
      },
      {
        "trial_number": 43,
        "trial_index": 318,
        "rt": 833,
        "correct": true,
        "response": "ArrowLeft",
        "congruent": true,
        "gazeTowards": true,
        "gazeCondition": "towards",
        "faceOnLeft": false,
        "impliedDirection": 180,
        "testDirection": 180,
        "avgFps": 61,
        "minFps": 57,
        "maxFps": 100,
        "totalFrames": 50,
        "frameRates": 61
      },
      {
        "trial_number": 44,
        "trial_index": 323,
        "rt": 815,
        "correct": true,
        "response": "ArrowRight",
        "congruent": true,
        "gazeTowards": true,
        "gazeCondition": "towards",
        "faceOnLeft": true,
        "impliedDirection": 0,
        "testDirection": 0,
        "avgFps": 59,
        "minFps": 38,
        "maxFps": 63,
        "totalFrames": 48,
        "frameRates": 59
      },
      {
        "trial_number": 45,
        "trial_index": 328,
        "rt": 847,
        "correct": true,
        "response": "ArrowLeft",
        "congruent": true,
        "gazeTowards": true,
        "gazeCondition": "towards",
        "faceOnLeft": false,
        "impliedDirection": 180,
        "testDirection": 180,
        "avgFps": 60,
        "minFps": 57,
        "maxFps": 74,
        "totalFrames": 51,
        "frameRates": 60
      },
      {
        "trial_number": 46,
        "trial_index": 333,
        "rt": 944,
        "correct": true,
        "response": "ArrowRight",
        "congruent": true,
        "gazeTowards": true,
        "gazeCondition": "towards",
        "faceOnLeft": true,
        "impliedDirection": 0,
        "testDirection": 0,
        "avgFps": 60,
        "minFps": 56,
        "maxFps": 69,
        "totalFrames": 57,
        "frameRates": 60
      },
      {
        "trial_number": 47,
        "trial_index": 338,
        "rt": 1133,
        "correct": true,
        "response": "ArrowLeft",
        "congruent": false,
        "gazeTowards": false,
        "gazeCondition": "away",
        "faceOnLeft": true,
        "impliedDirection": 0,
        "testDirection": 180,
        "avgFps": 60,
        "minFps": 57,
        "maxFps": 69,
        "totalFrames": 68,
        "frameRates": 60
      },
      {
        "trial_number": 48,
        "trial_index": 343,
        "rt": 772,
        "correct": true,
        "response": "ArrowLeft",
        "congruent": false,
        "gazeTowards": true,
        "gazeCondition": "towards",
        "faceOnLeft": true,
        "impliedDirection": 0,
        "testDirection": 180,
        "avgFps": 59,
        "minFps": 37,
        "maxFps": 64,
        "totalFrames": 46,
        "frameRates": 59
      },
      {
        "trial_number": 49,
        "trial_index": 348,
        "rt": 690,
        "correct": true,
        "response": "ArrowLeft",
        "congruent": false,
        "gazeTowards": true,
        "gazeCondition": "towards",
        "faceOnLeft": true,
        "impliedDirection": 0,
        "testDirection": 180,
        "avgFps": 60,
        "minFps": 57,
        "maxFps": 70,
        "totalFrames": 41,
        "frameRates": 60
      },
      {
        "trial_number": 50,
        "trial_index": 353,
        "rt": 681,
        "correct": true,
        "response": "ArrowRight",
        "congruent": true,
        "gazeTowards": false,
        "gazeCondition": "away",
        "faceOnLeft": true,
        "impliedDirection": 0,
        "testDirection": 0,
        "avgFps": 60,
        "minFps": 57,
        "maxFps": 75,
        "totalFrames": 41,
        "frameRates": 60
      },
      {
        "trial_number": 51,
        "trial_index": 358,
        "rt": 777,
        "correct": true,
        "response": "ArrowRight",
        "congruent": false,
        "gazeTowards": false,
        "gazeCondition": "away",
        "faceOnLeft": false,
        "impliedDirection": 180,
        "testDirection": 0,
        "avgFps": 60,
        "minFps": 57,
        "maxFps": 87,
        "totalFrames": 47,
        "frameRates": 60
      },
      {
        "trial_number": 52,
        "trial_index": 363,
        "rt": 839,
        "correct": true,
        "response": "ArrowRight",
        "congruent": false,
        "gazeTowards": false,
        "gazeCondition": "away",
        "faceOnLeft": false,
        "impliedDirection": 180,
        "testDirection": 0,
        "avgFps": 61,
        "minFps": 56,
        "maxFps": 105,
        "totalFrames": 51,
        "frameRates": 61
      },
      {
        "trial_number": 53,
        "trial_index": 368,
        "rt": 741,
        "correct": true,
        "response": "ArrowLeft",
        "congruent": false,
        "gazeTowards": true,
        "gazeCondition": "towards",
        "faceOnLeft": true,
        "impliedDirection": 0,
        "testDirection": 180,
        "avgFps": 60,
        "minFps": 57,
        "maxFps": 84,
        "totalFrames": 44,
        "frameRates": 60
      },
      {
        "trial_number": 54,
        "trial_index": 373,
        "rt": 801,
        "correct": true,
        "response": "ArrowRight",
        "congruent": false,
        "gazeTowards": true,
        "gazeCondition": "towards",
        "faceOnLeft": false,
        "impliedDirection": 180,
        "testDirection": 0,
        "avgFps": 61,
        "minFps": 58,
        "maxFps": 118,
        "totalFrames": 48,
        "frameRates": 61
      },
      {
        "trial_number": 55,
        "trial_index": 378,
        "rt": 805,
        "correct": true,
        "response": "ArrowRight",
        "congruent": false,
        "gazeTowards": true,
        "gazeCondition": "towards",
        "faceOnLeft": false,
        "impliedDirection": 180,
        "testDirection": 0,
        "avgFps": 60,
        "minFps": 56,
        "maxFps": 69,
        "totalFrames": 48,
        "frameRates": 60
      },
      {
        "trial_number": 56,
        "trial_index": 386,
        "rt": 1355,
        "correct": true,
        "response": "ArrowRight",
        "congruent": false,
        "gazeTowards": true,
        "gazeCondition": "towards",
        "faceOnLeft": false,
        "impliedDirection": 180,
        "testDirection": 0,
        "avgFps": 60,
        "minFps": 58,
        "maxFps": 126,
        "totalFrames": 82,
        "frameRates": 60
      },
      {
        "trial_number": 57,
        "trial_index": 391,
        "rt": 1257,
        "correct": true,
        "response": "ArrowLeft",
        "congruent": false,
        "gazeTowards": true,
        "gazeCondition": "towards",
        "faceOnLeft": true,
        "impliedDirection": 0,
        "testDirection": 180,
        "avgFps": 60,
        "minFps": 37,
        "maxFps": 64,
        "totalFrames": 75,
        "frameRates": 60
      },
      {
        "trial_number": 58,
        "trial_index": 399,
        "rt": 1172,
        "correct": true,
        "response": "ArrowLeft",
        "congruent": true,
        "gazeTowards": true,
        "gazeCondition": "towards",
        "faceOnLeft": false,
        "impliedDirection": 180,
        "testDirection": 180,
        "avgFps": 60,
        "minFps": 57,
        "maxFps": 81,
        "totalFrames": 70,
        "frameRates": 60
      },
      {
        "trial_number": 59,
        "trial_index": 404,
        "rt": 986,
        "correct": true,
        "response": "ArrowRight",
        "congruent": true,
        "gazeTowards": true,
        "gazeCondition": "towards",
        "faceOnLeft": true,
        "impliedDirection": 0,
        "testDirection": 0,
        "avgFps": 60,
        "minFps": 57,
        "maxFps": 68,
        "totalFrames": 60,
        "frameRates": 60
      },
      {
        "trial_number": 60,
        "trial_index": 410,
        "rt": 1102,
        "correct": true,
        "response": "ArrowRight",
        "congruent": false,
        "gazeTowards": true,
        "gazeCondition": "towards",
        "faceOnLeft": false,
        "impliedDirection": 180,
        "testDirection": 0,
        "avgFps": 60,
        "minFps": 57,
        "maxFps": 67,
        "totalFrames": 66,
        "frameRates": 60
      },
      {
        "trial_number": 61,
        "trial_index": 415,
        "rt": 1242,
        "correct": true,
        "response": "ArrowRight",
        "congruent": false,
        "gazeTowards": false,
        "gazeCondition": "away",
        "faceOnLeft": false,
        "impliedDirection": 180,
        "testDirection": 0,
        "avgFps": 60,
        "minFps": 56,
        "maxFps": 120,
        "totalFrames": 75,
        "frameRates": 60
      },
      {
        "trial_number": 62,
        "trial_index": 420,
        "rt": 916,
        "correct": true,
        "response": "ArrowRight",
        "congruent": true,
        "gazeTowards": true,
        "gazeCondition": "towards",
        "faceOnLeft": true,
        "impliedDirection": 0,
        "testDirection": 0,
        "avgFps": 60,
        "minFps": 57,
        "maxFps": 85,
        "totalFrames": 55,
        "frameRates": 60
      },
      {
        "trial_number": 63,
        "trial_index": 425,
        "rt": 939,
        "correct": true,
        "response": "ArrowLeft",
        "congruent": true,
        "gazeTowards": true,
        "gazeCondition": "towards",
        "faceOnLeft": false,
        "impliedDirection": 180,
        "testDirection": 180,
        "avgFps": 60,
        "minFps": 57,
        "maxFps": 70,
        "totalFrames": 56,
        "frameRates": 60
      },
      {
        "trial_number": 64,
        "trial_index": 430,
        "rt": 895,
        "correct": true,
        "response": "ArrowRight",
        "congruent": true,
        "gazeTowards": false,
        "gazeCondition": "away",
        "faceOnLeft": true,
        "impliedDirection": 0,
        "testDirection": 0,
        "avgFps": 60,
        "minFps": 57,
        "maxFps": 72,
        "totalFrames": 54,
        "frameRates": 60
      },
      {
        "trial_number": 65,
        "trial_index": 435,
        "rt": 1517,
        "correct": true,
        "response": "ArrowRight",
        "congruent": false,
        "gazeTowards": true,
        "gazeCondition": "towards",
        "faceOnLeft": false,
        "impliedDirection": 180,
        "testDirection": 0,
        "avgFps": 60,
        "minFps": 56,
        "maxFps": 67,
        "totalFrames": 91,
        "frameRates": 60
      },
      {
        "trial_number": 66,
        "trial_index": 440,
        "rt": 1554,
        "correct": false,
        "response": "ArrowLeft",
        "congruent": false,
        "gazeTowards": true,
        "gazeCondition": "towards",
        "faceOnLeft": false,
        "impliedDirection": 180,
        "testDirection": 0,
        "avgFps": 60,
        "minFps": 57,
        "maxFps": 103,
        "totalFrames": 94,
        "frameRates": 60
      },
      {
        "trial_number": 67,
        "trial_index": 445,
        "rt": 1064,
        "correct": true,
        "response": "ArrowLeft",
        "congruent": true,
        "gazeTowards": false,
        "gazeCondition": "away",
        "faceOnLeft": false,
        "impliedDirection": 180,
        "testDirection": 180,
        "avgFps": 60,
        "minFps": 57,
        "maxFps": 90,
        "totalFrames": 64,
        "frameRates": 60
      },
      {
        "trial_number": 68,
        "trial_index": 450,
        "rt": 976,
        "correct": true,
        "response": "ArrowRight",
        "congruent": true,
        "gazeTowards": true,
        "gazeCondition": "towards",
        "faceOnLeft": true,
        "impliedDirection": 0,
        "testDirection": 0,
        "avgFps": 60,
        "minFps": 38,
        "maxFps": 64,
        "totalFrames": 58,
        "frameRates": 60
      },
      {
        "trial_number": 69,
        "trial_index": 455,
        "rt": 1021,
        "correct": true,
        "response": "ArrowLeft",
        "congruent": false,
        "gazeTowards": true,
        "gazeCondition": "towards",
        "faceOnLeft": true,
        "impliedDirection": 0,
        "testDirection": 180,
        "avgFps": 60,
        "minFps": 56,
        "maxFps": 93,
        "totalFrames": 62,
        "frameRates": 60
      },
      {
        "trial_number": 70,
        "trial_index": 463,
        "rt": 1177,
        "correct": false,
        "response": "ArrowLeft",
        "congruent": false,
        "gazeTowards": false,
        "gazeCondition": "away",
        "faceOnLeft": false,
        "impliedDirection": 180,
        "testDirection": 0,
        "avgFps": 60,
        "minFps": 39,
        "maxFps": 64,
        "totalFrames": 70,
        "frameRates": 60
      },
      {
        "trial_number": 71,
        "trial_index": 471,
        "rt": 1252,
        "correct": true,
        "response": "ArrowLeft",
        "congruent": false,
        "gazeTowards": false,
        "gazeCondition": "away",
        "faceOnLeft": true,
        "impliedDirection": 0,
        "testDirection": 180,
        "avgFps": 60,
        "minFps": 56,
        "maxFps": 72,
        "totalFrames": 75,
        "frameRates": 60
      },
      {
        "trial_number": 72,
        "trial_index": 479,
        "rt": 1431,
        "correct": true,
        "response": "ArrowRight",
        "congruent": true,
        "gazeTowards": false,
        "gazeCondition": "away",
        "faceOnLeft": true,
        "impliedDirection": 0,
        "testDirection": 0,
        "avgFps": 60,
        "minFps": 56,
        "maxFps": 112,
        "totalFrames": 86,
        "frameRates": 60
      },
      {
        "trial_number": 73,
        "trial_index": 484,
        "rt": 1515,
        "correct": true,
        "response": "ArrowRight",
        "congruent": false,
        "gazeTowards": false,
        "gazeCondition": "away",
        "faceOnLeft": false,
        "impliedDirection": 180,
        "testDirection": 0,
        "avgFps": 60,
        "minFps": 56,
        "maxFps": 69,
        "totalFrames": 91,
        "frameRates": 60
      },
      {
        "trial_number": 74,
        "trial_index": 489,
        "rt": 1202,
        "correct": true,
        "response": "ArrowLeft",
        "congruent": false,
        "gazeTowards": false,
        "gazeCondition": "away",
        "faceOnLeft": true,
        "impliedDirection": 0,
        "testDirection": 180,
        "avgFps": 60,
        "minFps": 39,
        "maxFps": 64,
        "totalFrames": 72,
        "frameRates": 60
      },
      {
        "trial_number": 75,
        "trial_index": 494,
        "rt": 1027,
        "correct": true,
        "response": "ArrowRight",
        "congruent": true,
        "gazeTowards": false,
        "gazeCondition": "away",
        "faceOnLeft": true,
        "impliedDirection": 0,
        "testDirection": 0,
        "avgFps": 60,
        "minFps": 56,
        "maxFps": 91,
        "totalFrames": 62,
        "frameRates": 60
      },
      {
        "trial_number": 76,
        "trial_index": 499,
        "rt": 1062,
        "correct": true,
        "response": "ArrowRight",
        "congruent": false,
        "gazeTowards": false,
        "gazeCondition": "away",
        "faceOnLeft": false,
        "impliedDirection": 180,
        "testDirection": 0,
        "avgFps": 60,
        "minFps": 39,
        "maxFps": 64,
        "totalFrames": 63,
        "frameRates": 60
      },
      {
        "trial_number": 77,
        "trial_index": 507,
        "rt": 1160,
        "correct": false,
        "response": "ArrowLeft",
        "congruent": false,
        "gazeTowards": false,
        "gazeCondition": "away",
        "faceOnLeft": false,
        "impliedDirection": 180,
        "testDirection": 0,
        "avgFps": 61,
        "minFps": 57,
        "maxFps": 134,
        "totalFrames": 70,
        "frameRates": 61
      },
      {
        "trial_number": 78,
        "trial_index": 512,
        "rt": 1286,
        "correct": true,
        "response": "ArrowLeft",
        "congruent": true,
        "gazeTowards": false,
        "gazeCondition": "away",
        "faceOnLeft": false,
        "impliedDirection": 180,
        "testDirection": 180,
        "avgFps": 60,
        "minFps": 57,
        "maxFps": 71,
        "totalFrames": 77,
        "frameRates": 60
      },
      {
        "trial_number": 79,
        "trial_index": 517,
        "rt": 1070,
        "correct": true,
        "response": "ArrowLeft",
        "congruent": false,
        "gazeTowards": true,
        "gazeCondition": "towards",
        "faceOnLeft": true,
        "impliedDirection": 0,
        "testDirection": 180,
        "avgFps": 60,
        "minFps": 56,
        "maxFps": 66,
        "totalFrames": 64,
        "frameRates": 60
      },
      {
        "trial_number": 80,
        "trial_index": 522,
        "rt": 1095,
        "correct": true,
        "response": "ArrowLeft",
        "congruent": true,
        "gazeTowards": true,
        "gazeCondition": "towards",
        "faceOnLeft": false,
        "impliedDirection": 180,
        "testDirection": 180,
        "avgFps": 60,
        "minFps": 57,
        "maxFps": 101,
        "totalFrames": 66,
        "frameRates": 60
      },
      {
        "trial_number": 81,
        "trial_index": 527,
        "rt": 1291,
        "correct": false,
        "response": "ArrowLeft",
        "congruent": true,
        "gazeTowards": false,
        "gazeCondition": "away",
        "faceOnLeft": true,
        "impliedDirection": 0,
        "testDirection": 0,
        "avgFps": 60,
        "minFps": 57,
        "maxFps": 100,
        "totalFrames": 78,
        "frameRates": 60
      },
      {
        "trial_number": 82,
        "trial_index": 532,
        "rt": 1268,
        "correct": true,
        "response": "ArrowRight",
        "congruent": false,
        "gazeTowards": false,
        "gazeCondition": "away",
        "faceOnLeft": false,
        "impliedDirection": 180,
        "testDirection": 0,
        "avgFps": 60,
        "minFps": 57,
        "maxFps": 65,
        "totalFrames": 76,
        "frameRates": 60
      },
      {
        "trial_number": 83,
        "trial_index": 537,
        "rt": 1281,
        "correct": false,
        "response": "ArrowLeft",
        "congruent": false,
        "gazeTowards": false,
        "gazeCondition": "away",
        "faceOnLeft": false,
        "impliedDirection": 180,
        "testDirection": 0,
        "avgFps": 60,
        "minFps": 56,
        "maxFps": 81,
        "totalFrames": 77,
        "frameRates": 60
      },
      {
        "trial_number": 84,
        "trial_index": 542,
        "rt": 1056,
        "correct": true,
        "response": "ArrowRight",
        "congruent": true,
        "gazeTowards": true,
        "gazeCondition": "towards",
        "faceOnLeft": true,
        "impliedDirection": 0,
        "testDirection": 0,
        "avgFps": 60,
        "minFps": 57,
        "maxFps": 71,
        "totalFrames": 63,
        "frameRates": 60
      },
      {
        "trial_number": 85,
        "trial_index": 547,
        "rt": 1126,
        "correct": true,
        "response": "ArrowRight",
        "congruent": true,
        "gazeTowards": true,
        "gazeCondition": "towards",
        "faceOnLeft": true,
        "impliedDirection": 0,
        "testDirection": 0,
        "avgFps": 60,
        "minFps": 56,
        "maxFps": 89,
        "totalFrames": 67,
        "frameRates": 60
      },
      {
        "trial_number": 86,
        "trial_index": 552,
        "rt": 1488,
        "correct": true,
        "response": "ArrowRight",
        "congruent": true,
        "gazeTowards": false,
        "gazeCondition": "away",
        "faceOnLeft": true,
        "impliedDirection": 0,
        "testDirection": 0,
        "avgFps": 60,
        "minFps": 56,
        "maxFps": 69,
        "totalFrames": 89,
        "frameRates": 60
      },
      {
        "trial_number": 87,
        "trial_index": 557,
        "rt": 1077,
        "correct": true,
        "response": "ArrowLeft",
        "congruent": true,
        "gazeTowards": false,
        "gazeCondition": "away",
        "faceOnLeft": false,
        "impliedDirection": 180,
        "testDirection": 180,
        "avgFps": 60,
        "minFps": 57,
        "maxFps": 80,
        "totalFrames": 65,
        "frameRates": 60
      },
      {
        "trial_number": 88,
        "trial_index": 562,
        "rt": 1609,
        "correct": true,
        "response": "ArrowRight",
        "congruent": false,
        "gazeTowards": true,
        "gazeCondition": "towards",
        "faceOnLeft": false,
        "impliedDirection": 180,
        "testDirection": 0,
        "avgFps": 60,
        "minFps": 56,
        "maxFps": 99,
        "totalFrames": 97,
        "frameRates": 60
      },
      {
        "trial_number": 89,
        "trial_index": 568,
        "rt": 1213,
        "correct": false,
        "response": "ArrowLeft",
        "congruent": true,
        "gazeTowards": true,
        "gazeCondition": "towards",
        "faceOnLeft": true,
        "impliedDirection": 0,
        "testDirection": 0,
        "avgFps": 60,
        "minFps": 56,
        "maxFps": 86,
        "totalFrames": 73,
        "frameRates": 60
      },
      {
        "trial_number": 90,
        "trial_index": 573,
        "rt": 949,
        "correct": true,
        "response": "ArrowRight",
        "congruent": true,
        "gazeTowards": false,
        "gazeCondition": "away",
        "faceOnLeft": true,
        "impliedDirection": 0,
        "testDirection": 0,
        "avgFps": 60,
        "minFps": 38,
        "maxFps": 64,
        "totalFrames": 57,
        "frameRates": 60
      },
      {
        "trial_number": 91,
        "trial_index": 578,
        "rt": 1084,
        "correct": true,
        "response": "ArrowLeft",
        "congruent": false,
        "gazeTowards": false,
        "gazeCondition": "away",
        "faceOnLeft": true,
        "impliedDirection": 0,
        "testDirection": 180,
        "avgFps": 60,
        "minFps": 56,
        "maxFps": 67,
        "totalFrames": 65,
        "frameRates": 60
      },
      {
        "trial_number": 92,
        "trial_index": 583,
        "rt": 1030,
        "correct": true,
        "response": "ArrowLeft",
        "congruent": true,
        "gazeTowards": true,
        "gazeCondition": "towards",
        "faceOnLeft": false,
        "impliedDirection": 180,
        "testDirection": 180,
        "avgFps": 60,
        "minFps": 37,
        "maxFps": 64,
        "totalFrames": 61,
        "frameRates": 60
      },
      {
        "trial_number": 93,
        "trial_index": 588,
        "rt": 976,
        "correct": true,
        "response": "ArrowLeft",
        "congruent": true,
        "gazeTowards": true,
        "gazeCondition": "towards",
        "faceOnLeft": false,
        "impliedDirection": 180,
        "testDirection": 180,
        "avgFps": 61,
        "minFps": 57,
        "maxFps": 101,
        "totalFrames": 59,
        "frameRates": 61
      },
      {
        "trial_number": 94,
        "trial_index": 593,
        "rt": 1022,
        "correct": true,
        "response": "ArrowRight",
        "congruent": false,
        "gazeTowards": false,
        "gazeCondition": "away",
        "faceOnLeft": false,
        "impliedDirection": 180,
        "testDirection": 0,
        "avgFps": 60,
        "minFps": 57,
        "maxFps": 69,
        "totalFrames": 61,
        "frameRates": 60
      },
      {
        "trial_number": 95,
        "trial_index": 598,
        "rt": 1042,
        "correct": true,
        "response": "ArrowRight",
        "congruent": true,
        "gazeTowards": false,
        "gazeCondition": "away",
        "faceOnLeft": true,
        "impliedDirection": 0,
        "testDirection": 0,
        "avgFps": 60,
        "minFps": 38,
        "maxFps": 65,
        "totalFrames": 62,
        "frameRates": 60
      },
      {
        "trial_number": 96,
        "trial_index": 603,
        "rt": 979,
        "correct": true,
        "response": "ArrowRight",
        "congruent": true,
        "gazeTowards": false,
        "gazeCondition": "away",
        "faceOnLeft": true,
        "impliedDirection": 0,
        "testDirection": 0,
        "avgFps": 61,
        "minFps": 56,
        "maxFps": 126,
        "totalFrames": 59,
        "frameRates": 61
      },
      {
        "trial_number": 97,
        "trial_index": 611,
        "rt": 1312,
        "correct": true,
        "response": "ArrowRight",
        "congruent": true,
        "gazeTowards": false,
        "gazeCondition": "away",
        "faceOnLeft": true,
        "impliedDirection": 0,
        "testDirection": 0,
        "avgFps": 60,
        "minFps": 57,
        "maxFps": 68,
        "totalFrames": 78,
        "frameRates": 60
      },
      {
        "trial_number": 98,
        "trial_index": 616,
        "rt": 1156,
        "correct": true,
        "response": "ArrowLeft",
        "congruent": false,
        "gazeTowards": false,
        "gazeCondition": "away",
        "faceOnLeft": true,
        "impliedDirection": 0,
        "testDirection": 180,
        "avgFps": 60,
        "minFps": 57,
        "maxFps": 87,
        "totalFrames": 69,
        "frameRates": 60
      },
      {
        "trial_number": 99,
        "trial_index": 621,
        "rt": 1014,
        "correct": true,
        "response": "ArrowLeft",
        "congruent": true,
        "gazeTowards": false,
        "gazeCondition": "away",
        "faceOnLeft": false,
        "impliedDirection": 180,
        "testDirection": 180,
        "avgFps": 60,
        "minFps": 57,
        "maxFps": 71,
        "totalFrames": 61,
        "frameRates": 60
      },
      {
        "trial_number": 100,
        "trial_index": 626,
        "rt": 1048,
        "correct": true,
        "response": "ArrowRight",
        "congruent": false,
        "gazeTowards": false,
        "gazeCondition": "away",
        "faceOnLeft": false,
        "impliedDirection": 180,
        "testDirection": 0,
        "avgFps": 61,
        "minFps": 57,
        "maxFps": 110,
        "totalFrames": 63,
        "frameRates": 61
      },
      {
        "trial_number": 101,
        "trial_index": 631,
        "rt": 1453,
        "correct": true,
        "response": "ArrowRight",
        "congruent": true,
        "gazeTowards": true,
        "gazeCondition": "towards",
        "faceOnLeft": true,
        "impliedDirection": 0,
        "testDirection": 0,
        "avgFps": 60,
        "minFps": 56,
        "maxFps": 75,
        "totalFrames": 87,
        "frameRates": 60
      },
      {
        "trial_number": 102,
        "trial_index": 636,
        "rt": 1069,
        "correct": true,
        "response": "ArrowLeft",
        "congruent": false,
        "gazeTowards": true,
        "gazeCondition": "towards",
        "faceOnLeft": true,
        "impliedDirection": 0,
        "testDirection": 180,
        "avgFps": 60,
        "minFps": 57,
        "maxFps": 69,
        "totalFrames": 64,
        "frameRates": 60
      },
      {
        "trial_number": 103,
        "trial_index": 641,
        "rt": 1156,
        "correct": true,
        "response": "ArrowRight",
        "congruent": false,
        "gazeTowards": true,
        "gazeCondition": "towards",
        "faceOnLeft": false,
        "impliedDirection": 180,
        "testDirection": 0,
        "avgFps": 60,
        "minFps": 58,
        "maxFps": 108,
        "totalFrames": 70,
        "frameRates": 60
      },
      {
        "trial_number": 104,
        "trial_index": 646,
        "rt": 963,
        "correct": true,
        "response": "ArrowRight",
        "congruent": true,
        "gazeTowards": false,
        "gazeCondition": "away",
        "faceOnLeft": true,
        "impliedDirection": 0,
        "testDirection": 0,
        "avgFps": 60,
        "minFps": 57,
        "maxFps": 72,
        "totalFrames": 58,
        "frameRates": 60
      },
      {
        "trial_number": 105,
        "trial_index": 651,
        "rt": 1126,
        "correct": true,
        "response": "ArrowRight",
        "congruent": false,
        "gazeTowards": true,
        "gazeCondition": "towards",
        "faceOnLeft": false,
        "impliedDirection": 180,
        "testDirection": 0,
        "avgFps": 61,
        "minFps": 56,
        "maxFps": 102,
        "totalFrames": 68,
        "frameRates": 61
      },
      {
        "trial_number": 106,
        "trial_index": 656,
        "rt": 1066,
        "correct": true,
        "response": "ArrowLeft",
        "congruent": true,
        "gazeTowards": true,
        "gazeCondition": "towards",
        "faceOnLeft": false,
        "impliedDirection": 180,
        "testDirection": 180,
        "avgFps": 60,
        "minFps": 57,
        "maxFps": 64,
        "totalFrames": 63,
        "frameRates": 60
      },
      {
        "trial_number": 107,
        "trial_index": 664,
        "rt": 1140,
        "correct": true,
        "response": "ArrowLeft",
        "congruent": true,
        "gazeTowards": true,
        "gazeCondition": "towards",
        "faceOnLeft": false,
        "impliedDirection": 180,
        "testDirection": 180,
        "avgFps": 60,
        "minFps": 39,
        "maxFps": 64,
        "totalFrames": 68,
        "frameRates": 60
      },
      {
        "trial_number": 108,
        "trial_index": 669,
        "rt": 1115,
        "correct": true,
        "response": "ArrowRight",
        "congruent": true,
        "gazeTowards": true,
        "gazeCondition": "towards",
        "faceOnLeft": true,
        "impliedDirection": 0,
        "testDirection": 0,
        "avgFps": 60,
        "minFps": 57,
        "maxFps": 89,
        "totalFrames": 67,
        "frameRates": 60
      },
      {
        "trial_number": 109,
        "trial_index": 674,
        "rt": 1413,
        "correct": true,
        "response": "ArrowRight",
        "congruent": false,
        "gazeTowards": true,
        "gazeCondition": "towards",
        "faceOnLeft": false,
        "impliedDirection": 180,
        "testDirection": 0,
        "avgFps": 60,
        "minFps": 57,
        "maxFps": 87,
        "totalFrames": 85,
        "frameRates": 60
      },
      {
        "trial_number": 110,
        "trial_index": 679,
        "rt": 1247,
        "correct": true,
        "response": "ArrowRight",
        "congruent": true,
        "gazeTowards": true,
        "gazeCondition": "towards",
        "faceOnLeft": true,
        "impliedDirection": 0,
        "testDirection": 0,
        "avgFps": 60,
        "minFps": 57,
        "maxFps": 70,
        "totalFrames": 75,
        "frameRates": 60
      },
      {
        "trial_number": 111,
        "trial_index": 684,
        "rt": 996,
        "correct": true,
        "response": "ArrowLeft",
        "congruent": false,
        "gazeTowards": true,
        "gazeCondition": "towards",
        "faceOnLeft": true,
        "impliedDirection": 0,
        "testDirection": 180,
        "avgFps": 60,
        "minFps": 56,
        "maxFps": 103,
        "totalFrames": 60,
        "frameRates": 60
      },
      {
        "trial_number": 112,
        "trial_index": 689,
        "rt": 997,
        "correct": true,
        "response": "ArrowLeft",
        "congruent": true,
        "gazeTowards": false,
        "gazeCondition": "away",
        "faceOnLeft": false,
        "impliedDirection": 180,
        "testDirection": 180,
        "avgFps": 61,
        "minFps": 57,
        "maxFps": 109,
        "totalFrames": 60,
        "frameRates": 61
      },
      {
        "trial_number": 113,
        "trial_index": 694,
        "rt": 1127,
        "correct": true,
        "response": "ArrowRight",
        "congruent": true,
        "gazeTowards": false,
        "gazeCondition": "away",
        "faceOnLeft": true,
        "impliedDirection": 0,
        "testDirection": 0,
        "avgFps": 60,
        "minFps": 57,
        "maxFps": 70,
        "totalFrames": 68,
        "frameRates": 60
      },
      {
        "trial_number": 114,
        "trial_index": 699,
        "rt": 1011,
        "correct": true,
        "response": "ArrowLeft",
        "congruent": false,
        "gazeTowards": true,
        "gazeCondition": "towards",
        "faceOnLeft": true,
        "impliedDirection": 0,
        "testDirection": 180,
        "avgFps": 61,
        "minFps": 56,
        "maxFps": 104,
        "totalFrames": 61,
        "frameRates": 61
      },
      {
        "trial_number": 115,
        "trial_index": 704,
        "rt": 1046,
        "correct": true,
        "response": "ArrowLeft",
        "congruent": false,
        "gazeTowards": true,
        "gazeCondition": "towards",
        "faceOnLeft": true,
        "impliedDirection": 0,
        "testDirection": 180,
        "avgFps": 59,
        "minFps": 38,
        "maxFps": 64,
        "totalFrames": 62,
        "frameRates": 59
      },
      {
        "trial_number": 116,
        "trial_index": 709,
        "rt": 952,
        "correct": true,
        "response": "ArrowRight",
        "congruent": true,
        "gazeTowards": false,
        "gazeCondition": "away",
        "faceOnLeft": true,
        "impliedDirection": 0,
        "testDirection": 0,
        "avgFps": 59,
        "minFps": 36,
        "maxFps": 64,
        "totalFrames": 57,
        "frameRates": 59
      },
      {
        "trial_number": 117,
        "trial_index": 714,
        "rt": 1248,
        "correct": true,
        "response": "ArrowRight",
        "congruent": true,
        "gazeTowards": false,
        "gazeCondition": "away",
        "faceOnLeft": true,
        "impliedDirection": 0,
        "testDirection": 0,
        "avgFps": 60,
        "minFps": 57,
        "maxFps": 96,
        "totalFrames": 75,
        "frameRates": 60
      },
      {
        "trial_number": 118,
        "trial_index": 719,
        "rt": 1063,
        "correct": true,
        "response": "ArrowRight",
        "congruent": true,
        "gazeTowards": false,
        "gazeCondition": "away",
        "faceOnLeft": true,
        "impliedDirection": 0,
        "testDirection": 0,
        "avgFps": 60,
        "minFps": 57,
        "maxFps": 88,
        "totalFrames": 64,
        "frameRates": 60
      },
      {
        "trial_number": 119,
        "trial_index": 724,
        "rt": 1130,
        "correct": true,
        "response": "ArrowLeft",
        "congruent": false,
        "gazeTowards": false,
        "gazeCondition": "away",
        "faceOnLeft": true,
        "impliedDirection": 0,
        "testDirection": 180,
        "avgFps": 61,
        "minFps": 56,
        "maxFps": 108,
        "totalFrames": 68,
        "frameRates": 61
      }
    ],
    "catch": {
      "total": 12,
      "correct": 12,
      "accuracy": 100,
      "meanRT": 858,
      "trials": [
        {
          "trial_number": 0,
          "trial_index": 109,
          "rt": 765,
          "correct": true,
          "colorTarget": "tree",
          "gazeTowards": true,
          "gazeCondition": "towards",
          "faceOnLeft": true
        },
        {
          "trial_number": 1,
          "trial_index": 142,
          "rt": 747,
          "correct": true,
          "colorTarget": "tree",
          "gazeTowards": true,
          "gazeCondition": "towards",
          "faceOnLeft": false
        },
        {
          "trial_number": 2,
          "trial_index": 276,
          "rt": 735,
          "correct": true,
          "colorTarget": "face",
          "gazeTowards": true,
          "gazeCondition": "towards",
          "faceOnLeft": true
        },
        {
          "trial_number": 3,
          "trial_index": 314,
          "rt": 862,
          "correct": true,
          "colorTarget": "face",
          "gazeTowards": false,
          "gazeCondition": "away",
          "faceOnLeft": true
        },
        {
          "trial_number": 4,
          "trial_index": 382,
          "rt": 871,
          "correct": true,
          "colorTarget": "face",
          "gazeTowards": false,
          "gazeCondition": "away",
          "faceOnLeft": false
        },
        {
          "trial_number": 5,
          "trial_index": 395,
          "rt": 828,
          "correct": true,
          "colorTarget": "face",
          "gazeTowards": false,
          "gazeCondition": "away",
          "faceOnLeft": false
        },
        {
          "trial_number": 6,
          "trial_index": 459,
          "rt": 950,
          "correct": true,
          "colorTarget": "tree",
          "gazeTowards": true,
          "gazeCondition": "towards",
          "faceOnLeft": true
        },
        {
          "trial_number": 7,
          "trial_index": 467,
          "rt": 815,
          "correct": true,
          "colorTarget": "tree",
          "gazeTowards": false,
          "gazeCondition": "away",
          "faceOnLeft": false
        },
        {
          "trial_number": 8,
          "trial_index": 475,
          "rt": 849,
          "correct": true,
          "colorTarget": "face",
          "gazeTowards": false,
          "gazeCondition": "away",
          "faceOnLeft": false
        },
        {
          "trial_number": 9,
          "trial_index": 503,
          "rt": 914,
          "correct": true,
          "colorTarget": "tree",
          "gazeTowards": false,
          "gazeCondition": "away",
          "faceOnLeft": true
        },
        {
          "trial_number": 10,
          "trial_index": 607,
          "rt": 950,
          "correct": true,
          "colorTarget": "tree",
          "gazeTowards": true,
          "gazeCondition": "towards",
          "faceOnLeft": false
        },
        {
          "trial_number": 11,
          "trial_index": 660,
          "rt": 1005,
          "correct": true,
          "colorTarget": "face",
          "gazeTowards": true,
          "gazeCondition": "towards",
          "faceOnLeft": true
        }
      ]
    },
    "practice": {
      "trials": [
        {
          "trial_number": 0,
          "rt": null,
          "correct": false,
          "direction": 180
        },
        {
          "trial_number": 1,
          "rt": 942,
          "correct": false,
          "direction": 180
        },
        {
          "trial_number": 2,
          "rt": 1408,
          "correct": true,
          "direction": 0
        },
        {
          "trial_number": 3,
          "rt": 1347,
          "correct": true,
          "direction": 180
        },
        {
          "trial_number": 4,
          "rt": 1535,
          "correct": false,
          "direction": 180
        },
        {
          "trial_number": 5,
          "rt": 1808,
          "correct": true,
          "direction": 180
        },
        {
          "trial_number": 6,
          "rt": 1241,
          "correct": true,
          "direction": 0
        },
        {
          "trial_number": 7,
          "rt": 1297,
          "correct": true,
          "direction": 0
        },
        {
          "trial_number": 8,
          "rt": null,
          "correct": false,
          "direction": 0
        },
        {
          "trial_number": 9,
          "rt": 984,
          "correct": true,
          "direction": 0
        },
        {
          "trial_number": 10,
          "rt": 1129,
          "correct": true,
          "direction": 180
        },
        {
          "trial_number": 11,
          "rt": 1114,
          "correct": true,
          "direction": 180
        },
        {
          "trial_number": 12,
          "rt": 1376,
          "correct": true,
          "direction": 0
        },
        {
          "trial_number": 13,
          "rt": 1536,
          "correct": true,
          "direction": 180
        },
        {
          "trial_number": 14,
          "rt": 1427,
          "correct": true,
          "direction": 180
        },
        {
          "trial_number": 15,
          "rt": null,
          "correct": false,
          "direction": 180
        },
        {
          "trial_number": 16,
          "rt": 1012,
          "correct": true,
          "direction": 0
        },
        {
          "trial_number": 17,
          "rt": 1105,
          "correct": true,
          "direction": 0
        },
        {
          "trial_number": 18,
          "rt": 1309,
          "correct": true,
          "direction": 0
        },
        {
          "trial_number": 19,
          "rt": 1065,
          "correct": true,
          "direction": 0
        }
      ],
      "meanRT": 1273,
      "accuracy": 75
    }
  }
}