{
  "experiment": "rdk-face-1",
  "UUID": "2f9dbc7e-051b-449f-9347-940cd77912f6",
  "data": {
    "session": {
      "experiment_version": "1.8.6",
      "treatment": "faces_towards_away_catch",
      "file_version": "1.8.6",
      "totalTrials": 120,
      "totalTrialsIncludingCatch": 132,
      "conditions": {
        "gazeTowardsCount": 60,
        "gazeAwayCount": 60,
        "gazeTowardsAccuracy": 100,
        "gazeAwayAccuracy": 98
      },
      "session_group": "default",
      "browserData": {
        "os": "Windows",
        "browser": "Firefox",
        "screenResolution": "1920x1080",
        "browserViewport": "1920x1080",
        "devicePixelRatio": 1,
        "colorDepth": 24,
        "hardwareConcurrency": 12,
        "deviceMemory": "Unknown",
        "gpuRenderer": "ANGLE (NVIDIA, NVIDIA GeForce GTX 980 Direct3D11 vs_5_0 ps_5_0), or similar",
        "measuredRefreshRateHz": 57
      },
      "attention": {
        "visibilityEvents": [
          {
            "event": "blur",
            "state": "blurred",
            "timestamp": 1772765602618
          },
          {
            "event": "focus",
            "state": "focused",
            "timestamp": 1772765603207
          }
        ]
      },
      "calibration": {
        "monitorWidthCm": 38,
        "viewingDistanceCm": 54,
        "pixelsPerDegree": 50
      },
      "parameters": {
        "coherence": 0.4,
        "apertureDeg": 5,
        "densityDotsPerDeg2": 40,
        "dotDiameterDeg": 0.035,
        "dotSpeedDegPerSec": 3,
        "lifetimeMs": 200,
        "fixationDurationMs": 1500,
        "faceDurationMs": 1500,
        "testDurationMs": 2000,
        "catchResponseMs": 3000
      },
      "prolific": {
        "prolificPid": "62bddb63d7c84ff6e9c592f5",
        "studyId": "",
        "sessionId": ""
      },
      "timing": {
        "startTime": "2026-03-06T02:53:22.374Z",
        "endTime": "2026-03-06T03:06:11.990Z",
        "totalElapsedTimeMs": 769616
      }
    },
    "trials": [
      {
        "trial_number": 0,
        "trial_index": 49,
        "rt": 945,
        "correct": true,
        "response": "ArrowRight",
        "congruent": true,
        "gazeTowards": true,
        "gazeCondition": "towards",
        "faceOnLeft": true,
        "impliedDirection": 0,
        "testDirection": 0,
        "avgFps": 60,
        "minFps": 60,
        "maxFps": 88,
        "totalFrames": 56,
        "frameRates": 60
      },
      {
        "trial_number": 1,
        "trial_index": 54,
        "rt": 659,
        "correct": true,
        "response": "ArrowRight",
        "congruent": false,
        "gazeTowards": true,
        "gazeCondition": "towards",
        "faceOnLeft": false,
        "impliedDirection": 180,
        "testDirection": 0,
        "avgFps": 61,
        "minFps": 60,
        "maxFps": 109,
        "totalFrames": 39,
        "frameRates": 61
      },
      {
        "trial_number": 2,
        "trial_index": 59,
        "rt": 620,
        "correct": true,
        "response": "ArrowRight",
        "congruent": true,
        "gazeTowards": false,
        "gazeCondition": "away",
        "faceOnLeft": true,
        "impliedDirection": 0,
        "testDirection": 0,
        "avgFps": 60,
        "minFps": 60,
        "maxFps": 78,
        "totalFrames": 37,
        "frameRates": 60
      },
      {
        "trial_number": 3,
        "trial_index": 64,
        "rt": 621,
        "correct": true,
        "response": "ArrowLeft",
        "congruent": false,
        "gazeTowards": true,
        "gazeCondition": "towards",
        "faceOnLeft": true,
        "impliedDirection": 0,
        "testDirection": 180,
        "avgFps": 61,
        "minFps": 60,
        "maxFps": 97,
        "totalFrames": 37,
        "frameRates": 61
      },
      {
        "trial_number": 4,
        "trial_index": 69,
        "rt": 680,
        "correct": true,
        "response": "ArrowLeft",
        "congruent": true,
        "gazeTowards": false,
        "gazeCondition": "away",
        "faceOnLeft": false,
        "impliedDirection": 180,
        "testDirection": 180,
        "avgFps": 61,
        "minFps": 60,
        "maxFps": 116,
        "totalFrames": 41,
        "frameRates": 61
      },
      {
        "trial_number": 5,
        "trial_index": 74,
        "rt": 944,
        "correct": true,
        "response": "ArrowLeft",
        "congruent": true,
        "gazeTowards": false,
        "gazeCondition": "away",
        "faceOnLeft": false,
        "impliedDirection": 180,
        "testDirection": 180,
        "avgFps": 61,
        "minFps": 54,
        "maxFps": 263,
        "totalFrames": 57,
        "frameRates": 61
      },
      {
        "trial_number": 6,
        "trial_index": 79,
        "rt": 649,
        "correct": true,
        "response": "ArrowLeft",
        "congruent": false,
        "gazeTowards": false,
        "gazeCondition": "away",
        "faceOnLeft": true,
        "impliedDirection": 0,
        "testDirection": 180,
        "avgFps": 61,
        "minFps": 60,
        "maxFps": 214,
        "totalFrames": 39,
        "frameRates": 61
      },
      {
        "trial_number": 7,
        "trial_index": 84,
        "rt": 593,
        "correct": true,
        "response": "ArrowRight",
        "congruent": false,
        "gazeTowards": false,
        "gazeCondition": "away",
        "faceOnLeft": false,
        "impliedDirection": 180,
        "testDirection": 0,
        "avgFps": 60,
        "minFps": 60,
        "maxFps": 67,
        "totalFrames": 35,
        "frameRates": 60
      },
      {
        "trial_number": 8,
        "trial_index": 89,
        "rt": 622,
        "correct": true,
        "response": "ArrowRight",
        "congruent": true,
        "gazeTowards": true,
        "gazeCondition": "towards",
        "faceOnLeft": true,
        "impliedDirection": 0,
        "testDirection": 0,
        "avgFps": 60,
        "minFps": 60,
        "maxFps": 69,
        "totalFrames": 37,
        "frameRates": 60
      },
      {
        "trial_number": 9,
        "trial_index": 94,
        "rt": 634,
        "correct": true,
        "response": "ArrowRight",
        "congruent": false,
        "gazeTowards": true,
        "gazeCondition": "towards",
        "faceOnLeft": false,
        "impliedDirection": 180,
        "testDirection": 0,
        "avgFps": 61,
        "minFps": 60,
        "maxFps": 238,
        "totalFrames": 38,
        "frameRates": 61
      },
      {
        "trial_number": 10,
        "trial_index": 99,
        "rt": 593,
        "correct": true,
        "response": "ArrowLeft",
        "congruent": false,
        "gazeTowards": true,
        "gazeCondition": "towards",
        "faceOnLeft": true,
        "impliedDirection": 0,
        "testDirection": 180,
        "avgFps": 61,
        "minFps": 60,
        "maxFps": 100,
        "totalFrames": 36,
        "frameRates": 61
      },
      {
        "trial_number": 11,
        "trial_index": 104,
        "rt": 610,
        "correct": true,
        "response": "ArrowLeft",
        "congruent": true,
        "gazeTowards": true,
        "gazeCondition": "towards",
        "faceOnLeft": false,
        "impliedDirection": 180,
        "testDirection": 180,
        "avgFps": 61,
        "minFps": 60,
        "maxFps": 86,
        "totalFrames": 36,
        "frameRates": 61
      },
      {
        "trial_number": 12,
        "trial_index": 109,
        "rt": 592,
        "correct": true,
        "response": "ArrowLeft",
        "congruent": false,
        "gazeTowards": true,
        "gazeCondition": "towards",
        "faceOnLeft": true,
        "impliedDirection": 0,
        "testDirection": 180,
        "avgFps": 61,
        "minFps": 60,
        "maxFps": 115,
        "totalFrames": 35,
        "frameRates": 61
      },
      {
        "trial_number": 13,
        "trial_index": 114,
        "rt": null,
        "correct": false,
        "response": null,
        "congruent": false,
        "gazeTowards": false,
        "gazeCondition": "away",
        "faceOnLeft": false,
        "impliedDirection": 180,
        "testDirection": 0,
        "avgFps": 60,
        "minFps": 60,
        "maxFps": 1064,
        "totalFrames": 121,
        "frameRates": 60
      },
      {
        "trial_number": 14,
        "trial_index": 119,
        "rt": 554,
        "correct": true,
        "response": "ArrowLeft",
        "congruent": false,
        "gazeTowards": true,
        "gazeCondition": "towards",
        "faceOnLeft": true,
        "impliedDirection": 0,
        "testDirection": 180,
        "avgFps": 61,
        "minFps": 60,
        "maxFps": 258,
        "totalFrames": 33,
        "frameRates": 61
      },
      {
        "trial_number": 15,
        "trial_index": 124,
        "rt": 621,
        "correct": true,
        "response": "ArrowLeft",
        "congruent": true,
        "gazeTowards": true,
        "gazeCondition": "towards",
        "faceOnLeft": false,
        "impliedDirection": 180,
        "testDirection": 180,
        "avgFps": 61,
        "minFps": 60,
        "maxFps": 93,
        "totalFrames": 37,
        "frameRates": 61
      },
      {
        "trial_number": 16,
        "trial_index": 129,
        "rt": 593,
        "correct": true,
        "response": "ArrowRight",
        "congruent": false,
        "gazeTowards": true,
        "gazeCondition": "towards",
        "faceOnLeft": false,
        "impliedDirection": 180,
        "testDirection": 0,
        "avgFps": 60,
        "minFps": 60,
        "maxFps": 67,
        "totalFrames": 35,
        "frameRates": 60
      },
      {
        "trial_number": 17,
        "trial_index": 134,
        "rt": 578,
        "correct": true,
        "response": "ArrowLeft",
        "congruent": false,
        "gazeTowards": true,
        "gazeCondition": "towards",
        "faceOnLeft": true,
        "impliedDirection": 0,
        "testDirection": 180,
        "avgFps": 60,
        "minFps": 60,
        "maxFps": 63,
        "totalFrames": 34,
        "frameRates": 60
      },
      {
        "trial_number": 18,
        "trial_index": 139,
        "rt": 585,
        "correct": true,
        "response": "ArrowRight",
        "congruent": true,
        "gazeTowards": true,
        "gazeCondition": "towards",
        "faceOnLeft": true,
        "impliedDirection": 0,
        "testDirection": 0,
        "avgFps": 62,
        "minFps": 60,
        "maxFps": 500,
        "totalFrames": 35,
        "frameRates": 62
      },
      {
        "trial_number": 19,
        "trial_index": 144,
        "rt": 618,
        "correct": true,
        "response": "ArrowRight",
        "congruent": false,
        "gazeTowards": false,
        "gazeCondition": "away",
        "faceOnLeft": false,
        "impliedDirection": 180,
        "testDirection": 0,
        "avgFps": 60,
        "minFps": 60,
        "maxFps": 74,
        "totalFrames": 37,
        "frameRates": 60
      },
      {
        "trial_number": 20,
        "trial_index": 149,
        "rt": 647,
        "correct": true,
        "response": "ArrowLeft",
        "congruent": false,
        "gazeTowards": true,
        "gazeCondition": "towards",
        "faceOnLeft": true,
        "impliedDirection": 0,
        "testDirection": 180,
        "avgFps": 61,
        "minFps": 60,
        "maxFps": 159,
        "totalFrames": 39,
        "frameRates": 61
      },
      {
        "trial_number": 21,
        "trial_index": 154,
        "rt": 556,
        "correct": true,
        "response": "ArrowLeft",
        "congruent": true,
        "gazeTowards": true,
        "gazeCondition": "towards",
        "faceOnLeft": false,
        "impliedDirection": 180,
        "testDirection": 180,
        "avgFps": 61,
        "minFps": 60,
        "maxFps": 207,
        "totalFrames": 34,
        "frameRates": 61
      },
      {
        "trial_number": 22,
        "trial_index": 159,
        "rt": 696,
        "correct": true,
        "response": "ArrowRight",
        "congruent": true,
        "gazeTowards": false,
        "gazeCondition": "away",
        "faceOnLeft": true,
        "impliedDirection": 0,
        "testDirection": 0,
        "avgFps": 61,
        "minFps": 60,
        "maxFps": 246,
        "totalFrames": 42,
        "frameRates": 61
      },
      {
        "trial_number": 23,
        "trial_index": 164,
        "rt": 606,
        "correct": true,
        "response": "ArrowRight",
        "congruent": true,
        "gazeTowards": true,
        "gazeCondition": "towards",
        "faceOnLeft": true,
        "impliedDirection": 0,
        "testDirection": 0,
        "avgFps": 61,
        "minFps": 60,
        "maxFps": 350,
        "totalFrames": 37,
        "frameRates": 61
      },
      {
        "trial_number": 24,
        "trial_index": 169,
        "rt": 580,
        "correct": true,
        "response": "ArrowRight",
        "congruent": true,
        "gazeTowards": false,
        "gazeCondition": "away",
        "faceOnLeft": true,
        "impliedDirection": 0,
        "testDirection": 0,
        "avgFps": 61,
        "minFps": 60,
        "maxFps": 198,
        "totalFrames": 35,
        "frameRates": 61
      },
      {
        "trial_number": 25,
        "trial_index": 174,
        "rt": 861,
        "correct": true,
        "response": "ArrowRight",
        "congruent": true,
        "gazeTowards": true,
        "gazeCondition": "towards",
        "faceOnLeft": true,
        "impliedDirection": 0,
        "testDirection": 0,
        "avgFps": 60,
        "minFps": 60,
        "maxFps": 88,
        "totalFrames": 51,
        "frameRates": 60
      },
      {
        "trial_number": 26,
        "trial_index": 182,
        "rt": 913,
        "correct": true,
        "response": "ArrowRight",
        "congruent": true,
        "gazeTowards": false,
        "gazeCondition": "away",
        "faceOnLeft": true,
        "impliedDirection": 0,
        "testDirection": 0,
        "avgFps": 61,
        "minFps": 54,
        "maxFps": 172,
        "totalFrames": 55,
        "frameRates": 61
      },
      {
        "trial_number": 27,
        "trial_index": 187,
        "rt": 930,
        "correct": true,
        "response": "ArrowRight",
        "congruent": true,
        "gazeTowards": false,
        "gazeCondition": "away",
        "faceOnLeft": true,
        "impliedDirection": 0,
        "testDirection": 0,
        "avgFps": 60,
        "minFps": 60,
        "maxFps": 85,
        "totalFrames": 56,
        "frameRates": 60
      },
      {
        "trial_number": 28,
        "trial_index": 192,
        "rt": 782,
        "correct": true,
        "response": "ArrowRight",
        "congruent": true,
        "gazeTowards": true,
        "gazeCondition": "towards",
        "faceOnLeft": true,
        "impliedDirection": 0,
        "testDirection": 0,
        "avgFps": 61,
        "minFps": 60,
        "maxFps": 142,
        "totalFrames": 47,
        "frameRates": 61
      },
      {
        "trial_number": 29,
        "trial_index": 197,
        "rt": 683,
        "correct": true,
        "response": "ArrowLeft",
        "congruent": false,
        "gazeTowards": false,
        "gazeCondition": "away",
        "faceOnLeft": true,
        "impliedDirection": 0,
        "testDirection": 180,
        "avgFps": 61,
        "minFps": 60,
        "maxFps": 2083,
        "totalFrames": 41,
        "frameRates": 61
      },
      {
        "trial_number": 30,
        "trial_index": 202,
        "rt": 507,
        "correct": true,
        "response": "ArrowRight",
        "congruent": true,
        "gazeTowards": false,
        "gazeCondition": "away",
        "faceOnLeft": true,
        "impliedDirection": 0,
        "testDirection": 0,
        "avgFps": 61,
        "minFps": 60,
        "maxFps": 198,
        "totalFrames": 31,
        "frameRates": 61
      },
      {
        "trial_number": 31,
        "trial_index": 207,
        "rt": 592,
        "correct": true,
        "response": "ArrowLeft",
        "congruent": true,
        "gazeTowards": true,
        "gazeCondition": "towards",
        "faceOnLeft": false,
        "impliedDirection": 180,
        "testDirection": 180,
        "avgFps": 60,
        "minFps": 60,
        "maxFps": 78,
        "totalFrames": 35,
        "frameRates": 60
      },
      {
        "trial_number": 32,
        "trial_index": 213,
        "rt": 768,
        "correct": true,
        "response": "ArrowRight",
        "congruent": true,
        "gazeTowards": false,
        "gazeCondition": "away",
        "faceOnLeft": true,
        "impliedDirection": 0,
        "testDirection": 0,
        "avgFps": 60,
        "minFps": 60,
        "maxFps": 66,
        "totalFrames": 46,
        "frameRates": 60
      },
      {
        "trial_number": 33,
        "trial_index": 218,
        "rt": 634,
        "correct": true,
        "response": "ArrowRight",
        "congruent": false,
        "gazeTowards": false,
        "gazeCondition": "away",
        "faceOnLeft": false,
        "impliedDirection": 180,
        "testDirection": 0,
        "avgFps": 60,
        "minFps": 60,
        "maxFps": 71,
        "totalFrames": 38,
        "frameRates": 60
      },
      {
        "trial_number": 34,
        "trial_index": 226,
        "rt": 683,
        "correct": true,
        "response": "ArrowRight",
        "congruent": false,
        "gazeTowards": false,
        "gazeCondition": "away",
        "faceOnLeft": false,
        "impliedDirection": 180,
        "testDirection": 0,
        "avgFps": 60,
        "minFps": 60,
        "maxFps": 78,
        "totalFrames": 41,
        "frameRates": 60
      },
      {
        "trial_number": 35,
        "trial_index": 231,
        "rt": 637,
        "correct": true,
        "response": "ArrowLeft",
        "congruent": false,
        "gazeTowards": false,
        "gazeCondition": "away",
        "faceOnLeft": true,
        "impliedDirection": 0,
        "testDirection": 180,
        "avgFps": 60,
        "minFps": 60,
        "maxFps": 69,
        "totalFrames": 38,
        "frameRates": 60
      },
      {
        "trial_number": 36,
        "trial_index": 236,
        "rt": 537,
        "correct": true,
        "response": "ArrowRight",
        "congruent": true,
        "gazeTowards": false,
        "gazeCondition": "away",
        "faceOnLeft": true,
        "impliedDirection": 0,
        "testDirection": 0,
        "avgFps": 61,
        "minFps": 60,
        "maxFps": 182,
        "totalFrames": 32,
        "frameRates": 61
      },
      {
        "trial_number": 37,
        "trial_index": 241,
        "rt": 666,
        "correct": true,
        "response": "ArrowLeft",
        "congruent": true,
        "gazeTowards": true,
        "gazeCondition": "towards",
        "faceOnLeft": false,
        "impliedDirection": 180,
        "testDirection": 180,
        "avgFps": 61,
        "minFps": 60,
        "maxFps": 357,
        "totalFrames": 40,
        "frameRates": 61
      },
      {
        "trial_number": 38,
        "trial_index": 246,
        "rt": 650,
        "correct": true,
        "response": "ArrowRight",
        "congruent": true,
        "gazeTowards": true,
        "gazeCondition": "towards",
        "faceOnLeft": true,
        "impliedDirection": 0,
        "testDirection": 0,
        "avgFps": 61,
        "minFps": 60,
        "maxFps": 102,
        "totalFrames": 39,
        "frameRates": 61
      },
      {
        "trial_number": 39,
        "trial_index": 251,
        "rt": 674,
        "correct": true,
        "response": "ArrowRight",
        "congruent": false,
        "gazeTowards": true,
        "gazeCondition": "towards",
        "faceOnLeft": false,
        "impliedDirection": 180,
        "testDirection": 0,
        "avgFps": 60,
        "minFps": 60,
        "maxFps": 70,
        "totalFrames": 40,
        "frameRates": 60
      },
      {
        "trial_number": 40,
        "trial_index": 256,
        "rt": 614,
        "correct": true,
        "response": "ArrowRight",
        "congruent": false,
        "gazeTowards": true,
        "gazeCondition": "towards",
        "faceOnLeft": false,
        "impliedDirection": 180,
        "testDirection": 0,
        "avgFps": 61,
        "minFps": 60,
        "maxFps": 118,
        "totalFrames": 37,
        "frameRates": 61
      },
      {
        "trial_number": 41,
        "trial_index": 267,
        "rt": 618,
        "correct": true,
        "response": "ArrowLeft",
        "congruent": false,
        "gazeTowards": true,
        "gazeCondition": "towards",
        "faceOnLeft": true,
        "impliedDirection": 0,
        "testDirection": 180,
        "avgFps": 60,
        "minFps": 60,
        "maxFps": 73,
        "totalFrames": 37,
        "frameRates": 60
      },
      {
        "trial_number": 42,
        "trial_index": 272,
        "rt": 576,
        "correct": true,
        "response": "ArrowLeft",
        "congruent": false,
        "gazeTowards": false,
        "gazeCondition": "away",
        "faceOnLeft": true,
        "impliedDirection": 0,
        "testDirection": 180,
        "avgFps": 62,
        "minFps": 60,
        "maxFps": 1250,
        "totalFrames": 35,
        "frameRates": 62
      },
      {
        "trial_number": 43,
        "trial_index": 277,
        "rt": 566,
        "correct": true,
        "response": "ArrowLeft",
        "congruent": true,
        "gazeTowards": false,
        "gazeCondition": "away",
        "faceOnLeft": false,
        "impliedDirection": 180,
        "testDirection": 180,
        "avgFps": 61,
        "minFps": 60,
        "maxFps": 113,
        "totalFrames": 34,
        "frameRates": 61
      },
      {
        "trial_number": 44,
        "trial_index": 282,
        "rt": 636,
        "correct": true,
        "response": "ArrowLeft",
        "congruent": true,
        "gazeTowards": true,
        "gazeCondition": "towards",
        "faceOnLeft": false,
        "impliedDirection": 180,
        "testDirection": 180,
        "avgFps": 61,
        "minFps": 60,
        "maxFps": 130,
        "totalFrames": 38,
        "frameRates": 61
      },
      {
        "trial_number": 45,
        "trial_index": 287,
        "rt": 568,
        "correct": true,
        "response": "ArrowRight",
        "congruent": false,
        "gazeTowards": false,
        "gazeCondition": "away",
        "faceOnLeft": false,
        "impliedDirection": 180,
        "testDirection": 0,
        "avgFps": 61,
        "minFps": 60,
        "maxFps": 262,
        "totalFrames": 34,
        "frameRates": 61
      },
      {
        "trial_number": 46,
        "trial_index": 292,
        "rt": 581,
        "correct": true,
        "response": "ArrowRight",
        "congruent": false,
        "gazeTowards": false,
        "gazeCondition": "away",
        "faceOnLeft": false,
        "impliedDirection": 180,
        "testDirection": 0,
        "avgFps": 62,
        "minFps": 60,
        "maxFps": 610,
        "totalFrames": 35,
        "frameRates": 62
      },
      {
        "trial_number": 47,
        "trial_index": 297,
        "rt": 560,
        "correct": true,
        "response": "ArrowLeft",
        "congruent": true,
        "gazeTowards": true,
        "gazeCondition": "towards",
        "faceOnLeft": false,
        "impliedDirection": 180,
        "testDirection": 180,
        "avgFps": 62,
        "minFps": 60,
        "maxFps": 8333,
        "totalFrames": 34,
        "frameRates": 62
      },
      {
        "trial_number": 48,
        "trial_index": 302,
        "rt": 656,
        "correct": true,
        "response": "ArrowRight",
        "congruent": true,
        "gazeTowards": true,
        "gazeCondition": "towards",
        "faceOnLeft": true,
        "impliedDirection": 0,
        "testDirection": 0,
        "avgFps": 60,
        "minFps": 60,
        "maxFps": 68,
        "totalFrames": 39,
        "frameRates": 60
      },
      {
        "trial_number": 49,
        "trial_index": 307,
        "rt": 625,
        "correct": true,
        "response": "ArrowRight",
        "congruent": true,
        "gazeTowards": false,
        "gazeCondition": "away",
        "faceOnLeft": true,
        "impliedDirection": 0,
        "testDirection": 0,
        "avgFps": 60,
        "minFps": 60,
        "maxFps": 75,
        "totalFrames": 37,
        "frameRates": 60
      },
      {
        "trial_number": 50,
        "trial_index": 312,
        "rt": 620,
        "correct": true,
        "response": "ArrowRight",
        "congruent": false,
        "gazeTowards": false,
        "gazeCondition": "away",
        "faceOnLeft": false,
        "impliedDirection": 180,
        "testDirection": 0,
        "avgFps": 61,
        "minFps": 60,
        "maxFps": 481,
        "totalFrames": 38,
        "frameRates": 61
      },
      {
        "trial_number": 51,
        "trial_index": 317,
        "rt": 742,
        "correct": true,
        "response": "ArrowRight",
        "congruent": true,
        "gazeTowards": false,
        "gazeCondition": "away",
        "faceOnLeft": true,
        "impliedDirection": 0,
        "testDirection": 0,
        "avgFps": 61,
        "minFps": 60,
        "maxFps": 97,
        "totalFrames": 44,
        "frameRates": 61
      },
      {
        "trial_number": 52,
        "trial_index": 322,
        "rt": 572,
        "correct": true,
        "response": "ArrowRight",
        "congruent": true,
        "gazeTowards": false,
        "gazeCondition": "away",
        "faceOnLeft": true,
        "impliedDirection": 0,
        "testDirection": 0,
        "avgFps": 61,
        "minFps": 60,
        "maxFps": 98,
        "totalFrames": 34,
        "frameRates": 61
      },
      {
        "trial_number": 53,
        "trial_index": 327,
        "rt": 577,
        "correct": true,
        "response": "ArrowRight",
        "congruent": false,
        "gazeTowards": true,
        "gazeCondition": "towards",
        "faceOnLeft": false,
        "impliedDirection": 180,
        "testDirection": 0,
        "avgFps": 61,
        "minFps": 60,
        "maxFps": 92,
        "totalFrames": 34,
        "frameRates": 61
      },
      {
        "trial_number": 54,
        "trial_index": 332,
        "rt": 650,
        "correct": true,
        "response": "ArrowRight",
        "congruent": false,
        "gazeTowards": true,
        "gazeCondition": "towards",
        "faceOnLeft": false,
        "impliedDirection": 180,
        "testDirection": 0,
        "avgFps": 60,
        "minFps": 30,
        "maxFps": 255,
        "totalFrames": 38,
        "frameRates": 60
      },
      {
        "trial_number": 55,
        "trial_index": 337,
        "rt": 542,
        "correct": true,
        "response": "ArrowLeft",
        "congruent": false,
        "gazeTowards": true,
        "gazeCondition": "towards",
        "faceOnLeft": true,
        "impliedDirection": 0,
        "testDirection": 180,
        "avgFps": 60,
        "minFps": 60,
        "maxFps": 79,
        "totalFrames": 32,
        "frameRates": 60
      },
      {
        "trial_number": 56,
        "trial_index": 342,
        "rt": 635,
        "correct": true,
        "response": "ArrowLeft",
        "congruent": true,
        "gazeTowards": false,
        "gazeCondition": "away",
        "faceOnLeft": false,
        "impliedDirection": 180,
        "testDirection": 180,
        "avgFps": 61,
        "minFps": 60,
        "maxFps": 102,
        "totalFrames": 38,
        "frameRates": 61
      },
      {
        "trial_number": 57,
        "trial_index": 347,
        "rt": 650,
        "correct": true,
        "response": "ArrowLeft",
        "congruent": false,
        "gazeTowards": false,
        "gazeCondition": "away",
        "faceOnLeft": true,
        "impliedDirection": 0,
        "testDirection": 180,
        "avgFps": 61,
        "minFps": 60,
        "maxFps": 336,
        "totalFrames": 39,
        "frameRates": 61
      },
      {
        "trial_number": 58,
        "trial_index": 352,
        "rt": 570,
        "correct": true,
        "response": "ArrowRight",
        "congruent": false,
        "gazeTowards": true,
        "gazeCondition": "towards",
        "faceOnLeft": false,
        "impliedDirection": 180,
        "testDirection": 0,
        "avgFps": 61,
        "minFps": 60,
        "maxFps": 142,
        "totalFrames": 34,
        "frameRates": 61
      },
      {
        "trial_number": 59,
        "trial_index": 357,
        "rt": 546,
        "correct": true,
        "response": "ArrowLeft",
        "congruent": true,
        "gazeTowards": true,
        "gazeCondition": "towards",
        "faceOnLeft": false,
        "impliedDirection": 180,
        "testDirection": 180,
        "avgFps": 61,
        "minFps": 60,
        "maxFps": 125,
        "totalFrames": 33,
        "frameRates": 61
      },
      {
        "trial_number": 60,
        "trial_index": 362,
        "rt": 611,
        "correct": true,
        "response": "ArrowLeft",
        "congruent": true,
        "gazeTowards": true,
        "gazeCondition": "towards",
        "faceOnLeft": false,
        "impliedDirection": 180,
        "testDirection": 180,
        "avgFps": 61,
        "minFps": 60,
        "maxFps": 275,
        "totalFrames": 37,
        "frameRates": 61
      },
      {
        "trial_number": 61,
        "trial_index": 367,
        "rt": 594,
        "correct": true,
        "response": "ArrowRight",
        "congruent": false,
        "gazeTowards": false,
        "gazeCondition": "away",
        "faceOnLeft": false,
        "impliedDirection": 180,
        "testDirection": 0,
        "avgFps": 61,
        "minFps": 54,
        "maxFps": 105,
        "totalFrames": 35,
        "frameRates": 61
      },
      {
        "trial_number": 62,
        "trial_index": 373,
        "rt": 546,
        "correct": true,
        "response": "ArrowLeft",
        "congruent": false,
        "gazeTowards": false,
        "gazeCondition": "away",
        "faceOnLeft": true,
        "impliedDirection": 0,
        "testDirection": 180,
        "avgFps": 61,
        "minFps": 60,
        "maxFps": 81,
        "totalFrames": 32,
        "frameRates": 61
      },
      {
        "trial_number": 63,
        "trial_index": 378,
        "rt": 596,
        "correct": true,
        "response": "ArrowLeft",
        "congruent": true,
        "gazeTowards": false,
        "gazeCondition": "away",
        "faceOnLeft": false,
        "impliedDirection": 180,
        "testDirection": 180,
        "avgFps": 60,
        "minFps": 60,
        "maxFps": 61,
        "totalFrames": 35,
        "frameRates": 60
      },
      {
        "trial_number": 64,
        "trial_index": 383,
        "rt": 523,
        "correct": true,
        "response": "ArrowRight",
        "congruent": true,
        "gazeTowards": false,
        "gazeCondition": "away",
        "faceOnLeft": true,
        "impliedDirection": 0,
        "testDirection": 0,
        "avgFps": 61,
        "minFps": 60,
        "maxFps": 128,
        "totalFrames": 31,
        "frameRates": 61
      },
      {
        "trial_number": 65,
        "trial_index": 388,
        "rt": 568,
        "correct": true,
        "response": "ArrowLeft",
        "congruent": false,
        "gazeTowards": true,
        "gazeCondition": "towards",
        "faceOnLeft": true,
        "impliedDirection": 0,
        "testDirection": 180,
        "avgFps": 61,
        "minFps": 60,
        "maxFps": 218,
        "totalFrames": 34,
        "frameRates": 61
      },
      {
        "trial_number": 66,
        "trial_index": 393,
        "rt": 525,
        "correct": true,
        "response": "ArrowLeft",
        "congruent": true,
        "gazeTowards": false,
        "gazeCondition": "away",
        "faceOnLeft": false,
        "impliedDirection": 180,
        "testDirection": 180,
        "avgFps": 61,
        "minFps": 60,
        "maxFps": 93,
        "totalFrames": 31,
        "frameRates": 61
      },
      {
        "trial_number": 67,
        "trial_index": 398,
        "rt": 563,
        "correct": true,
        "response": "ArrowRight",
        "congruent": false,
        "gazeTowards": false,
        "gazeCondition": "away",
        "faceOnLeft": false,
        "impliedDirection": 180,
        "testDirection": 0,
        "avgFps": 61,
        "minFps": 60,
        "maxFps": 145,
        "totalFrames": 34,
        "frameRates": 61
      },
      {
        "trial_number": 68,
        "trial_index": 403,
        "rt": 483,
        "correct": true,
        "response": "ArrowLeft",
        "congruent": false,
        "gazeTowards": false,
        "gazeCondition": "away",
        "faceOnLeft": true,
        "impliedDirection": 0,
        "testDirection": 180,
        "avgFps": 62,
        "minFps": 60,
        "maxFps": 370,
        "totalFrames": 29,
        "frameRates": 62
      },
      {
        "trial_number": 69,
        "trial_index": 408,
        "rt": 506,
        "correct": true,
        "response": "ArrowRight",
        "congruent": true,
        "gazeTowards": false,
        "gazeCondition": "away",
        "faceOnLeft": true,
        "impliedDirection": 0,
        "testDirection": 0,
        "avgFps": 62,
        "minFps": 60,
        "maxFps": 365,
        "totalFrames": 31,
        "frameRates": 62
      },
      {
        "trial_number": 70,
        "trial_index": 413,
        "rt": 654,
        "correct": true,
        "response": "ArrowRight",
        "congruent": false,
        "gazeTowards": true,
        "gazeCondition": "towards",
        "faceOnLeft": false,
        "impliedDirection": 180,
        "testDirection": 0,
        "avgFps": 60,
        "minFps": 60,
        "maxFps": 65,
        "totalFrames": 39,
        "frameRates": 60
      },
      {
        "trial_number": 71,
        "trial_index": 418,
        "rt": 445,
        "correct": true,
        "response": "ArrowLeft",
        "congruent": true,
        "gazeTowards": false,
        "gazeCondition": "away",
        "faceOnLeft": false,
        "impliedDirection": 180,
        "testDirection": 180,
        "avgFps": 61,
        "minFps": 60,
        "maxFps": 81,
        "totalFrames": 26,
        "frameRates": 61
      },
      {
        "trial_number": 72,
        "trial_index": 423,
        "rt": 578,
        "correct": true,
        "response": "ArrowLeft",
        "congruent": false,
        "gazeTowards": false,
        "gazeCondition": "away",
        "faceOnLeft": true,
        "impliedDirection": 0,
        "testDirection": 180,
        "avgFps": 62,
        "minFps": 60,
        "maxFps": 1724,
        "totalFrames": 35,
        "frameRates": 62
      },
      {
        "trial_number": 73,
        "trial_index": 428,
        "rt": 588,
        "correct": true,
        "response": "ArrowLeft",
        "congruent": true,
        "gazeTowards": false,
        "gazeCondition": "away",
        "faceOnLeft": false,
        "impliedDirection": 180,
        "testDirection": 180,
        "avgFps": 62,
        "minFps": 54,
        "maxFps": 4545,
        "totalFrames": 36,
        "frameRates": 62
      },
      {
        "trial_number": 74,
        "trial_index": 439,
        "rt": 538,
        "correct": true,
        "response": "ArrowRight",
        "congruent": false,
        "gazeTowards": false,
        "gazeCondition": "away",
        "faceOnLeft": false,
        "impliedDirection": 180,
        "testDirection": 0,
        "avgFps": 60,
        "minFps": 60,
        "maxFps": 71,
        "totalFrames": 32,
        "frameRates": 60
      },
      {
        "trial_number": 75,
        "trial_index": 444,
        "rt": 501,
        "correct": true,
        "response": "ArrowRight",
        "congruent": false,
        "gazeTowards": false,
        "gazeCondition": "away",
        "faceOnLeft": false,
        "impliedDirection": 180,
        "testDirection": 0,
        "avgFps": 61,
        "minFps": 60,
        "maxFps": 114,
        "totalFrames": 30,
        "frameRates": 61
      },
      {
        "trial_number": 76,
        "trial_index": 452,
        "rt": 531,
        "correct": true,
        "response": "ArrowLeft",
        "congruent": true,
        "gazeTowards": true,
        "gazeCondition": "towards",
        "faceOnLeft": false,
        "impliedDirection": 180,
        "testDirection": 180,
        "avgFps": 60,
        "minFps": 60,
        "maxFps": 61,
        "totalFrames": 31,
        "frameRates": 60
      },
      {
        "trial_number": 77,
        "trial_index": 457,
        "rt": 521,
        "correct": true,
        "response": "ArrowRight",
        "congruent": false,
        "gazeTowards": false,
        "gazeCondition": "away",
        "faceOnLeft": false,
        "impliedDirection": 180,
        "testDirection": 0,
        "avgFps": 61,
        "minFps": 60,
        "maxFps": 90,
        "totalFrames": 31,
        "frameRates": 61
      },
      {
        "trial_number": 78,
        "trial_index": 462,
        "rt": 554,
        "correct": true,
        "response": "ArrowRight",
        "congruent": false,
        "gazeTowards": true,
        "gazeCondition": "towards",
        "faceOnLeft": false,
        "impliedDirection": 180,
        "testDirection": 0,
        "avgFps": 61,
        "minFps": 60,
        "maxFps": 196,
        "totalFrames": 33,
        "frameRates": 61
      },
      {
        "trial_number": 79,
        "trial_index": 470,
        "rt": 648,
        "correct": true,
        "response": "ArrowRight",
        "congruent": true,
        "gazeTowards": false,
        "gazeCondition": "away",
        "faceOnLeft": true,
        "impliedDirection": 0,
        "testDirection": 0,
        "avgFps": 60,
        "minFps": 60,
        "maxFps": 78,
        "totalFrames": 39,
        "frameRates": 60
      },
      {
        "trial_number": 80,
        "trial_index": 475,
        "rt": 556,
        "correct": true,
        "response": "ArrowLeft",
        "congruent": false,
        "gazeTowards": false,
        "gazeCondition": "away",
        "faceOnLeft": true,
        "impliedDirection": 0,
        "testDirection": 180,
        "avgFps": 62,
        "minFps": 60,
        "maxFps": 407,
        "totalFrames": 34,
        "frameRates": 62
      },
      {
        "trial_number": 81,
        "trial_index": 480,
        "rt": 682,
        "correct": true,
        "response": "ArrowLeft",
        "congruent": false,
        "gazeTowards": true,
        "gazeCondition": "towards",
        "faceOnLeft": true,
        "impliedDirection": 0,
        "testDirection": 180,
        "avgFps": 60,
        "minFps": 60,
        "maxFps": 70,
        "totalFrames": 41,
        "frameRates": 60
      },
      {
        "trial_number": 82,
        "trial_index": 485,
        "rt": 528,
        "correct": true,
        "response": "ArrowRight",
        "congruent": false,
        "gazeTowards": false,
        "gazeCondition": "away",
        "faceOnLeft": false,
        "impliedDirection": 180,
        "testDirection": 0,
        "avgFps": 61,
        "minFps": 60,
        "maxFps": 130,
        "totalFrames": 32,
        "frameRates": 61
      },
      {
        "trial_number": 83,
        "trial_index": 490,
        "rt": 517,
        "correct": true,
        "response": "ArrowLeft",
        "congruent": true,
        "gazeTowards": false,
        "gazeCondition": "away",
        "faceOnLeft": false,
        "impliedDirection": 180,
        "testDirection": 180,
        "avgFps": 61,
        "minFps": 60,
        "maxFps": 89,
        "totalFrames": 31,
        "frameRates": 61
      },
      {
        "trial_number": 84,
        "trial_index": 495,
        "rt": 520,
        "correct": true,
        "response": "ArrowLeft",
        "congruent": false,
        "gazeTowards": true,
        "gazeCondition": "towards",
        "faceOnLeft": true,
        "impliedDirection": 0,
        "testDirection": 180,
        "avgFps": 61,
        "minFps": 60,
        "maxFps": 193,
        "totalFrames": 31,
        "frameRates": 61
      },
      {
        "trial_number": 85,
        "trial_index": 500,
        "rt": 503,
        "correct": true,
        "response": "ArrowLeft",
        "congruent": true,
        "gazeTowards": false,
        "gazeCondition": "away",
        "faceOnLeft": false,
        "impliedDirection": 180,
        "testDirection": 180,
        "avgFps": 61,
        "minFps": 60,
        "maxFps": 130,
        "totalFrames": 30,
        "frameRates": 61
      },
      {
        "trial_number": 86,
        "trial_index": 505,
        "rt": 549,
        "correct": true,
        "response": "ArrowRight",
        "congruent": true,
        "gazeTowards": true,
        "gazeCondition": "towards",
        "faceOnLeft": true,
        "impliedDirection": 0,
        "testDirection": 0,
        "avgFps": 62,
        "minFps": 60,
        "maxFps": 610,
        "totalFrames": 33,
        "frameRates": 62
      },
      {
        "trial_number": 87,
        "trial_index": 510,
        "rt": 557,
        "correct": true,
        "response": "ArrowRight",
        "congruent": false,
        "gazeTowards": true,
        "gazeCondition": "towards",
        "faceOnLeft": false,
        "impliedDirection": 180,
        "testDirection": 0,
        "avgFps": 60,
        "minFps": 60,
        "maxFps": 65,
        "totalFrames": 33,
        "frameRates": 60
      },
      {
        "trial_number": 88,
        "trial_index": 515,
        "rt": 567,
        "correct": true,
        "response": "ArrowLeft",
        "congruent": false,
        "gazeTowards": false,
        "gazeCondition": "away",
        "faceOnLeft": true,
        "impliedDirection": 0,
        "testDirection": 180,
        "avgFps": 61,
        "minFps": 60,
        "maxFps": 85,
        "totalFrames": 34,
        "frameRates": 61
      },
      {
        "trial_number": 89,
        "trial_index": 520,
        "rt": 547,
        "correct": true,
        "response": "ArrowRight",
        "congruent": false,
        "gazeTowards": true,
        "gazeCondition": "towards",
        "faceOnLeft": false,
        "impliedDirection": 180,
        "testDirection": 0,
        "avgFps": 62,
        "minFps": 60,
        "maxFps": 595,
        "totalFrames": 33,
        "frameRates": 62
      },
      {
        "trial_number": 90,
        "trial_index": 525,
        "rt": 531,
        "correct": true,
        "response": "ArrowRight",
        "congruent": false,
        "gazeTowards": true,
        "gazeCondition": "towards",
        "faceOnLeft": false,
        "impliedDirection": 180,
        "testDirection": 0,
        "avgFps": 62,
        "minFps": 60,
        "maxFps": 292,
        "totalFrames": 32,
        "frameRates": 62
      },
      {
        "trial_number": 91,
        "trial_index": 531,
        "rt": 583,
        "correct": true,
        "response": "ArrowRight",
        "congruent": true,
        "gazeTowards": false,
        "gazeCondition": "away",
        "faceOnLeft": true,
        "impliedDirection": 0,
        "testDirection": 0,
        "avgFps": 61,
        "minFps": 60,
        "maxFps": 88,
        "totalFrames": 35,
        "frameRates": 61
      },
      {
        "trial_number": 92,
        "trial_index": 536,
        "rt": 569,
        "correct": true,
        "response": "ArrowRight",
        "congruent": true,
        "gazeTowards": true,
        "gazeCondition": "towards",
        "faceOnLeft": true,
        "impliedDirection": 0,
        "testDirection": 0,
        "avgFps": 62,
        "minFps": 60,
        "maxFps": 388,
        "totalFrames": 34,
        "frameRates": 62
      },
      {
        "trial_number": 93,
        "trial_index": 541,
        "rt": 523,
        "correct": true,
        "response": "ArrowLeft",
        "congruent": true,
        "gazeTowards": true,
        "gazeCondition": "towards",
        "faceOnLeft": false,
        "impliedDirection": 180,
        "testDirection": 180,
        "avgFps": 60,
        "minFps": 54,
        "maxFps": 64,
        "totalFrames": 31,
        "frameRates": 60
      },
      {
        "trial_number": 94,
        "trial_index": 546,
        "rt": 496,
        "correct": true,
        "response": "ArrowLeft",
        "congruent": true,
        "gazeTowards": false,
        "gazeCondition": "away",
        "faceOnLeft": false,
        "impliedDirection": 180,
        "testDirection": 180,
        "avgFps": 61,
        "minFps": 60,
        "maxFps": 163,
        "totalFrames": 30,
        "frameRates": 61
      },
      {
        "trial_number": 95,
        "trial_index": 551,
        "rt": 480,
        "correct": true,
        "response": "ArrowLeft",
        "congruent": true,
        "gazeTowards": false,
        "gazeCondition": "away",
        "faceOnLeft": false,
        "impliedDirection": 180,
        "testDirection": 180,
        "avgFps": 62,
        "minFps": 60,
        "maxFps": 3571,
        "totalFrames": 29,
        "frameRates": 62
      },
      {
        "trial_number": 96,
        "trial_index": 556,
        "rt": 491,
        "correct": true,
        "response": "ArrowRight",
        "congruent": false,
        "gazeTowards": false,
        "gazeCondition": "away",
        "faceOnLeft": false,
        "impliedDirection": 180,
        "testDirection": 0,
        "avgFps": 61,
        "minFps": 60,
        "maxFps": 103,
        "totalFrames": 29,
        "frameRates": 61
      },
      {
        "trial_number": 97,
        "trial_index": 564,
        "rt": 462,
        "correct": true,
        "response": "ArrowLeft",
        "congruent": true,
        "gazeTowards": true,
        "gazeCondition": "towards",
        "faceOnLeft": false,
        "impliedDirection": 180,
        "testDirection": 180,
        "avgFps": 61,
        "minFps": 60,
        "maxFps": 128,
        "totalFrames": 28,
        "frameRates": 61
      },
      {
        "trial_number": 98,
        "trial_index": 569,
        "rt": 451,
        "correct": true,
        "response": "ArrowRight",
        "congruent": true,
        "gazeTowards": true,
        "gazeCondition": "towards",
        "faceOnLeft": true,
        "impliedDirection": 0,
        "testDirection": 0,
        "avgFps": 62,
        "minFps": 60,
        "maxFps": 417,
        "totalFrames": 27,
        "frameRates": 62
      },
      {
        "trial_number": 99,
        "trial_index": 574,
        "rt": 511,
        "correct": true,
        "response": "ArrowLeft",
        "congruent": false,
        "gazeTowards": true,
        "gazeCondition": "towards",
        "faceOnLeft": true,
        "impliedDirection": 0,
        "testDirection": 180,
        "avgFps": 61,
        "minFps": 60,
        "maxFps": 97,
        "totalFrames": 30,
        "frameRates": 61
      },
      {
        "trial_number": 100,
        "trial_index": 579,
        "rt": 500,
        "correct": true,
        "response": "ArrowLeft",
        "congruent": true,
        "gazeTowards": true,
        "gazeCondition": "towards",
        "faceOnLeft": false,
        "impliedDirection": 180,
        "testDirection": 180,
        "avgFps": 62,
        "minFps": 60,
        "maxFps": 532,
        "totalFrames": 30,
        "frameRates": 62
      },
      {
        "trial_number": 101,
        "trial_index": 584,
        "rt": 587,
        "correct": true,
        "response": "ArrowRight",
        "congruent": true,
        "gazeTowards": true,
        "gazeCondition": "towards",
        "faceOnLeft": true,
        "impliedDirection": 0,
        "testDirection": 0,
        "avgFps": 61,
        "minFps": 60,
        "maxFps": 105,
        "totalFrames": 35,
        "frameRates": 61
      },
      {
        "trial_number": 102,
        "trial_index": 589,
        "rt": 630,
        "correct": true,
        "response": "ArrowLeft",
        "congruent": false,
        "gazeTowards": false,
        "gazeCondition": "away",
        "faceOnLeft": true,
        "impliedDirection": 0,
        "testDirection": 180,
        "avgFps": 61,
        "minFps": 54,
        "maxFps": 161,
        "totalFrames": 38,
        "frameRates": 61
      },
      {
        "trial_number": 103,
        "trial_index": 594,
        "rt": 877,
        "correct": true,
        "response": "ArrowRight",
        "congruent": true,
        "gazeTowards": false,
        "gazeCondition": "away",
        "faceOnLeft": true,
        "impliedDirection": 0,
        "testDirection": 0,
        "avgFps": 61,
        "minFps": 60,
        "maxFps": 505,
        "totalFrames": 53,
        "frameRates": 61
      },
      {
        "trial_number": 104,
        "trial_index": 599,
        "rt": 464,
        "correct": true,
        "response": "ArrowRight",
        "congruent": false,
        "gazeTowards": false,
        "gazeCondition": "away",
        "faceOnLeft": false,
        "impliedDirection": 180,
        "testDirection": 0,
        "avgFps": 61,
        "minFps": 60,
        "maxFps": 86,
        "totalFrames": 28,
        "frameRates": 61
      },
      {
        "trial_number": 105,
        "trial_index": 604,
        "rt": 628,
        "correct": true,
        "response": "ArrowRight",
        "congruent": false,
        "gazeTowards": true,
        "gazeCondition": "towards",
        "faceOnLeft": false,
        "impliedDirection": 180,
        "testDirection": 0,
        "avgFps": 61,
        "minFps": 60,
        "maxFps": 152,
        "totalFrames": 38,
        "frameRates": 61
      },
      {
        "trial_number": 106,
        "trial_index": 609,
        "rt": 551,
        "correct": true,
        "response": "ArrowRight",
        "congruent": true,
        "gazeTowards": false,
        "gazeCondition": "away",
        "faceOnLeft": true,
        "impliedDirection": 0,
        "testDirection": 0,
        "avgFps": 62,
        "minFps": 60,
        "maxFps": 446,
        "totalFrames": 33,
        "frameRates": 62
      },
      {
        "trial_number": 107,
        "trial_index": 614,
        "rt": 569,
        "correct": true,
        "response": "ArrowLeft",
        "congruent": false,
        "gazeTowards": true,
        "gazeCondition": "towards",
        "faceOnLeft": true,
        "impliedDirection": 0,
        "testDirection": 180,
        "avgFps": 60,
        "minFps": 60,
        "maxFps": 73,
        "totalFrames": 34,
        "frameRates": 60
      },
      {
        "trial_number": 108,
        "trial_index": 619,
        "rt": 521,
        "correct": true,
        "response": "ArrowRight",
        "congruent": true,
        "gazeTowards": true,
        "gazeCondition": "towards",
        "faceOnLeft": true,
        "impliedDirection": 0,
        "testDirection": 0,
        "avgFps": 61,
        "minFps": 60,
        "maxFps": 131,
        "totalFrames": 31,
        "frameRates": 61
      },
      {
        "trial_number": 109,
        "trial_index": 624,
        "rt": 537,
        "correct": true,
        "response": "ArrowLeft",
        "congruent": false,
        "gazeTowards": true,
        "gazeCondition": "towards",
        "faceOnLeft": true,
        "impliedDirection": 0,
        "testDirection": 180,
        "avgFps": 60,
        "minFps": 30,
        "maxFps": 2174,
        "totalFrames": 32,
        "frameRates": 60
      },
      {
        "trial_number": 110,
        "trial_index": 629,
        "rt": 537,
        "correct": true,
        "response": "ArrowRight",
        "congruent": true,
        "gazeTowards": true,
        "gazeCondition": "towards",
        "faceOnLeft": true,
        "impliedDirection": 0,
        "testDirection": 0,
        "avgFps": 61,
        "minFps": 60,
        "maxFps": 94,
        "totalFrames": 32,
        "frameRates": 61
      },
      {
        "trial_number": 111,
        "trial_index": 634,
        "rt": 540,
        "correct": true,
        "response": "ArrowRight",
        "congruent": false,
        "gazeTowards": true,
        "gazeCondition": "towards",
        "faceOnLeft": false,
        "impliedDirection": 180,
        "testDirection": 0,
        "avgFps": 61,
        "minFps": 60,
        "maxFps": 85,
        "totalFrames": 32,
        "frameRates": 61
      },
      {
        "trial_number": 112,
        "trial_index": 639,
        "rt": 563,
        "correct": true,
        "response": "ArrowRight",
        "congruent": false,
        "gazeTowards": false,
        "gazeCondition": "away",
        "faceOnLeft": false,
        "impliedDirection": 180,
        "testDirection": 0,
        "avgFps": 61,
        "minFps": 60,
        "maxFps": 92,
        "totalFrames": 34,
        "frameRates": 61
      },
      {
        "trial_number": 113,
        "trial_index": 644,
        "rt": 518,
        "correct": true,
        "response": "ArrowLeft",
        "congruent": true,
        "gazeTowards": true,
        "gazeCondition": "towards",
        "faceOnLeft": false,
        "impliedDirection": 180,
        "testDirection": 180,
        "avgFps": 62,
        "minFps": 60,
        "maxFps": 298,
        "totalFrames": 31,
        "frameRates": 62
      },
      {
        "trial_number": 114,
        "trial_index": 649,
        "rt": 572,
        "correct": true,
        "response": "ArrowRight",
        "congruent": false,
        "gazeTowards": false,
        "gazeCondition": "away",
        "faceOnLeft": false,
        "impliedDirection": 180,
        "testDirection": 0,
        "avgFps": 61,
        "minFps": 60,
        "maxFps": 254,
        "totalFrames": 34,
        "frameRates": 61
      },
      {
        "trial_number": 115,
        "trial_index": 660,
        "rt": 578,
        "correct": true,
        "response": "ArrowLeft",
        "congruent": false,
        "gazeTowards": true,
        "gazeCondition": "towards",
        "faceOnLeft": true,
        "impliedDirection": 0,
        "testDirection": 180,
        "avgFps": 61,
        "minFps": 54,
        "maxFps": 183,
        "totalFrames": 35,
        "frameRates": 61
      },
      {
        "trial_number": 116,
        "trial_index": 665,
        "rt": 529,
        "correct": true,
        "response": "ArrowLeft",
        "congruent": false,
        "gazeTowards": false,
        "gazeCondition": "away",
        "faceOnLeft": true,
        "impliedDirection": 0,
        "testDirection": 180,
        "avgFps": 62,
        "minFps": 60,
        "maxFps": 446,
        "totalFrames": 32,
        "frameRates": 62
      },
      {
        "trial_number": 117,
        "trial_index": 673,
        "rt": 549,
        "correct": true,
        "response": "ArrowRight",
        "congruent": true,
        "gazeTowards": true,
        "gazeCondition": "towards",
        "faceOnLeft": true,
        "impliedDirection": 0,
        "testDirection": 0,
        "avgFps": 61,
        "minFps": 54,
        "maxFps": 124,
        "totalFrames": 33,
        "frameRates": 61
      },
      {
        "trial_number": 118,
        "trial_index": 678,
        "rt": 604,
        "correct": true,
        "response": "ArrowRight",
        "congruent": true,
        "gazeTowards": true,
        "gazeCondition": "towards",
        "faceOnLeft": true,
        "impliedDirection": 0,
        "testDirection": 0,
        "avgFps": 60,
        "minFps": 54,
        "maxFps": 68,
        "totalFrames": 36,
        "frameRates": 60
      },
      {
        "trial_number": 119,
        "trial_index": 683,
        "rt": 566,
        "correct": true,
        "response": "ArrowRight",
        "congruent": true,
        "gazeTowards": false,
        "gazeCondition": "away",
        "faceOnLeft": true,
        "impliedDirection": 0,
        "testDirection": 0,
        "avgFps": 60,
        "minFps": 54,
        "maxFps": 80,
        "totalFrames": 34,
        "frameRates": 60
      }
    ],
    "catch": {
      "total": 12,
      "correct": 12,
      "accuracy": 100,
      "meanRT": 670,
      "trials": [
        {
          "trial_number": 0,
          "trial_index": 178,
          "rt": 785,
          "correct": true,
          "colorTarget": "tree",
          "gazeTowards": false,
          "gazeCondition": "away",
          "faceOnLeft": true
        },
        {
          "trial_number": 1,
          "trial_index": 222,
          "rt": 633,
          "correct": true,
          "colorTarget": "tree",
          "gazeTowards": false,
          "gazeCondition": "away",
          "faceOnLeft": false
        },
        {
          "trial_number": 2,
          "trial_index": 260,
          "rt": 752,
          "correct": true,
          "colorTarget": "tree",
          "gazeTowards": false,
          "gazeCondition": "away",
          "faceOnLeft": true
        },
        {
          "trial_number": 3,
          "trial_index": 263,
          "rt": 916,
          "correct": true,
          "colorTarget": "face",
          "gazeTowards": false,
          "gazeCondition": "away",
          "faceOnLeft": true
        },
        {
          "trial_number": 4,
          "trial_index": 432,
          "rt": 842,
          "correct": true,
          "colorTarget": "face",
          "gazeTowards": false,
          "gazeCondition": "away",
          "faceOnLeft": true
        },
        {
          "trial_number": 5,
          "trial_index": 435,
          "rt": 464,
          "correct": true,
          "colorTarget": "face",
          "gazeTowards": false,
          "gazeCondition": "away",
          "faceOnLeft": true
        },
        {
          "trial_number": 6,
          "trial_index": 448,
          "rt": 640,
          "correct": true,
          "colorTarget": "face",
          "gazeTowards": false,
          "gazeCondition": "away",
          "faceOnLeft": false
        },
        {
          "trial_number": 7,
          "trial_index": 466,
          "rt": 611,
          "correct": true,
          "colorTarget": "tree",
          "gazeTowards": false,
          "gazeCondition": "away",
          "faceOnLeft": false
        },
        {
          "trial_number": 8,
          "trial_index": 560,
          "rt": 640,
          "correct": true,
          "colorTarget": "tree",
          "gazeTowards": true,
          "gazeCondition": "towards",
          "faceOnLeft": false
        },
        {
          "trial_number": 9,
          "trial_index": 653,
          "rt": 632,
          "correct": true,
          "colorTarget": "tree",
          "gazeTowards": true,
          "gazeCondition": "towards",
          "faceOnLeft": false
        },
        {
          "trial_number": 10,
          "trial_index": 656,
          "rt": 630,
          "correct": true,
          "colorTarget": "face",
          "gazeTowards": false,
          "gazeCondition": "away",
          "faceOnLeft": false
        },
        {
          "trial_number": 11,
          "trial_index": 669,
          "rt": 494,
          "correct": true,
          "colorTarget": "face",
          "gazeTowards": true,
          "gazeCondition": "towards",
          "faceOnLeft": true
        }
      ]
    },
    "practice": {
      "trials": [
        {
          "trial_number": 0,
          "rt": 1140,
          "correct": true,
          "direction": 0
        },
        {
          "trial_number": 1,
          "rt": 1338,
          "correct": true,
          "direction": 0
        },
        {
          "trial_number": 2,
          "rt": 914,
          "correct": true,
          "direction": 180
        },
        {
          "trial_number": 3,
          "rt": 620,
          "correct": true,
          "direction": 180
        },
        {
          "trial_number": 4,
          "rt": 627,
          "correct": true,
          "direction": 180
        },
        {
          "trial_number": 5,
          "rt": 549,
          "correct": true,
          "direction": 0
        },
        {
          "trial_number": 6,
          "rt": 585,
          "correct": true,
          "direction": 0
        },
        {
          "trial_number": 7,
          "rt": 592,
          "correct": true,
          "direction": 0
        },
        {
          "trial_number": 8,
          "rt": 576,
          "correct": true,
          "direction": 180
        },
        {
          "trial_number": 9,
          "rt": 538,
          "correct": true,
          "direction": 0
        }
      ],
      "meanRT": 748,
      "accuracy": 100
    }
  }
}