{
  "experiment": "rdk-face-1",
  "UUID": "0b7085da-a4c6-461f-83a0-130cd93fed1b",
  "data": {
    "session": {
      "experiment_version": "1.8.6",
      "treatment": "faces_towards_away_catch",
      "file_version": "1.8.6",
      "totalTrials": 120,
      "totalTrialsIncludingCatch": 132,
      "conditions": {
        "gazeTowardsCount": 60,
        "gazeAwayCount": 60,
        "gazeTowardsAccuracy": 98,
        "gazeAwayAccuracy": 98
      },
      "session_group": "default",
      "browserData": {
        "os": "Windows",
        "browser": "Chrome",
        "screenResolution": "1280x720",
        "browserViewport": "1280x720",
        "devicePixelRatio": 1,
        "colorDepth": 24,
        "hardwareConcurrency": 6,
        "deviceMemory": 8,
        "gpuRenderer": "ANGLE (Intel, Intel(R) HD Graphics Family (0x00000A16) Direct3D11 vs_5_0 ps_5_0, D3D11)",
        "measuredRefreshRateHz": 31
      },
      "attention": {
        "visibilityEvents": [
          {
            "event": "blur",
            "state": "blurred",
            "timestamp": 1772781542893
          },
          {
            "event": "visibilitychange",
            "state": "hidden",
            "timestamp": 1772781542942
          },
          {
            "event": "visibilitychange",
            "state": "visible",
            "timestamp": 1772781556285
          },
          {
            "event": "focus",
            "state": "focused",
            "timestamp": 1772781556303
          },
          {
            "event": "blur",
            "state": "blurred",
            "timestamp": 1772781557196
          },
          {
            "event": "visibilitychange",
            "state": "hidden",
            "timestamp": 1772781557202
          },
          {
            "event": "visibilitychange",
            "state": "visible",
            "timestamp": 1772781577325
          },
          {
            "event": "focus",
            "state": "focused",
            "timestamp": 1772781577365
          }
        ]
      },
      "calibration": {
        "monitorWidthCm": 38,
        "viewingDistanceCm": 54,
        "pixelsPerDegree": 50
      },
      "parameters": {
        "coherence": 0.4,
        "apertureDeg": 5,
        "densityDotsPerDeg2": 40,
        "dotDiameterDeg": 0.035,
        "dotSpeedDegPerSec": 3,
        "lifetimeMs": 200,
        "fixationDurationMs": 1500,
        "faceDurationMs": 1500,
        "testDurationMs": 2000,
        "catchResponseMs": 3000
      },
      "prolific": {
        "prolificPid": "67e2b6561ccb8f5bb055cc85",
        "studyId": "",
        "sessionId": ""
      },
      "timing": {
        "startTime": "2026-03-06T07:18:55.219Z",
        "endTime": "2026-03-06T07:36:01.219Z",
        "totalElapsedTimeMs": 1026000
      }
    },
    "trials": [
      {
        "trial_number": 0,
        "trial_index": 52,
        "rt": 1255,
        "correct": true,
        "response": "ArrowRight",
        "congruent": false,
        "gazeTowards": true,
        "gazeCondition": "towards",
        "faceOnLeft": false,
        "impliedDirection": 180,
        "testDirection": 0,
        "avgFps": 60,
        "minFps": 60,
        "maxFps": 62,
        "totalFrames": 75,
        "frameRates": 60
      },
      {
        "trial_number": 1,
        "trial_index": 57,
        "rt": 1427,
        "correct": true,
        "response": "ArrowLeft",
        "congruent": true,
        "gazeTowards": true,
        "gazeCondition": "towards",
        "faceOnLeft": false,
        "impliedDirection": 180,
        "testDirection": 180,
        "avgFps": 60,
        "minFps": 60,
        "maxFps": 66,
        "totalFrames": 86,
        "frameRates": 60
      },
      {
        "trial_number": 2,
        "trial_index": 62,
        "rt": 1081,
        "correct": true,
        "response": "ArrowRight",
        "congruent": true,
        "gazeTowards": false,
        "gazeCondition": "away",
        "faceOnLeft": true,
        "impliedDirection": 0,
        "testDirection": 0,
        "avgFps": 61,
        "minFps": 60,
        "maxFps": null,
        "totalFrames": 65,
        "frameRates": 61
      },
      {
        "trial_number": 3,
        "trial_index": 67,
        "rt": 1166,
        "correct": true,
        "response": "ArrowRight",
        "congruent": false,
        "gazeTowards": true,
        "gazeCondition": "towards",
        "faceOnLeft": false,
        "impliedDirection": 180,
        "testDirection": 0,
        "avgFps": 60,
        "minFps": 60,
        "maxFps": 65,
        "totalFrames": 70,
        "frameRates": 60
      },
      {
        "trial_number": 4,
        "trial_index": 72,
        "rt": 1151,
        "correct": true,
        "response": "ArrowRight",
        "congruent": false,
        "gazeTowards": true,
        "gazeCondition": "towards",
        "faceOnLeft": false,
        "impliedDirection": 180,
        "testDirection": 0,
        "avgFps": 60,
        "minFps": 59,
        "maxFps": 66,
        "totalFrames": 69,
        "frameRates": 60
      },
      {
        "trial_number": 5,
        "trial_index": 77,
        "rt": 1180,
        "correct": true,
        "response": "ArrowLeft",
        "congruent": false,
        "gazeTowards": false,
        "gazeCondition": "away",
        "faceOnLeft": true,
        "impliedDirection": 0,
        "testDirection": 180,
        "avgFps": 60,
        "minFps": 60,
        "maxFps": 66,
        "totalFrames": 71,
        "frameRates": 60
      },
      {
        "trial_number": 6,
        "trial_index": 82,
        "rt": 1096,
        "correct": true,
        "response": "ArrowRight",
        "congruent": true,
        "gazeTowards": true,
        "gazeCondition": "towards",
        "faceOnLeft": true,
        "impliedDirection": 0,
        "testDirection": 0,
        "avgFps": 60,
        "minFps": 59,
        "maxFps": 66,
        "totalFrames": 65,
        "frameRates": 60
      },
      {
        "trial_number": 7,
        "trial_index": 87,
        "rt": 1118,
        "correct": true,
        "response": "ArrowLeft",
        "congruent": true,
        "gazeTowards": false,
        "gazeCondition": "away",
        "faceOnLeft": false,
        "impliedDirection": 180,
        "testDirection": 180,
        "avgFps": 61,
        "minFps": 60,
        "maxFps": null,
        "totalFrames": 67,
        "frameRates": 61
      },
      {
        "trial_number": 8,
        "trial_index": 92,
        "rt": 1108,
        "correct": true,
        "response": "ArrowLeft",
        "congruent": false,
        "gazeTowards": true,
        "gazeCondition": "towards",
        "faceOnLeft": true,
        "impliedDirection": 0,
        "testDirection": 180,
        "avgFps": 60,
        "minFps": 60,
        "maxFps": 65,
        "totalFrames": 66,
        "frameRates": 60
      },
      {
        "trial_number": 9,
        "trial_index": 97,
        "rt": 1533,
        "correct": true,
        "response": "ArrowLeft",
        "congruent": true,
        "gazeTowards": true,
        "gazeCondition": "towards",
        "faceOnLeft": false,
        "impliedDirection": 180,
        "testDirection": 180,
        "avgFps": 60,
        "minFps": 60,
        "maxFps": 62,
        "totalFrames": 90,
        "frameRates": 60
      },
      {
        "trial_number": 10,
        "trial_index": 102,
        "rt": 1187,
        "correct": true,
        "response": "ArrowLeft",
        "congruent": true,
        "gazeTowards": false,
        "gazeCondition": "away",
        "faceOnLeft": false,
        "impliedDirection": 180,
        "testDirection": 180,
        "avgFps": 60,
        "minFps": 60,
        "maxFps": 62,
        "totalFrames": 71,
        "frameRates": 60
      },
      {
        "trial_number": 11,
        "trial_index": 107,
        "rt": 1033,
        "correct": true,
        "response": "ArrowRight",
        "congruent": true,
        "gazeTowards": false,
        "gazeCondition": "away",
        "faceOnLeft": true,
        "impliedDirection": 0,
        "testDirection": 0,
        "avgFps": 60,
        "minFps": 60,
        "maxFps": 66,
        "totalFrames": 62,
        "frameRates": 60
      },
      {
        "trial_number": 12,
        "trial_index": 112,
        "rt": 1263,
        "correct": true,
        "response": "ArrowLeft",
        "congruent": false,
        "gazeTowards": false,
        "gazeCondition": "away",
        "faceOnLeft": true,
        "impliedDirection": 0,
        "testDirection": 180,
        "avgFps": 61,
        "minFps": 60,
        "maxFps": null,
        "totalFrames": 76,
        "frameRates": 61
      },
      {
        "trial_number": 13,
        "trial_index": 117,
        "rt": 1165,
        "correct": true,
        "response": "ArrowRight",
        "congruent": true,
        "gazeTowards": true,
        "gazeCondition": "towards",
        "faceOnLeft": true,
        "impliedDirection": 0,
        "testDirection": 0,
        "avgFps": 60,
        "minFps": 60,
        "maxFps": 66,
        "totalFrames": 70,
        "frameRates": 60
      },
      {
        "trial_number": 14,
        "trial_index": 122,
        "rt": 1449,
        "correct": true,
        "response": "ArrowLeft",
        "congruent": false,
        "gazeTowards": true,
        "gazeCondition": "towards",
        "faceOnLeft": true,
        "impliedDirection": 0,
        "testDirection": 180,
        "avgFps": 60,
        "minFps": 60,
        "maxFps": 66,
        "totalFrames": 87,
        "frameRates": 60
      },
      {
        "trial_number": 15,
        "trial_index": 127,
        "rt": 1593,
        "correct": true,
        "response": "ArrowRight",
        "congruent": false,
        "gazeTowards": true,
        "gazeCondition": "towards",
        "faceOnLeft": false,
        "impliedDirection": 180,
        "testDirection": 0,
        "avgFps": 60,
        "minFps": 60,
        "maxFps": 62,
        "totalFrames": 96,
        "frameRates": 60
      },
      {
        "trial_number": 16,
        "trial_index": 132,
        "rt": 1330,
        "correct": true,
        "response": "ArrowLeft",
        "congruent": true,
        "gazeTowards": true,
        "gazeCondition": "towards",
        "faceOnLeft": false,
        "impliedDirection": 180,
        "testDirection": 180,
        "avgFps": 60,
        "minFps": 60,
        "maxFps": 65,
        "totalFrames": 79,
        "frameRates": 60
      },
      {
        "trial_number": 17,
        "trial_index": 137,
        "rt": 1407,
        "correct": true,
        "response": "ArrowLeft",
        "congruent": true,
        "gazeTowards": false,
        "gazeCondition": "away",
        "faceOnLeft": false,
        "impliedDirection": 180,
        "testDirection": 180,
        "avgFps": 60,
        "minFps": 60,
        "maxFps": 63,
        "totalFrames": 84,
        "frameRates": 60
      },
      {
        "trial_number": 18,
        "trial_index": 142,
        "rt": 1342,
        "correct": true,
        "response": "ArrowRight",
        "congruent": false,
        "gazeTowards": false,
        "gazeCondition": "away",
        "faceOnLeft": false,
        "impliedDirection": 180,
        "testDirection": 0,
        "avgFps": 60,
        "minFps": 59,
        "maxFps": 66,
        "totalFrames": 81,
        "frameRates": 60
      },
      {
        "trial_number": 19,
        "trial_index": 147,
        "rt": 1352,
        "correct": true,
        "response": "ArrowLeft",
        "congruent": false,
        "gazeTowards": false,
        "gazeCondition": "away",
        "faceOnLeft": true,
        "impliedDirection": 0,
        "testDirection": 180,
        "avgFps": 60,
        "minFps": 60,
        "maxFps": 62,
        "totalFrames": 81,
        "frameRates": 60
      },
      {
        "trial_number": 20,
        "trial_index": 152,
        "rt": 1442,
        "correct": true,
        "response": "ArrowRight",
        "congruent": false,
        "gazeTowards": true,
        "gazeCondition": "towards",
        "faceOnLeft": false,
        "impliedDirection": 180,
        "testDirection": 0,
        "avgFps": 60,
        "minFps": 60,
        "maxFps": 66,
        "totalFrames": 87,
        "frameRates": 60
      },
      {
        "trial_number": 21,
        "trial_index": 160,
        "rt": 1247,
        "correct": true,
        "response": "ArrowRight",
        "congruent": true,
        "gazeTowards": true,
        "gazeCondition": "towards",
        "faceOnLeft": true,
        "impliedDirection": 0,
        "testDirection": 0,
        "avgFps": 60,
        "minFps": 60,
        "maxFps": 64,
        "totalFrames": 74,
        "frameRates": 60
      },
      {
        "trial_number": 22,
        "trial_index": 165,
        "rt": 1344,
        "correct": true,
        "response": "ArrowLeft",
        "congruent": false,
        "gazeTowards": true,
        "gazeCondition": "towards",
        "faceOnLeft": true,
        "impliedDirection": 0,
        "testDirection": 180,
        "avgFps": 60,
        "minFps": 59,
        "maxFps": 65,
        "totalFrames": 81,
        "frameRates": 60
      },
      {
        "trial_number": 23,
        "trial_index": 170,
        "rt": 1194,
        "correct": true,
        "response": "ArrowRight",
        "congruent": true,
        "gazeTowards": false,
        "gazeCondition": "away",
        "faceOnLeft": true,
        "impliedDirection": 0,
        "testDirection": 0,
        "avgFps": 61,
        "minFps": 60,
        "maxFps": null,
        "totalFrames": 72,
        "frameRates": 61
      },
      {
        "trial_number": 24,
        "trial_index": 175,
        "rt": 1379,
        "correct": true,
        "response": "ArrowLeft",
        "congruent": true,
        "gazeTowards": true,
        "gazeCondition": "towards",
        "faceOnLeft": false,
        "impliedDirection": 180,
        "testDirection": 180,
        "avgFps": 60,
        "minFps": 60,
        "maxFps": 62,
        "totalFrames": 82,
        "frameRates": 60
      },
      {
        "trial_number": 25,
        "trial_index": 180,
        "rt": 829,
        "correct": true,
        "response": "ArrowRight",
        "congruent": false,
        "gazeTowards": true,
        "gazeCondition": "towards",
        "faceOnLeft": false,
        "impliedDirection": 180,
        "testDirection": 0,
        "avgFps": 60,
        "minFps": 60,
        "maxFps": 66,
        "totalFrames": 50,
        "frameRates": 60
      },
      {
        "trial_number": 26,
        "trial_index": 188,
        "rt": 1364,
        "correct": true,
        "response": "ArrowLeft",
        "congruent": true,
        "gazeTowards": true,
        "gazeCondition": "towards",
        "faceOnLeft": false,
        "impliedDirection": 180,
        "testDirection": 180,
        "avgFps": 60,
        "minFps": 60,
        "maxFps": 62,
        "totalFrames": 81,
        "frameRates": 60
      },
      {
        "trial_number": 27,
        "trial_index": 193,
        "rt": 1961,
        "correct": false,
        "response": "ArrowLeft",
        "congruent": true,
        "gazeTowards": false,
        "gazeCondition": "away",
        "faceOnLeft": true,
        "impliedDirection": 0,
        "testDirection": 0,
        "avgFps": 60,
        "minFps": 60,
        "maxFps": 66,
        "totalFrames": 117,
        "frameRates": 60
      },
      {
        "trial_number": 28,
        "trial_index": 201,
        "rt": 1734,
        "correct": true,
        "response": "ArrowRight",
        "congruent": false,
        "gazeTowards": false,
        "gazeCondition": "away",
        "faceOnLeft": false,
        "impliedDirection": 180,
        "testDirection": 0,
        "avgFps": 61,
        "minFps": 60,
        "maxFps": null,
        "totalFrames": 104,
        "frameRates": 61
      },
      {
        "trial_number": 29,
        "trial_index": 210,
        "rt": 1498,
        "correct": true,
        "response": "ArrowRight",
        "congruent": true,
        "gazeTowards": true,
        "gazeCondition": "towards",
        "faceOnLeft": true,
        "impliedDirection": 0,
        "testDirection": 0,
        "avgFps": 60,
        "minFps": 60,
        "maxFps": 63,
        "totalFrames": 90,
        "frameRates": 60
      },
      {
        "trial_number": 30,
        "trial_index": 218,
        "rt": 1367,
        "correct": false,
        "response": "ArrowRight",
        "congruent": true,
        "gazeTowards": true,
        "gazeCondition": "towards",
        "faceOnLeft": false,
        "impliedDirection": 180,
        "testDirection": 180,
        "avgFps": 60,
        "minFps": 60,
        "maxFps": 66,
        "totalFrames": 82,
        "frameRates": 60
      },
      {
        "trial_number": 31,
        "trial_index": 223,
        "rt": 1313,
        "correct": true,
        "response": "ArrowLeft",
        "congruent": false,
        "gazeTowards": false,
        "gazeCondition": "away",
        "faceOnLeft": true,
        "impliedDirection": 0,
        "testDirection": 180,
        "avgFps": 60,
        "minFps": 60,
        "maxFps": 64,
        "totalFrames": 79,
        "frameRates": 60
      },
      {
        "trial_number": 32,
        "trial_index": 231,
        "rt": 1091,
        "correct": true,
        "response": "ArrowRight",
        "congruent": true,
        "gazeTowards": true,
        "gazeCondition": "towards",
        "faceOnLeft": true,
        "impliedDirection": 0,
        "testDirection": 0,
        "avgFps": 60,
        "minFps": 60,
        "maxFps": 66,
        "totalFrames": 65,
        "frameRates": 60
      },
      {
        "trial_number": 33,
        "trial_index": 236,
        "rt": 756,
        "correct": true,
        "response": "ArrowLeft",
        "congruent": false,
        "gazeTowards": true,
        "gazeCondition": "towards",
        "faceOnLeft": true,
        "impliedDirection": 0,
        "testDirection": 180,
        "avgFps": 60,
        "minFps": 60,
        "maxFps": 65,
        "totalFrames": 46,
        "frameRates": 60
      },
      {
        "trial_number": 34,
        "trial_index": 241,
        "rt": 1050,
        "correct": true,
        "response": "ArrowRight",
        "congruent": false,
        "gazeTowards": false,
        "gazeCondition": "away",
        "faceOnLeft": false,
        "impliedDirection": 180,
        "testDirection": 0,
        "avgFps": 60,
        "minFps": 60,
        "maxFps": 64,
        "totalFrames": 62,
        "frameRates": 60
      },
      {
        "trial_number": 35,
        "trial_index": 246,
        "rt": 1093,
        "correct": true,
        "response": "ArrowRight",
        "congruent": true,
        "gazeTowards": false,
        "gazeCondition": "away",
        "faceOnLeft": true,
        "impliedDirection": 0,
        "testDirection": 0,
        "avgFps": 61,
        "minFps": 60,
        "maxFps": null,
        "totalFrames": 66,
        "frameRates": 61
      },
      {
        "trial_number": 36,
        "trial_index": 251,
        "rt": 1151,
        "correct": true,
        "response": "ArrowLeft",
        "congruent": true,
        "gazeTowards": true,
        "gazeCondition": "towards",
        "faceOnLeft": false,
        "impliedDirection": 180,
        "testDirection": 180,
        "avgFps": 60,
        "minFps": 60,
        "maxFps": 66,
        "totalFrames": 69,
        "frameRates": 60
      },
      {
        "trial_number": 37,
        "trial_index": 256,
        "rt": 1208,
        "correct": true,
        "response": "ArrowRight",
        "congruent": false,
        "gazeTowards": false,
        "gazeCondition": "away",
        "faceOnLeft": false,
        "impliedDirection": 180,
        "testDirection": 0,
        "avgFps": 60,
        "minFps": 60,
        "maxFps": 66,
        "totalFrames": 72,
        "frameRates": 60
      },
      {
        "trial_number": 38,
        "trial_index": 261,
        "rt": 851,
        "correct": true,
        "response": "ArrowLeft",
        "congruent": true,
        "gazeTowards": false,
        "gazeCondition": "away",
        "faceOnLeft": false,
        "impliedDirection": 180,
        "testDirection": 180,
        "avgFps": 60,
        "minFps": 60,
        "maxFps": 65,
        "totalFrames": 51,
        "frameRates": 60
      },
      {
        "trial_number": 39,
        "trial_index": 266,
        "rt": 1276,
        "correct": true,
        "response": "ArrowLeft",
        "congruent": false,
        "gazeTowards": true,
        "gazeCondition": "towards",
        "faceOnLeft": true,
        "impliedDirection": 0,
        "testDirection": 180,
        "avgFps": 60,
        "minFps": 60,
        "maxFps": 61,
        "totalFrames": 75,
        "frameRates": 60
      },
      {
        "trial_number": 40,
        "trial_index": 271,
        "rt": 1661,
        "correct": true,
        "response": "ArrowLeft",
        "congruent": true,
        "gazeTowards": true,
        "gazeCondition": "towards",
        "faceOnLeft": false,
        "impliedDirection": 180,
        "testDirection": 180,
        "avgFps": 60,
        "minFps": 60,
        "maxFps": 65,
        "totalFrames": 100,
        "frameRates": 60
      },
      {
        "trial_number": 41,
        "trial_index": 276,
        "rt": 1779,
        "correct": true,
        "response": "ArrowLeft",
        "congruent": true,
        "gazeTowards": false,
        "gazeCondition": "away",
        "faceOnLeft": false,
        "impliedDirection": 180,
        "testDirection": 180,
        "avgFps": 60,
        "minFps": 59,
        "maxFps": 65,
        "totalFrames": 107,
        "frameRates": 60
      },
      {
        "trial_number": 42,
        "trial_index": 281,
        "rt": 1891,
        "correct": true,
        "response": "ArrowLeft",
        "congruent": true,
        "gazeTowards": false,
        "gazeCondition": "away",
        "faceOnLeft": false,
        "impliedDirection": 180,
        "testDirection": 180,
        "avgFps": 60,
        "minFps": 60,
        "maxFps": 62,
        "totalFrames": 113,
        "frameRates": 60
      },
      {
        "trial_number": 43,
        "trial_index": 286,
        "rt": 1833,
        "correct": true,
        "response": "ArrowRight",
        "congruent": false,
        "gazeTowards": true,
        "gazeCondition": "towards",
        "faceOnLeft": false,
        "impliedDirection": 180,
        "testDirection": 0,
        "avgFps": 60,
        "minFps": 60,
        "maxFps": 65,
        "totalFrames": 110,
        "frameRates": 60
      },
      {
        "trial_number": 44,
        "trial_index": 291,
        "rt": 1484,
        "correct": true,
        "response": "ArrowRight",
        "congruent": false,
        "gazeTowards": false,
        "gazeCondition": "away",
        "faceOnLeft": false,
        "impliedDirection": 180,
        "testDirection": 0,
        "avgFps": 60,
        "minFps": 60,
        "maxFps": 66,
        "totalFrames": 89,
        "frameRates": 60
      },
      {
        "trial_number": 45,
        "trial_index": 296,
        "rt": 1803,
        "correct": true,
        "response": "ArrowLeft",
        "congruent": true,
        "gazeTowards": false,
        "gazeCondition": "away",
        "faceOnLeft": false,
        "impliedDirection": 180,
        "testDirection": 180,
        "avgFps": 60,
        "minFps": 60,
        "maxFps": 65,
        "totalFrames": 108,
        "frameRates": 60
      },
      {
        "trial_number": 46,
        "trial_index": 301,
        "rt": 1601,
        "correct": true,
        "response": "ArrowRight",
        "congruent": false,
        "gazeTowards": false,
        "gazeCondition": "away",
        "faceOnLeft": false,
        "impliedDirection": 180,
        "testDirection": 0,
        "avgFps": 60,
        "minFps": 60,
        "maxFps": 65,
        "totalFrames": 96,
        "frameRates": 60
      },
      {
        "trial_number": 47,
        "trial_index": 306,
        "rt": 1660,
        "correct": true,
        "response": "ArrowLeft",
        "congruent": false,
        "gazeTowards": false,
        "gazeCondition": "away",
        "faceOnLeft": true,
        "impliedDirection": 0,
        "testDirection": 180,
        "avgFps": 60,
        "minFps": 60,
        "maxFps": 62,
        "totalFrames": 99,
        "frameRates": 60
      },
      {
        "trial_number": 48,
        "trial_index": 311,
        "rt": 1646,
        "correct": true,
        "response": "ArrowRight",
        "congruent": false,
        "gazeTowards": false,
        "gazeCondition": "away",
        "faceOnLeft": false,
        "impliedDirection": 180,
        "testDirection": 0,
        "avgFps": 60,
        "minFps": 58,
        "maxFps": 63,
        "totalFrames": 98,
        "frameRates": 60
      },
      {
        "trial_number": 49,
        "trial_index": 316,
        "rt": 1000,
        "correct": true,
        "response": "ArrowLeft",
        "congruent": false,
        "gazeTowards": true,
        "gazeCondition": "towards",
        "faceOnLeft": true,
        "impliedDirection": 0,
        "testDirection": 180,
        "avgFps": 60,
        "minFps": 40,
        "maxFps": 110,
        "totalFrames": 60,
        "frameRates": 60
      },
      {
        "trial_number": 50,
        "trial_index": 321,
        "rt": 212,
        "correct": true,
        "response": "ArrowRight",
        "congruent": true,
        "gazeTowards": false,
        "gazeCondition": "away",
        "faceOnLeft": true,
        "impliedDirection": 0,
        "testDirection": 0,
        "avgFps": 60,
        "minFps": 60,
        "maxFps": 65,
        "totalFrames": 13,
        "frameRates": 60
      },
      {
        "trial_number": 51,
        "trial_index": 326,
        "rt": 1731,
        "correct": true,
        "response": "ArrowRight",
        "congruent": true,
        "gazeTowards": true,
        "gazeCondition": "towards",
        "faceOnLeft": true,
        "impliedDirection": 0,
        "testDirection": 0,
        "avgFps": 60,
        "minFps": 60,
        "maxFps": 67,
        "totalFrames": 104,
        "frameRates": 60
      },
      {
        "trial_number": 52,
        "trial_index": 331,
        "rt": 1603,
        "correct": true,
        "response": "ArrowRight",
        "congruent": true,
        "gazeTowards": true,
        "gazeCondition": "towards",
        "faceOnLeft": true,
        "impliedDirection": 0,
        "testDirection": 0,
        "avgFps": 60,
        "minFps": 60,
        "maxFps": 66,
        "totalFrames": 96,
        "frameRates": 60
      },
      {
        "trial_number": 53,
        "trial_index": 336,
        "rt": 1394,
        "correct": true,
        "response": "ArrowLeft",
        "congruent": true,
        "gazeTowards": true,
        "gazeCondition": "towards",
        "faceOnLeft": false,
        "impliedDirection": 180,
        "testDirection": 180,
        "avgFps": 60,
        "minFps": 60,
        "maxFps": 62,
        "totalFrames": 83,
        "frameRates": 60
      },
      {
        "trial_number": 54,
        "trial_index": 341,
        "rt": 1256,
        "correct": true,
        "response": "ArrowLeft",
        "congruent": true,
        "gazeTowards": true,
        "gazeCondition": "towards",
        "faceOnLeft": false,
        "impliedDirection": 180,
        "testDirection": 180,
        "avgFps": 60,
        "minFps": 60,
        "maxFps": 65,
        "totalFrames": 75,
        "frameRates": 60
      },
      {
        "trial_number": 55,
        "trial_index": 346,
        "rt": 1765,
        "correct": true,
        "response": "ArrowLeft",
        "congruent": false,
        "gazeTowards": false,
        "gazeCondition": "away",
        "faceOnLeft": true,
        "impliedDirection": 0,
        "testDirection": 180,
        "avgFps": 60,
        "minFps": 30,
        "maxFps": 66,
        "totalFrames": 105,
        "frameRates": 60
      },
      {
        "trial_number": 56,
        "trial_index": 351,
        "rt": 1596,
        "correct": true,
        "response": "ArrowRight",
        "congruent": true,
        "gazeTowards": false,
        "gazeCondition": "away",
        "faceOnLeft": true,
        "impliedDirection": 0,
        "testDirection": 0,
        "avgFps": 60,
        "minFps": 59,
        "maxFps": 63,
        "totalFrames": 95,
        "frameRates": 60
      },
      {
        "trial_number": 57,
        "trial_index": 356,
        "rt": 1585,
        "correct": true,
        "response": "ArrowLeft",
        "congruent": true,
        "gazeTowards": true,
        "gazeCondition": "towards",
        "faceOnLeft": false,
        "impliedDirection": 180,
        "testDirection": 180,
        "avgFps": 60,
        "minFps": 59,
        "maxFps": 65,
        "totalFrames": 95,
        "frameRates": 60
      },
      {
        "trial_number": 58,
        "trial_index": 361,
        "rt": 1304,
        "correct": true,
        "response": "ArrowLeft",
        "congruent": false,
        "gazeTowards": false,
        "gazeCondition": "away",
        "faceOnLeft": true,
        "impliedDirection": 0,
        "testDirection": 180,
        "avgFps": 60,
        "minFps": 60,
        "maxFps": 67,
        "totalFrames": 78,
        "frameRates": 60
      },
      {
        "trial_number": 59,
        "trial_index": 367,
        "rt": 1324,
        "correct": true,
        "response": "ArrowRight",
        "congruent": false,
        "gazeTowards": true,
        "gazeCondition": "towards",
        "faceOnLeft": false,
        "impliedDirection": 180,
        "testDirection": 0,
        "avgFps": 60,
        "minFps": 60,
        "maxFps": 64,
        "totalFrames": 79,
        "frameRates": 60
      },
      {
        "trial_number": 60,
        "trial_index": 372,
        "rt": 1270,
        "correct": true,
        "response": "ArrowLeft",
        "congruent": true,
        "gazeTowards": true,
        "gazeCondition": "towards",
        "faceOnLeft": false,
        "impliedDirection": 180,
        "testDirection": 180,
        "avgFps": 60,
        "minFps": 59,
        "maxFps": 62,
        "totalFrames": 76,
        "frameRates": 60
      },
      {
        "trial_number": 61,
        "trial_index": 377,
        "rt": 1414,
        "correct": true,
        "response": "ArrowLeft",
        "congruent": false,
        "gazeTowards": true,
        "gazeCondition": "towards",
        "faceOnLeft": true,
        "impliedDirection": 0,
        "testDirection": 180,
        "avgFps": 60,
        "minFps": 60,
        "maxFps": 66,
        "totalFrames": 85,
        "frameRates": 60
      },
      {
        "trial_number": 62,
        "trial_index": 382,
        "rt": 1385,
        "correct": true,
        "response": "ArrowLeft",
        "congruent": true,
        "gazeTowards": false,
        "gazeCondition": "away",
        "faceOnLeft": false,
        "impliedDirection": 180,
        "testDirection": 180,
        "avgFps": 60,
        "minFps": 60,
        "maxFps": 66,
        "totalFrames": 83,
        "frameRates": 60
      },
      {
        "trial_number": 63,
        "trial_index": 387,
        "rt": 1096,
        "correct": true,
        "response": "ArrowLeft",
        "congruent": false,
        "gazeTowards": true,
        "gazeCondition": "towards",
        "faceOnLeft": true,
        "impliedDirection": 0,
        "testDirection": 180,
        "avgFps": 60,
        "minFps": 60,
        "maxFps": 66,
        "totalFrames": 66,
        "frameRates": 60
      },
      {
        "trial_number": 64,
        "trial_index": 392,
        "rt": 1514,
        "correct": true,
        "response": "ArrowRight",
        "congruent": false,
        "gazeTowards": true,
        "gazeCondition": "towards",
        "faceOnLeft": false,
        "impliedDirection": 180,
        "testDirection": 0,
        "avgFps": 59,
        "minFps": 30,
        "maxFps": 64,
        "totalFrames": 90,
        "frameRates": 59
      },
      {
        "trial_number": 65,
        "trial_index": 397,
        "rt": 1212,
        "correct": true,
        "response": "ArrowLeft",
        "congruent": false,
        "gazeTowards": false,
        "gazeCondition": "away",
        "faceOnLeft": true,
        "impliedDirection": 0,
        "testDirection": 180,
        "avgFps": 61,
        "minFps": 59,
        "maxFps": null,
        "totalFrames": 73,
        "frameRates": 61
      },
      {
        "trial_number": 66,
        "trial_index": 405,
        "rt": 1108,
        "correct": true,
        "response": "ArrowLeft",
        "congruent": false,
        "gazeTowards": true,
        "gazeCondition": "towards",
        "faceOnLeft": true,
        "impliedDirection": 0,
        "testDirection": 180,
        "avgFps": 60,
        "minFps": 59,
        "maxFps": 68,
        "totalFrames": 66,
        "frameRates": 60
      },
      {
        "trial_number": 67,
        "trial_index": 410,
        "rt": 1181,
        "correct": true,
        "response": "ArrowLeft",
        "congruent": false,
        "gazeTowards": true,
        "gazeCondition": "towards",
        "faceOnLeft": true,
        "impliedDirection": 0,
        "testDirection": 180,
        "avgFps": 60,
        "minFps": 60,
        "maxFps": 65,
        "totalFrames": 71,
        "frameRates": 60
      },
      {
        "trial_number": 68,
        "trial_index": 415,
        "rt": 1257,
        "correct": true,
        "response": "ArrowLeft",
        "congruent": false,
        "gazeTowards": false,
        "gazeCondition": "away",
        "faceOnLeft": true,
        "impliedDirection": 0,
        "testDirection": 180,
        "avgFps": 60,
        "minFps": 60,
        "maxFps": 66,
        "totalFrames": 75,
        "frameRates": 60
      },
      {
        "trial_number": 69,
        "trial_index": 420,
        "rt": 1319,
        "correct": true,
        "response": "ArrowLeft",
        "congruent": false,
        "gazeTowards": true,
        "gazeCondition": "towards",
        "faceOnLeft": true,
        "impliedDirection": 0,
        "testDirection": 180,
        "avgFps": 60,
        "minFps": 59,
        "maxFps": 65,
        "totalFrames": 79,
        "frameRates": 60
      },
      {
        "trial_number": 70,
        "trial_index": 425,
        "rt": 1156,
        "correct": true,
        "response": "ArrowLeft",
        "congruent": false,
        "gazeTowards": false,
        "gazeCondition": "away",
        "faceOnLeft": true,
        "impliedDirection": 0,
        "testDirection": 180,
        "avgFps": 60,
        "minFps": 60,
        "maxFps": 64,
        "totalFrames": 68,
        "frameRates": 60
      },
      {
        "trial_number": 71,
        "trial_index": 430,
        "rt": 1491,
        "correct": true,
        "response": "ArrowLeft",
        "congruent": false,
        "gazeTowards": true,
        "gazeCondition": "towards",
        "faceOnLeft": true,
        "impliedDirection": 0,
        "testDirection": 180,
        "avgFps": 60,
        "minFps": 60,
        "maxFps": 65,
        "totalFrames": 90,
        "frameRates": 60
      },
      {
        "trial_number": 72,
        "trial_index": 435,
        "rt": 1170,
        "correct": true,
        "response": "ArrowRight",
        "congruent": true,
        "gazeTowards": true,
        "gazeCondition": "towards",
        "faceOnLeft": true,
        "impliedDirection": 0,
        "testDirection": 0,
        "avgFps": 60,
        "minFps": 60,
        "maxFps": 65,
        "totalFrames": 70,
        "frameRates": 60
      },
      {
        "trial_number": 73,
        "trial_index": 440,
        "rt": 1145,
        "correct": true,
        "response": "ArrowRight",
        "congruent": true,
        "gazeTowards": true,
        "gazeCondition": "towards",
        "faceOnLeft": true,
        "impliedDirection": 0,
        "testDirection": 0,
        "avgFps": 60,
        "minFps": 58,
        "maxFps": 62,
        "totalFrames": 69,
        "frameRates": 60
      },
      {
        "trial_number": 74,
        "trial_index": 448,
        "rt": 1196,
        "correct": true,
        "response": "ArrowLeft",
        "congruent": false,
        "gazeTowards": true,
        "gazeCondition": "towards",
        "faceOnLeft": true,
        "impliedDirection": 0,
        "testDirection": 180,
        "avgFps": 60,
        "minFps": 60,
        "maxFps": 66,
        "totalFrames": 72,
        "frameRates": 60
      },
      {
        "trial_number": 75,
        "trial_index": 453,
        "rt": 1133,
        "correct": true,
        "response": "ArrowRight",
        "congruent": true,
        "gazeTowards": true,
        "gazeCondition": "towards",
        "faceOnLeft": true,
        "impliedDirection": 0,
        "testDirection": 0,
        "avgFps": 60,
        "minFps": 60,
        "maxFps": 66,
        "totalFrames": 67,
        "frameRates": 60
      },
      {
        "trial_number": 76,
        "trial_index": 458,
        "rt": 1322,
        "correct": true,
        "response": "ArrowRight",
        "congruent": false,
        "gazeTowards": false,
        "gazeCondition": "away",
        "faceOnLeft": false,
        "impliedDirection": 180,
        "testDirection": 0,
        "avgFps": 60,
        "minFps": 59,
        "maxFps": 66,
        "totalFrames": 79,
        "frameRates": 60
      },
      {
        "trial_number": 77,
        "trial_index": 463,
        "rt": 889,
        "correct": true,
        "response": "ArrowLeft",
        "congruent": false,
        "gazeTowards": true,
        "gazeCondition": "towards",
        "faceOnLeft": true,
        "impliedDirection": 0,
        "testDirection": 180,
        "avgFps": 61,
        "minFps": 60,
        "maxFps": null,
        "totalFrames": 54,
        "frameRates": 61
      },
      {
        "trial_number": 78,
        "trial_index": 468,
        "rt": 1259,
        "correct": true,
        "response": "ArrowLeft",
        "congruent": true,
        "gazeTowards": false,
        "gazeCondition": "away",
        "faceOnLeft": false,
        "impliedDirection": 180,
        "testDirection": 180,
        "avgFps": 60,
        "minFps": 59,
        "maxFps": 65,
        "totalFrames": 76,
        "frameRates": 60
      },
      {
        "trial_number": 79,
        "trial_index": 473,
        "rt": 1520,
        "correct": true,
        "response": "ArrowRight",
        "congruent": true,
        "gazeTowards": false,
        "gazeCondition": "away",
        "faceOnLeft": true,
        "impliedDirection": 0,
        "testDirection": 0,
        "avgFps": 60,
        "minFps": 59,
        "maxFps": 62,
        "totalFrames": 91,
        "frameRates": 60
      },
      {
        "trial_number": 80,
        "trial_index": 481,
        "rt": 1330,
        "correct": true,
        "response": "ArrowRight",
        "congruent": true,
        "gazeTowards": false,
        "gazeCondition": "away",
        "faceOnLeft": true,
        "impliedDirection": 0,
        "testDirection": 0,
        "avgFps": 60,
        "minFps": 59,
        "maxFps": 63,
        "totalFrames": 80,
        "frameRates": 60
      },
      {
        "trial_number": 81,
        "trial_index": 486,
        "rt": 950,
        "correct": true,
        "response": "ArrowRight",
        "congruent": true,
        "gazeTowards": false,
        "gazeCondition": "away",
        "faceOnLeft": true,
        "impliedDirection": 0,
        "testDirection": 0,
        "avgFps": 61,
        "minFps": 59,
        "maxFps": null,
        "totalFrames": 57,
        "frameRates": 61
      },
      {
        "trial_number": 82,
        "trial_index": 491,
        "rt": 972,
        "correct": true,
        "response": "ArrowLeft",
        "congruent": false,
        "gazeTowards": false,
        "gazeCondition": "away",
        "faceOnLeft": true,
        "impliedDirection": 0,
        "testDirection": 180,
        "avgFps": 60,
        "minFps": 60,
        "maxFps": 65,
        "totalFrames": 58,
        "frameRates": 60
      },
      {
        "trial_number": 83,
        "trial_index": 496,
        "rt": 1659,
        "correct": true,
        "response": "ArrowLeft",
        "congruent": false,
        "gazeTowards": false,
        "gazeCondition": "away",
        "faceOnLeft": true,
        "impliedDirection": 0,
        "testDirection": 180,
        "avgFps": 60,
        "minFps": 60,
        "maxFps": 65,
        "totalFrames": 100,
        "frameRates": 60
      },
      {
        "trial_number": 84,
        "trial_index": 501,
        "rt": 1379,
        "correct": true,
        "response": "ArrowRight",
        "congruent": true,
        "gazeTowards": true,
        "gazeCondition": "towards",
        "faceOnLeft": true,
        "impliedDirection": 0,
        "testDirection": 0,
        "avgFps": 60,
        "minFps": 60,
        "maxFps": 62,
        "totalFrames": 83,
        "frameRates": 60
      },
      {
        "trial_number": 85,
        "trial_index": 506,
        "rt": 1676,
        "correct": true,
        "response": "ArrowRight",
        "congruent": true,
        "gazeTowards": true,
        "gazeCondition": "towards",
        "faceOnLeft": true,
        "impliedDirection": 0,
        "testDirection": 0,
        "avgFps": 60,
        "minFps": 60,
        "maxFps": 66,
        "totalFrames": 100,
        "frameRates": 60
      },
      {
        "trial_number": 86,
        "trial_index": 511,
        "rt": 1055,
        "correct": true,
        "response": "ArrowLeft",
        "congruent": false,
        "gazeTowards": false,
        "gazeCondition": "away",
        "faceOnLeft": true,
        "impliedDirection": 0,
        "testDirection": 180,
        "avgFps": 60,
        "minFps": 60,
        "maxFps": 61,
        "totalFrames": 63,
        "frameRates": 60
      },
      {
        "trial_number": 87,
        "trial_index": 516,
        "rt": 1184,
        "correct": true,
        "response": "ArrowLeft",
        "congruent": true,
        "gazeTowards": false,
        "gazeCondition": "away",
        "faceOnLeft": false,
        "impliedDirection": 180,
        "testDirection": 180,
        "avgFps": 60,
        "minFps": 60,
        "maxFps": 62,
        "totalFrames": 71,
        "frameRates": 60
      },
      {
        "trial_number": 88,
        "trial_index": 521,
        "rt": 1220,
        "correct": true,
        "response": "ArrowLeft",
        "congruent": true,
        "gazeTowards": false,
        "gazeCondition": "away",
        "faceOnLeft": false,
        "impliedDirection": 180,
        "testDirection": 180,
        "avgFps": 60,
        "minFps": 60,
        "maxFps": 65,
        "totalFrames": 73,
        "frameRates": 60
      },
      {
        "trial_number": 89,
        "trial_index": 527,
        "rt": 924,
        "correct": true,
        "response": "ArrowLeft",
        "congruent": false,
        "gazeTowards": true,
        "gazeCondition": "towards",
        "faceOnLeft": true,
        "impliedDirection": 0,
        "testDirection": 180,
        "avgFps": 60,
        "minFps": 60,
        "maxFps": 63,
        "totalFrames": 56,
        "frameRates": 60
      },
      {
        "trial_number": 90,
        "trial_index": 532,
        "rt": 1217,
        "correct": true,
        "response": "ArrowRight",
        "congruent": false,
        "gazeTowards": true,
        "gazeCondition": "towards",
        "faceOnLeft": false,
        "impliedDirection": 180,
        "testDirection": 0,
        "avgFps": 60,
        "minFps": 60,
        "maxFps": 62,
        "totalFrames": 73,
        "frameRates": 60
      },
      {
        "trial_number": 91,
        "trial_index": 537,
        "rt": 1096,
        "correct": true,
        "response": "ArrowLeft",
        "congruent": true,
        "gazeTowards": false,
        "gazeCondition": "away",
        "faceOnLeft": false,
        "impliedDirection": 180,
        "testDirection": 180,
        "avgFps": 60,
        "minFps": 60,
        "maxFps": 65,
        "totalFrames": 66,
        "frameRates": 60
      },
      {
        "trial_number": 92,
        "trial_index": 542,
        "rt": 1223,
        "correct": true,
        "response": "ArrowRight",
        "congruent": true,
        "gazeTowards": true,
        "gazeCondition": "towards",
        "faceOnLeft": true,
        "impliedDirection": 0,
        "testDirection": 0,
        "avgFps": 59,
        "minFps": 31,
        "maxFps": 60,
        "totalFrames": 73,
        "frameRates": 59
      },
      {
        "trial_number": 93,
        "trial_index": 547,
        "rt": 1522,
        "correct": true,
        "response": "ArrowRight",
        "congruent": true,
        "gazeTowards": true,
        "gazeCondition": "towards",
        "faceOnLeft": true,
        "impliedDirection": 0,
        "testDirection": 0,
        "avgFps": 60,
        "minFps": 59,
        "maxFps": 66,
        "totalFrames": 92,
        "frameRates": 60
      },
      {
        "trial_number": 94,
        "trial_index": 552,
        "rt": 998,
        "correct": true,
        "response": "ArrowLeft",
        "congruent": true,
        "gazeTowards": true,
        "gazeCondition": "towards",
        "faceOnLeft": false,
        "impliedDirection": 180,
        "testDirection": 180,
        "avgFps": 60,
        "minFps": 60,
        "maxFps": 61,
        "totalFrames": 60,
        "frameRates": 60
      },
      {
        "trial_number": 95,
        "trial_index": 557,
        "rt": 1097,
        "correct": true,
        "response": "ArrowLeft",
        "congruent": true,
        "gazeTowards": false,
        "gazeCondition": "away",
        "faceOnLeft": false,
        "impliedDirection": 180,
        "testDirection": 180,
        "avgFps": 60,
        "minFps": 60,
        "maxFps": 66,
        "totalFrames": 66,
        "frameRates": 60
      },
      {
        "trial_number": 96,
        "trial_index": 562,
        "rt": 1539,
        "correct": true,
        "response": "ArrowLeft",
        "congruent": false,
        "gazeTowards": false,
        "gazeCondition": "away",
        "faceOnLeft": true,
        "impliedDirection": 0,
        "testDirection": 180,
        "avgFps": 59,
        "minFps": 31,
        "maxFps": 61,
        "totalFrames": 92,
        "frameRates": 59
      },
      {
        "trial_number": 97,
        "trial_index": 567,
        "rt": 1249,
        "correct": true,
        "response": "ArrowLeft",
        "congruent": false,
        "gazeTowards": true,
        "gazeCondition": "towards",
        "faceOnLeft": true,
        "impliedDirection": 0,
        "testDirection": 180,
        "avgFps": 60,
        "minFps": 59,
        "maxFps": 66,
        "totalFrames": 75,
        "frameRates": 60
      },
      {
        "trial_number": 98,
        "trial_index": 572,
        "rt": 1085,
        "correct": true,
        "response": "ArrowLeft",
        "congruent": false,
        "gazeTowards": false,
        "gazeCondition": "away",
        "faceOnLeft": true,
        "impliedDirection": 0,
        "testDirection": 180,
        "avgFps": 60,
        "minFps": 60,
        "maxFps": 62,
        "totalFrames": 65,
        "frameRates": 60
      },
      {
        "trial_number": 99,
        "trial_index": 577,
        "rt": 1432,
        "correct": true,
        "response": "ArrowRight",
        "congruent": false,
        "gazeTowards": false,
        "gazeCondition": "away",
        "faceOnLeft": false,
        "impliedDirection": 180,
        "testDirection": 0,
        "avgFps": 60,
        "minFps": 60,
        "maxFps": 65,
        "totalFrames": 86,
        "frameRates": 60
      },
      {
        "trial_number": 100,
        "trial_index": 582,
        "rt": 1173,
        "correct": true,
        "response": "ArrowLeft",
        "congruent": true,
        "gazeTowards": false,
        "gazeCondition": "away",
        "faceOnLeft": false,
        "impliedDirection": 180,
        "testDirection": 180,
        "avgFps": 60,
        "minFps": 60,
        "maxFps": 66,
        "totalFrames": 70,
        "frameRates": 60
      },
      {
        "trial_number": 101,
        "trial_index": 587,
        "rt": 1032,
        "correct": true,
        "response": "ArrowLeft",
        "congruent": true,
        "gazeTowards": false,
        "gazeCondition": "away",
        "faceOnLeft": false,
        "impliedDirection": 180,
        "testDirection": 180,
        "avgFps": 60,
        "minFps": 60,
        "maxFps": 66,
        "totalFrames": 62,
        "frameRates": 60
      },
      {
        "trial_number": 102,
        "trial_index": 592,
        "rt": 1129,
        "correct": true,
        "response": "ArrowLeft",
        "congruent": false,
        "gazeTowards": true,
        "gazeCondition": "towards",
        "faceOnLeft": true,
        "impliedDirection": 0,
        "testDirection": 180,
        "avgFps": 60,
        "minFps": 60,
        "maxFps": 66,
        "totalFrames": 67,
        "frameRates": 60
      },
      {
        "trial_number": 103,
        "trial_index": 597,
        "rt": 1281,
        "correct": true,
        "response": "ArrowLeft",
        "congruent": true,
        "gazeTowards": false,
        "gazeCondition": "away",
        "faceOnLeft": false,
        "impliedDirection": 180,
        "testDirection": 180,
        "avgFps": 60,
        "minFps": 60,
        "maxFps": 65,
        "totalFrames": 77,
        "frameRates": 60
      },
      {
        "trial_number": 104,
        "trial_index": 602,
        "rt": 1313,
        "correct": true,
        "response": "ArrowLeft",
        "congruent": false,
        "gazeTowards": false,
        "gazeCondition": "away",
        "faceOnLeft": true,
        "impliedDirection": 0,
        "testDirection": 180,
        "avgFps": 60,
        "minFps": 60,
        "maxFps": 66,
        "totalFrames": 79,
        "frameRates": 60
      },
      {
        "trial_number": 105,
        "trial_index": 607,
        "rt": 1172,
        "correct": true,
        "response": "ArrowLeft",
        "congruent": false,
        "gazeTowards": true,
        "gazeCondition": "towards",
        "faceOnLeft": true,
        "impliedDirection": 0,
        "testDirection": 180,
        "avgFps": 60,
        "minFps": 60,
        "maxFps": 66,
        "totalFrames": 70,
        "frameRates": 60
      },
      {
        "trial_number": 106,
        "trial_index": 612,
        "rt": 1831,
        "correct": true,
        "response": "ArrowLeft",
        "congruent": true,
        "gazeTowards": false,
        "gazeCondition": "away",
        "faceOnLeft": false,
        "impliedDirection": 180,
        "testDirection": 180,
        "avgFps": 60,
        "minFps": 59,
        "maxFps": 62,
        "totalFrames": 109,
        "frameRates": 60
      },
      {
        "trial_number": 107,
        "trial_index": 617,
        "rt": 1186,
        "correct": true,
        "response": "ArrowRight",
        "congruent": true,
        "gazeTowards": true,
        "gazeCondition": "towards",
        "faceOnLeft": true,
        "impliedDirection": 0,
        "testDirection": 0,
        "avgFps": 60,
        "minFps": 60,
        "maxFps": 65,
        "totalFrames": 71,
        "frameRates": 60
      },
      {
        "trial_number": 108,
        "trial_index": 622,
        "rt": 912,
        "correct": true,
        "response": "ArrowLeft",
        "congruent": false,
        "gazeTowards": false,
        "gazeCondition": "away",
        "faceOnLeft": true,
        "impliedDirection": 0,
        "testDirection": 180,
        "avgFps": 60,
        "minFps": 60,
        "maxFps": 62,
        "totalFrames": 55,
        "frameRates": 60
      },
      {
        "trial_number": 109,
        "trial_index": 627,
        "rt": 1127,
        "correct": true,
        "response": "ArrowRight",
        "congruent": true,
        "gazeTowards": false,
        "gazeCondition": "away",
        "faceOnLeft": true,
        "impliedDirection": 0,
        "testDirection": 0,
        "avgFps": 60,
        "minFps": 60,
        "maxFps": 65,
        "totalFrames": 68,
        "frameRates": 60
      },
      {
        "trial_number": 110,
        "trial_index": 632,
        "rt": 1771,
        "correct": true,
        "response": "ArrowLeft",
        "congruent": true,
        "gazeTowards": true,
        "gazeCondition": "towards",
        "faceOnLeft": false,
        "impliedDirection": 180,
        "testDirection": 180,
        "avgFps": 60,
        "minFps": 60,
        "maxFps": 65,
        "totalFrames": 106,
        "frameRates": 60
      },
      {
        "trial_number": 111,
        "trial_index": 637,
        "rt": 1445,
        "correct": true,
        "response": "ArrowRight",
        "congruent": true,
        "gazeTowards": false,
        "gazeCondition": "away",
        "faceOnLeft": true,
        "impliedDirection": 0,
        "testDirection": 0,
        "avgFps": 60,
        "minFps": 60,
        "maxFps": 65,
        "totalFrames": 87,
        "frameRates": 60
      },
      {
        "trial_number": 112,
        "trial_index": 645,
        "rt": 824,
        "correct": true,
        "response": "ArrowLeft",
        "congruent": true,
        "gazeTowards": true,
        "gazeCondition": "towards",
        "faceOnLeft": false,
        "impliedDirection": 180,
        "testDirection": 180,
        "avgFps": 60,
        "minFps": 60,
        "maxFps": 64,
        "totalFrames": 49,
        "frameRates": 60
      },
      {
        "trial_number": 113,
        "trial_index": 650,
        "rt": 1187,
        "correct": true,
        "response": "ArrowLeft",
        "congruent": true,
        "gazeTowards": false,
        "gazeCondition": "away",
        "faceOnLeft": false,
        "impliedDirection": 180,
        "testDirection": 180,
        "avgFps": 60,
        "minFps": 60,
        "maxFps": 66,
        "totalFrames": 71,
        "frameRates": 60
      },
      {
        "trial_number": 114,
        "trial_index": 655,
        "rt": 880,
        "correct": true,
        "response": "ArrowLeft",
        "congruent": false,
        "gazeTowards": true,
        "gazeCondition": "towards",
        "faceOnLeft": true,
        "impliedDirection": 0,
        "testDirection": 180,
        "avgFps": 60,
        "minFps": 60,
        "maxFps": 62,
        "totalFrames": 53,
        "frameRates": 60
      },
      {
        "trial_number": 115,
        "trial_index": 660,
        "rt": 1730,
        "correct": true,
        "response": "ArrowRight",
        "congruent": false,
        "gazeTowards": false,
        "gazeCondition": "away",
        "faceOnLeft": false,
        "impliedDirection": 180,
        "testDirection": 0,
        "avgFps": 60,
        "minFps": 60,
        "maxFps": 65,
        "totalFrames": 104,
        "frameRates": 60
      },
      {
        "trial_number": 116,
        "trial_index": 665,
        "rt": 1243,
        "correct": true,
        "response": "ArrowLeft",
        "congruent": false,
        "gazeTowards": false,
        "gazeCondition": "away",
        "faceOnLeft": true,
        "impliedDirection": 0,
        "testDirection": 180,
        "avgFps": 60,
        "minFps": 60,
        "maxFps": 62,
        "totalFrames": 74,
        "frameRates": 60
      },
      {
        "trial_number": 117,
        "trial_index": 670,
        "rt": 1036,
        "correct": true,
        "response": "ArrowRight",
        "congruent": false,
        "gazeTowards": false,
        "gazeCondition": "away",
        "faceOnLeft": false,
        "impliedDirection": 180,
        "testDirection": 0,
        "avgFps": 60,
        "minFps": 60,
        "maxFps": 65,
        "totalFrames": 62,
        "frameRates": 60
      },
      {
        "trial_number": 118,
        "trial_index": 675,
        "rt": 1623,
        "correct": true,
        "response": "ArrowLeft",
        "congruent": false,
        "gazeTowards": false,
        "gazeCondition": "away",
        "faceOnLeft": true,
        "impliedDirection": 0,
        "testDirection": 180,
        "avgFps": 60,
        "minFps": 60,
        "maxFps": 65,
        "totalFrames": 97,
        "frameRates": 60
      },
      {
        "trial_number": 119,
        "trial_index": 680,
        "rt": 1416,
        "correct": true,
        "response": "ArrowLeft",
        "congruent": false,
        "gazeTowards": true,
        "gazeCondition": "towards",
        "faceOnLeft": true,
        "impliedDirection": 0,
        "testDirection": 180,
        "avgFps": 61,
        "minFps": 59,
        "maxFps": null,
        "totalFrames": 85,
        "frameRates": 61
      }
    ],
    "catch": {
      "total": 12,
      "correct": 12,
      "accuracy": 100,
      "meanRT": 1325,
      "trials": [
        {
          "trial_number": 0,
          "trial_index": 48,
          "rt": 2936,
          "correct": true,
          "colorTarget": "tree",
          "gazeTowards": false,
          "gazeCondition": "away",
          "faceOnLeft": true
        },
        {
          "trial_number": 1,
          "trial_index": 156,
          "rt": 1490,
          "correct": true,
          "colorTarget": "face",
          "gazeTowards": false,
          "gazeCondition": "away",
          "faceOnLeft": true
        },
        {
          "trial_number": 2,
          "trial_index": 184,
          "rt": 846,
          "correct": true,
          "colorTarget": "face",
          "gazeTowards": true,
          "gazeCondition": "towards",
          "faceOnLeft": false
        },
        {
          "trial_number": 3,
          "trial_index": 197,
          "rt": 882,
          "correct": true,
          "colorTarget": "face",
          "gazeTowards": true,
          "gazeCondition": "towards",
          "faceOnLeft": false
        },
        {
          "trial_number": 4,
          "trial_index": 206,
          "rt": 990,
          "correct": true,
          "colorTarget": "tree",
          "gazeTowards": false,
          "gazeCondition": "away",
          "faceOnLeft": true
        },
        {
          "trial_number": 5,
          "trial_index": 214,
          "rt": 681,
          "correct": true,
          "colorTarget": "face",
          "gazeTowards": false,
          "gazeCondition": "away",
          "faceOnLeft": true
        },
        {
          "trial_number": 6,
          "trial_index": 227,
          "rt": 716,
          "correct": true,
          "colorTarget": "tree",
          "gazeTowards": false,
          "gazeCondition": "away",
          "faceOnLeft": false
        },
        {
          "trial_number": 7,
          "trial_index": 401,
          "rt": 1303,
          "correct": true,
          "colorTarget": "tree",
          "gazeTowards": false,
          "gazeCondition": "away",
          "faceOnLeft": false
        },
        {
          "trial_number": 8,
          "trial_index": 444,
          "rt": 1222,
          "correct": true,
          "colorTarget": "tree",
          "gazeTowards": true,
          "gazeCondition": "towards",
          "faceOnLeft": true
        },
        {
          "trial_number": 9,
          "trial_index": 477,
          "rt": 2039,
          "correct": true,
          "colorTarget": "face",
          "gazeTowards": false,
          "gazeCondition": "away",
          "faceOnLeft": true
        },
        {
          "trial_number": 10,
          "trial_index": 641,
          "rt": 1593,
          "correct": true,
          "colorTarget": "face",
          "gazeTowards": false,
          "gazeCondition": "away",
          "faceOnLeft": false
        },
        {
          "trial_number": 11,
          "trial_index": 684,
          "rt": 1200,
          "correct": true,
          "colorTarget": "tree",
          "gazeTowards": false,
          "gazeCondition": "away",
          "faceOnLeft": true
        }
      ]
    },
    "practice": {
      "trials": [
        {
          "trial_number": 0,
          "rt": 1134,
          "correct": true,
          "direction": 180
        },
        {
          "trial_number": 1,
          "rt": 1255,
          "correct": true,
          "direction": 180
        },
        {
          "trial_number": 2,
          "rt": 1033,
          "correct": true,
          "direction": 0
        },
        {
          "trial_number": 3,
          "rt": 1084,
          "correct": true,
          "direction": 180
        },
        {
          "trial_number": 4,
          "rt": 1053,
          "correct": true,
          "direction": 0
        },
        {
          "trial_number": 5,
          "rt": 1153,
          "correct": true,
          "direction": 0
        },
        {
          "trial_number": 6,
          "rt": 1161,
          "correct": true,
          "direction": 0
        },
        {
          "trial_number": 7,
          "rt": 1293,
          "correct": true,
          "direction": 0
        },
        {
          "trial_number": 8,
          "rt": 1426,
          "correct": false,
          "direction": 180
        },
        {
          "trial_number": 9,
          "rt": 1622,
          "correct": true,
          "direction": 180
        }
      ],
      "meanRT": 1221,
      "accuracy": 90
    }
  }
}