{
  "experiment": "rdk-face-1",
  "UUID": "53b98783-226d-4757-96e6-43a7a6bcaa7b",
  "data": {
    "session": {
      "experiment_version": "1.8.6",
      "treatment": "faces_towards_away_catch",
      "file_version": "1.8.6",
      "totalTrials": 120,
      "totalTrialsIncludingCatch": 132,
      "conditions": {
        "gazeTowardsCount": 60,
        "gazeAwayCount": 60,
        "gazeTowardsAccuracy": 90,
        "gazeAwayAccuracy": 93
      },
      "session_group": "default",
      "browserData": {
        "os": "Windows",
        "browser": "Chrome",
        "screenResolution": "1536x864",
        "browserViewport": "1536x864",
        "devicePixelRatio": 1.25,
        "colorDepth": 32,
        "hardwareConcurrency": 8,
        "deviceMemory": 8,
        "gpuRenderer": "ANGLE (Intel, Intel(R) UHD Graphics (0x00008A56) Direct3D11 vs_5_0 ps_5_0, D3D11)",
        "measuredRefreshRateHz": 60
      },
      "attention": {
        "visibilityEvents": [
          {
            "event": "visibilitychange",
            "state": "visible",
            "timestamp": 1772765823492
          },
          {
            "event": "focus",
            "state": "focused",
            "timestamp": 1772765823499
          },
          {
            "event": "blur",
            "state": "blurred",
            "timestamp": 1772765826255
          },
          {
            "event": "visibilitychange",
            "state": "hidden",
            "timestamp": 1772765826260
          },
          {
            "event": "visibilitychange",
            "state": "visible",
            "timestamp": 1772765828188
          },
          {
            "event": "focus",
            "state": "focused",
            "timestamp": 1772765828192
          }
        ]
      },
      "calibration": {
        "monitorWidthCm": 38,
        "viewingDistanceCm": 54,
        "pixelsPerDegree": 50
      },
      "parameters": {
        "coherence": 0.4,
        "apertureDeg": 5,
        "densityDotsPerDeg2": 40,
        "dotDiameterDeg": 0.035,
        "dotSpeedDegPerSec": 3,
        "lifetimeMs": 200,
        "fixationDurationMs": 1500,
        "faceDurationMs": 1500,
        "testDurationMs": 2000,
        "catchResponseMs": 3000
      },
      "prolific": {
        "prolificPid": "6978ce449b790cb61d7c52c2",
        "studyId": "",
        "sessionId": ""
      },
      "timing": {
        "startTime": "2026-03-06T02:56:24.030Z",
        "endTime": "2026-03-06T03:12:28.603Z",
        "totalElapsedTimeMs": 964573
      }
    },
    "trials": [
      {
        "trial_number": 0,
        "trial_index": 90,
        "rt": 782,
        "correct": true,
        "response": "ArrowLeft",
        "congruent": true,
        "gazeTowards": true,
        "gazeCondition": "towards",
        "faceOnLeft": false,
        "impliedDirection": 180,
        "testDirection": 180,
        "avgFps": 60,
        "minFps": 58,
        "maxFps": 103,
        "totalFrames": 47,
        "frameRates": 60
      },
      {
        "trial_number": 1,
        "trial_index": 98,
        "rt": 732,
        "correct": true,
        "response": "ArrowLeft",
        "congruent": true,
        "gazeTowards": true,
        "gazeCondition": "towards",
        "faceOnLeft": false,
        "impliedDirection": 180,
        "testDirection": 180,
        "avgFps": 61,
        "minFps": 56,
        "maxFps": 222,
        "totalFrames": 45,
        "frameRates": 61
      },
      {
        "trial_number": 2,
        "trial_index": 106,
        "rt": 1020,
        "correct": true,
        "response": "ArrowRight",
        "congruent": false,
        "gazeTowards": false,
        "gazeCondition": "away",
        "faceOnLeft": false,
        "impliedDirection": 180,
        "testDirection": 0,
        "avgFps": 59,
        "minFps": 45,
        "maxFps": 63,
        "totalFrames": 60,
        "frameRates": 59
      },
      {
        "trial_number": 3,
        "trial_index": 111,
        "rt": 869,
        "correct": true,
        "response": "ArrowLeft",
        "congruent": true,
        "gazeTowards": false,
        "gazeCondition": "away",
        "faceOnLeft": false,
        "impliedDirection": 180,
        "testDirection": 180,
        "avgFps": 59,
        "minFps": 45,
        "maxFps": 61,
        "totalFrames": 51,
        "frameRates": 59
      },
      {
        "trial_number": 4,
        "trial_index": 116,
        "rt": 586,
        "correct": true,
        "response": "ArrowRight",
        "congruent": true,
        "gazeTowards": false,
        "gazeCondition": "away",
        "faceOnLeft": true,
        "impliedDirection": 0,
        "testDirection": 0,
        "avgFps": 59,
        "minFps": 42,
        "maxFps": 61,
        "totalFrames": 34,
        "frameRates": 59
      },
      {
        "trial_number": 5,
        "trial_index": 121,
        "rt": 650,
        "correct": true,
        "response": "ArrowLeft",
        "congruent": false,
        "gazeTowards": false,
        "gazeCondition": "away",
        "faceOnLeft": true,
        "impliedDirection": 0,
        "testDirection": 180,
        "avgFps": 61,
        "minFps": 58,
        "maxFps": 91,
        "totalFrames": 39,
        "frameRates": 61
      },
      {
        "trial_number": 6,
        "trial_index": 126,
        "rt": 667,
        "correct": true,
        "response": "ArrowRight",
        "congruent": false,
        "gazeTowards": false,
        "gazeCondition": "away",
        "faceOnLeft": false,
        "impliedDirection": 180,
        "testDirection": 0,
        "avgFps": 60,
        "minFps": 58,
        "maxFps": 63,
        "totalFrames": 40,
        "frameRates": 60
      },
      {
        "trial_number": 7,
        "trial_index": 131,
        "rt": 895,
        "correct": true,
        "response": "ArrowRight",
        "congruent": false,
        "gazeTowards": false,
        "gazeCondition": "away",
        "faceOnLeft": false,
        "impliedDirection": 180,
        "testDirection": 0,
        "avgFps": 60,
        "minFps": 57,
        "maxFps": 65,
        "totalFrames": 54,
        "frameRates": 60
      },
      {
        "trial_number": 8,
        "trial_index": 136,
        "rt": 795,
        "correct": true,
        "response": "ArrowRight",
        "congruent": false,
        "gazeTowards": true,
        "gazeCondition": "towards",
        "faceOnLeft": false,
        "impliedDirection": 180,
        "testDirection": 0,
        "avgFps": 60,
        "minFps": 57,
        "maxFps": 65,
        "totalFrames": 48,
        "frameRates": 60
      },
      {
        "trial_number": 9,
        "trial_index": 141,
        "rt": 662,
        "correct": true,
        "response": "ArrowLeft",
        "congruent": false,
        "gazeTowards": false,
        "gazeCondition": "away",
        "faceOnLeft": true,
        "impliedDirection": 0,
        "testDirection": 180,
        "avgFps": 60,
        "minFps": 58,
        "maxFps": 79,
        "totalFrames": 40,
        "frameRates": 60
      },
      {
        "trial_number": 10,
        "trial_index": 146,
        "rt": 491,
        "correct": false,
        "response": "ArrowRight",
        "congruent": false,
        "gazeTowards": false,
        "gazeCondition": "away",
        "faceOnLeft": true,
        "impliedDirection": 0,
        "testDirection": 180,
        "avgFps": 59,
        "minFps": 47,
        "maxFps": 63,
        "totalFrames": 29,
        "frameRates": 59
      },
      {
        "trial_number": 11,
        "trial_index": 151,
        "rt": 618,
        "correct": true,
        "response": "ArrowRight",
        "congruent": false,
        "gazeTowards": false,
        "gazeCondition": "away",
        "faceOnLeft": false,
        "impliedDirection": 180,
        "testDirection": 0,
        "avgFps": 60,
        "minFps": 48,
        "maxFps": 63,
        "totalFrames": 37,
        "frameRates": 60
      },
      {
        "trial_number": 12,
        "trial_index": 156,
        "rt": 794,
        "correct": true,
        "response": "ArrowRight",
        "congruent": true,
        "gazeTowards": true,
        "gazeCondition": "towards",
        "faceOnLeft": true,
        "impliedDirection": 0,
        "testDirection": 0,
        "avgFps": 60,
        "minFps": 59,
        "maxFps": 64,
        "totalFrames": 48,
        "frameRates": 60
      },
      {
        "trial_number": 13,
        "trial_index": 161,
        "rt": 717,
        "correct": true,
        "response": "ArrowRight",
        "congruent": true,
        "gazeTowards": true,
        "gazeCondition": "towards",
        "faceOnLeft": true,
        "impliedDirection": 0,
        "testDirection": 0,
        "avgFps": 60,
        "minFps": 58,
        "maxFps": 92,
        "totalFrames": 43,
        "frameRates": 60
      },
      {
        "trial_number": 14,
        "trial_index": 166,
        "rt": 1026,
        "correct": false,
        "response": "ArrowLeft",
        "congruent": false,
        "gazeTowards": true,
        "gazeCondition": "towards",
        "faceOnLeft": false,
        "impliedDirection": 180,
        "testDirection": 0,
        "avgFps": 60,
        "minFps": 44,
        "maxFps": 80,
        "totalFrames": 61,
        "frameRates": 60
      },
      {
        "trial_number": 15,
        "trial_index": 171,
        "rt": 698,
        "correct": true,
        "response": "ArrowRight",
        "congruent": true,
        "gazeTowards": false,
        "gazeCondition": "away",
        "faceOnLeft": true,
        "impliedDirection": 0,
        "testDirection": 0,
        "avgFps": 60,
        "minFps": 58,
        "maxFps": 75,
        "totalFrames": 42,
        "frameRates": 60
      },
      {
        "trial_number": 16,
        "trial_index": 176,
        "rt": 676,
        "correct": true,
        "response": "ArrowRight",
        "congruent": false,
        "gazeTowards": false,
        "gazeCondition": "away",
        "faceOnLeft": false,
        "impliedDirection": 180,
        "testDirection": 0,
        "avgFps": 60,
        "minFps": 47,
        "maxFps": 61,
        "totalFrames": 40,
        "frameRates": 60
      },
      {
        "trial_number": 17,
        "trial_index": 181,
        "rt": 728,
        "correct": true,
        "response": "ArrowLeft",
        "congruent": false,
        "gazeTowards": false,
        "gazeCondition": "away",
        "faceOnLeft": true,
        "impliedDirection": 0,
        "testDirection": 180,
        "avgFps": 60,
        "minFps": 58,
        "maxFps": 74,
        "totalFrames": 43,
        "frameRates": 60
      },
      {
        "trial_number": 18,
        "trial_index": 186,
        "rt": 911,
        "correct": true,
        "response": "ArrowLeft",
        "congruent": true,
        "gazeTowards": true,
        "gazeCondition": "towards",
        "faceOnLeft": false,
        "impliedDirection": 180,
        "testDirection": 180,
        "avgFps": 60,
        "minFps": 58,
        "maxFps": 74,
        "totalFrames": 55,
        "frameRates": 60
      },
      {
        "trial_number": 19,
        "trial_index": 191,
        "rt": 879,
        "correct": true,
        "response": "ArrowLeft",
        "congruent": false,
        "gazeTowards": true,
        "gazeCondition": "towards",
        "faceOnLeft": true,
        "impliedDirection": 0,
        "testDirection": 180,
        "avgFps": 60,
        "minFps": 58,
        "maxFps": 104,
        "totalFrames": 53,
        "frameRates": 60
      },
      {
        "trial_number": 20,
        "trial_index": 196,
        "rt": 593,
        "correct": true,
        "response": "ArrowLeft",
        "congruent": true,
        "gazeTowards": false,
        "gazeCondition": "away",
        "faceOnLeft": false,
        "impliedDirection": 180,
        "testDirection": 180,
        "avgFps": 60,
        "minFps": 60,
        "maxFps": 79,
        "totalFrames": 35,
        "frameRates": 60
      },
      {
        "trial_number": 21,
        "trial_index": 201,
        "rt": 645,
        "correct": true,
        "response": "ArrowLeft",
        "congruent": true,
        "gazeTowards": false,
        "gazeCondition": "away",
        "faceOnLeft": false,
        "impliedDirection": 180,
        "testDirection": 180,
        "avgFps": 60,
        "minFps": 59,
        "maxFps": 72,
        "totalFrames": 39,
        "frameRates": 60
      },
      {
        "trial_number": 22,
        "trial_index": 206,
        "rt": 579,
        "correct": true,
        "response": "ArrowRight",
        "congruent": true,
        "gazeTowards": false,
        "gazeCondition": "away",
        "faceOnLeft": true,
        "impliedDirection": 0,
        "testDirection": 0,
        "avgFps": 60,
        "minFps": 58,
        "maxFps": 76,
        "totalFrames": 35,
        "frameRates": 60
      },
      {
        "trial_number": 23,
        "trial_index": 214,
        "rt": 771,
        "correct": false,
        "response": "ArrowRight",
        "congruent": false,
        "gazeTowards": false,
        "gazeCondition": "away",
        "faceOnLeft": true,
        "impliedDirection": 0,
        "testDirection": 180,
        "avgFps": 60,
        "minFps": 58,
        "maxFps": 82,
        "totalFrames": 46,
        "frameRates": 60
      },
      {
        "trial_number": 24,
        "trial_index": 219,
        "rt": 609,
        "correct": true,
        "response": "ArrowLeft",
        "congruent": false,
        "gazeTowards": true,
        "gazeCondition": "towards",
        "faceOnLeft": true,
        "impliedDirection": 0,
        "testDirection": 180,
        "avgFps": 60,
        "minFps": 58,
        "maxFps": 74,
        "totalFrames": 37,
        "frameRates": 60
      },
      {
        "trial_number": 25,
        "trial_index": 224,
        "rt": 891,
        "correct": true,
        "response": "ArrowLeft",
        "congruent": false,
        "gazeTowards": false,
        "gazeCondition": "away",
        "faceOnLeft": true,
        "impliedDirection": 0,
        "testDirection": 180,
        "avgFps": 60,
        "minFps": 58,
        "maxFps": 99,
        "totalFrames": 53,
        "frameRates": 60
      },
      {
        "trial_number": 26,
        "trial_index": 232,
        "rt": 719,
        "correct": true,
        "response": "ArrowRight",
        "congruent": false,
        "gazeTowards": true,
        "gazeCondition": "towards",
        "faceOnLeft": false,
        "impliedDirection": 180,
        "testDirection": 0,
        "avgFps": 60,
        "minFps": 60,
        "maxFps": 70,
        "totalFrames": 43,
        "frameRates": 60
      },
      {
        "trial_number": 27,
        "trial_index": 237,
        "rt": 717,
        "correct": true,
        "response": "ArrowRight",
        "congruent": false,
        "gazeTowards": true,
        "gazeCondition": "towards",
        "faceOnLeft": false,
        "impliedDirection": 180,
        "testDirection": 0,
        "avgFps": 60,
        "minFps": 52,
        "maxFps": 61,
        "totalFrames": 42,
        "frameRates": 60
      },
      {
        "trial_number": 28,
        "trial_index": 242,
        "rt": 525,
        "correct": true,
        "response": "ArrowLeft",
        "congruent": false,
        "gazeTowards": false,
        "gazeCondition": "away",
        "faceOnLeft": true,
        "impliedDirection": 0,
        "testDirection": 180,
        "avgFps": 60,
        "minFps": 55,
        "maxFps": 60,
        "totalFrames": 31,
        "frameRates": 60
      },
      {
        "trial_number": 29,
        "trial_index": 251,
        "rt": 736,
        "correct": true,
        "response": "ArrowLeft",
        "congruent": false,
        "gazeTowards": true,
        "gazeCondition": "towards",
        "faceOnLeft": true,
        "impliedDirection": 0,
        "testDirection": 180,
        "avgFps": 59,
        "minFps": 44,
        "maxFps": 61,
        "totalFrames": 44,
        "frameRates": 59
      },
      {
        "trial_number": 30,
        "trial_index": 256,
        "rt": 820,
        "correct": true,
        "response": "ArrowLeft",
        "congruent": false,
        "gazeTowards": false,
        "gazeCondition": "away",
        "faceOnLeft": true,
        "impliedDirection": 0,
        "testDirection": 180,
        "avgFps": 60,
        "minFps": 57,
        "maxFps": 80,
        "totalFrames": 49,
        "frameRates": 60
      },
      {
        "trial_number": 31,
        "trial_index": 261,
        "rt": 605,
        "correct": true,
        "response": "ArrowLeft",
        "congruent": true,
        "gazeTowards": false,
        "gazeCondition": "away",
        "faceOnLeft": false,
        "impliedDirection": 180,
        "testDirection": 180,
        "avgFps": 61,
        "minFps": 57,
        "maxFps": 161,
        "totalFrames": 36,
        "frameRates": 61
      },
      {
        "trial_number": 32,
        "trial_index": 266,
        "rt": 682,
        "correct": true,
        "response": "ArrowRight",
        "congruent": false,
        "gazeTowards": false,
        "gazeCondition": "away",
        "faceOnLeft": false,
        "impliedDirection": 180,
        "testDirection": 0,
        "avgFps": 61,
        "minFps": 59,
        "maxFps": 107,
        "totalFrames": 41,
        "frameRates": 61
      },
      {
        "trial_number": 33,
        "trial_index": 277,
        "rt": 1910,
        "correct": false,
        "response": "ArrowRight",
        "congruent": false,
        "gazeTowards": true,
        "gazeCondition": "towards",
        "faceOnLeft": true,
        "impliedDirection": 0,
        "testDirection": 180,
        "avgFps": 60,
        "minFps": 55,
        "maxFps": 62,
        "totalFrames": 114,
        "frameRates": 60
      },
      {
        "trial_number": 34,
        "trial_index": 282,
        "rt": 765,
        "correct": true,
        "response": "ArrowLeft",
        "congruent": true,
        "gazeTowards": false,
        "gazeCondition": "away",
        "faceOnLeft": false,
        "impliedDirection": 180,
        "testDirection": 180,
        "avgFps": 60,
        "minFps": 58,
        "maxFps": 75,
        "totalFrames": 46,
        "frameRates": 60
      },
      {
        "trial_number": 35,
        "trial_index": 287,
        "rt": 534,
        "correct": true,
        "response": "ArrowRight",
        "congruent": true,
        "gazeTowards": false,
        "gazeCondition": "away",
        "faceOnLeft": true,
        "impliedDirection": 0,
        "testDirection": 0,
        "avgFps": 60,
        "minFps": 59,
        "maxFps": 71,
        "totalFrames": 32,
        "frameRates": 60
      },
      {
        "trial_number": 36,
        "trial_index": 292,
        "rt": 763,
        "correct": true,
        "response": "ArrowLeft",
        "congruent": false,
        "gazeTowards": true,
        "gazeCondition": "towards",
        "faceOnLeft": true,
        "impliedDirection": 0,
        "testDirection": 180,
        "avgFps": 60,
        "minFps": 58,
        "maxFps": 95,
        "totalFrames": 46,
        "frameRates": 60
      },
      {
        "trial_number": 37,
        "trial_index": 297,
        "rt": 524,
        "correct": true,
        "response": "ArrowRight",
        "congruent": true,
        "gazeTowards": true,
        "gazeCondition": "towards",
        "faceOnLeft": true,
        "impliedDirection": 0,
        "testDirection": 0,
        "avgFps": 61,
        "minFps": 58,
        "maxFps": 132,
        "totalFrames": 31,
        "frameRates": 61
      },
      {
        "trial_number": 38,
        "trial_index": 302,
        "rt": 769,
        "correct": true,
        "response": "ArrowRight",
        "congruent": true,
        "gazeTowards": false,
        "gazeCondition": "away",
        "faceOnLeft": true,
        "impliedDirection": 0,
        "testDirection": 0,
        "avgFps": 60,
        "minFps": 51,
        "maxFps": 61,
        "totalFrames": 46,
        "frameRates": 60
      },
      {
        "trial_number": 39,
        "trial_index": 307,
        "rt": 546,
        "correct": true,
        "response": "ArrowLeft",
        "congruent": false,
        "gazeTowards": true,
        "gazeCondition": "towards",
        "faceOnLeft": true,
        "impliedDirection": 0,
        "testDirection": 180,
        "avgFps": 60,
        "minFps": 45,
        "maxFps": 64,
        "totalFrames": 32,
        "frameRates": 60
      },
      {
        "trial_number": 40,
        "trial_index": 312,
        "rt": 596,
        "correct": true,
        "response": "ArrowLeft",
        "congruent": false,
        "gazeTowards": true,
        "gazeCondition": "towards",
        "faceOnLeft": true,
        "impliedDirection": 0,
        "testDirection": 180,
        "avgFps": 61,
        "minFps": 58,
        "maxFps": 125,
        "totalFrames": 36,
        "frameRates": 61
      },
      {
        "trial_number": 41,
        "trial_index": 317,
        "rt": 629,
        "correct": true,
        "response": "ArrowLeft",
        "congruent": true,
        "gazeTowards": true,
        "gazeCondition": "towards",
        "faceOnLeft": false,
        "impliedDirection": 180,
        "testDirection": 180,
        "avgFps": 60,
        "minFps": 58,
        "maxFps": 63,
        "totalFrames": 37,
        "frameRates": 60
      },
      {
        "trial_number": 42,
        "trial_index": 322,
        "rt": 481,
        "correct": true,
        "response": "ArrowRight",
        "congruent": true,
        "gazeTowards": false,
        "gazeCondition": "away",
        "faceOnLeft": true,
        "impliedDirection": 0,
        "testDirection": 0,
        "avgFps": 60,
        "minFps": 58,
        "maxFps": 82,
        "totalFrames": 29,
        "frameRates": 60
      },
      {
        "trial_number": 43,
        "trial_index": 327,
        "rt": 410,
        "correct": true,
        "response": "ArrowLeft",
        "congruent": true,
        "gazeTowards": false,
        "gazeCondition": "away",
        "faceOnLeft": false,
        "impliedDirection": 180,
        "testDirection": 180,
        "avgFps": 61,
        "minFps": 58,
        "maxFps": 114,
        "totalFrames": 24,
        "frameRates": 61
      },
      {
        "trial_number": 44,
        "trial_index": 332,
        "rt": 1164,
        "correct": false,
        "response": "ArrowRight",
        "congruent": false,
        "gazeTowards": false,
        "gazeCondition": "away",
        "faceOnLeft": true,
        "impliedDirection": 0,
        "testDirection": 180,
        "avgFps": 60,
        "minFps": 58,
        "maxFps": 74,
        "totalFrames": 69,
        "frameRates": 60
      },
      {
        "trial_number": 45,
        "trial_index": 337,
        "rt": 1044,
        "correct": true,
        "response": "ArrowLeft",
        "congruent": false,
        "gazeTowards": true,
        "gazeCondition": "towards",
        "faceOnLeft": true,
        "impliedDirection": 0,
        "testDirection": 180,
        "avgFps": 60,
        "minFps": 40,
        "maxFps": 61,
        "totalFrames": 62,
        "frameRates": 60
      },
      {
        "trial_number": 46,
        "trial_index": 342,
        "rt": 524,
        "correct": true,
        "response": "ArrowRight",
        "congruent": true,
        "gazeTowards": false,
        "gazeCondition": "away",
        "faceOnLeft": true,
        "impliedDirection": 0,
        "testDirection": 0,
        "avgFps": 60,
        "minFps": 58,
        "maxFps": 76,
        "totalFrames": 31,
        "frameRates": 60
      },
      {
        "trial_number": 47,
        "trial_index": 347,
        "rt": 664,
        "correct": true,
        "response": "ArrowRight",
        "congruent": true,
        "gazeTowards": true,
        "gazeCondition": "towards",
        "faceOnLeft": true,
        "impliedDirection": 0,
        "testDirection": 0,
        "avgFps": 61,
        "minFps": 60,
        "maxFps": 113,
        "totalFrames": 40,
        "frameRates": 61
      },
      {
        "trial_number": 48,
        "trial_index": 352,
        "rt": 528,
        "correct": true,
        "response": "ArrowLeft",
        "congruent": true,
        "gazeTowards": true,
        "gazeCondition": "towards",
        "faceOnLeft": false,
        "impliedDirection": 180,
        "testDirection": 180,
        "avgFps": 61,
        "minFps": 57,
        "maxFps": 123,
        "totalFrames": 32,
        "frameRates": 61
      },
      {
        "trial_number": 49,
        "trial_index": 357,
        "rt": 561,
        "correct": true,
        "response": "ArrowLeft",
        "congruent": false,
        "gazeTowards": false,
        "gazeCondition": "away",
        "faceOnLeft": true,
        "impliedDirection": 0,
        "testDirection": 180,
        "avgFps": 61,
        "minFps": 58,
        "maxFps": 95,
        "totalFrames": 34,
        "frameRates": 61
      },
      {
        "trial_number": 50,
        "trial_index": 362,
        "rt": 1387,
        "correct": false,
        "response": "ArrowLeft",
        "congruent": false,
        "gazeTowards": true,
        "gazeCondition": "towards",
        "faceOnLeft": false,
        "impliedDirection": 180,
        "testDirection": 0,
        "avgFps": 60,
        "minFps": 58,
        "maxFps": 142,
        "totalFrames": 83,
        "frameRates": 60
      },
      {
        "trial_number": 51,
        "trial_index": 367,
        "rt": 659,
        "correct": true,
        "response": "ArrowRight",
        "congruent": true,
        "gazeTowards": true,
        "gazeCondition": "towards",
        "faceOnLeft": true,
        "impliedDirection": 0,
        "testDirection": 0,
        "avgFps": 61,
        "minFps": 58,
        "maxFps": 174,
        "totalFrames": 40,
        "frameRates": 61
      },
      {
        "trial_number": 52,
        "trial_index": 372,
        "rt": 809,
        "correct": true,
        "response": "ArrowRight",
        "congruent": false,
        "gazeTowards": true,
        "gazeCondition": "towards",
        "faceOnLeft": false,
        "impliedDirection": 180,
        "testDirection": 0,
        "avgFps": 61,
        "minFps": 59,
        "maxFps": 160,
        "totalFrames": 48,
        "frameRates": 61
      },
      {
        "trial_number": 53,
        "trial_index": 377,
        "rt": 968,
        "correct": true,
        "response": "ArrowRight",
        "congruent": false,
        "gazeTowards": false,
        "gazeCondition": "away",
        "faceOnLeft": false,
        "impliedDirection": 180,
        "testDirection": 0,
        "avgFps": 60,
        "minFps": 52,
        "maxFps": 63,
        "totalFrames": 58,
        "frameRates": 60
      },
      {
        "trial_number": 54,
        "trial_index": 382,
        "rt": 1097,
        "correct": true,
        "response": "ArrowLeft",
        "congruent": true,
        "gazeTowards": true,
        "gazeCondition": "towards",
        "faceOnLeft": false,
        "impliedDirection": 180,
        "testDirection": 180,
        "avgFps": 60,
        "minFps": 52,
        "maxFps": 61,
        "totalFrames": 65,
        "frameRates": 60
      },
      {
        "trial_number": 55,
        "trial_index": 387,
        "rt": 1112,
        "correct": true,
        "response": "ArrowRight",
        "congruent": false,
        "gazeTowards": false,
        "gazeCondition": "away",
        "faceOnLeft": false,
        "impliedDirection": 180,
        "testDirection": 0,
        "avgFps": 60,
        "minFps": 51,
        "maxFps": 63,
        "totalFrames": 67,
        "frameRates": 60
      },
      {
        "trial_number": 56,
        "trial_index": 392,
        "rt": 760,
        "correct": true,
        "response": "ArrowLeft",
        "congruent": true,
        "gazeTowards": true,
        "gazeCondition": "towards",
        "faceOnLeft": false,
        "impliedDirection": 180,
        "testDirection": 180,
        "avgFps": 60,
        "minFps": 53,
        "maxFps": 61,
        "totalFrames": 45,
        "frameRates": 60
      },
      {
        "trial_number": 57,
        "trial_index": 397,
        "rt": 700,
        "correct": true,
        "response": "ArrowLeft",
        "congruent": false,
        "gazeTowards": true,
        "gazeCondition": "towards",
        "faceOnLeft": true,
        "impliedDirection": 0,
        "testDirection": 180,
        "avgFps": 59,
        "minFps": 36,
        "maxFps": 62,
        "totalFrames": 41,
        "frameRates": 59
      },
      {
        "trial_number": 58,
        "trial_index": 402,
        "rt": 646,
        "correct": true,
        "response": "ArrowRight",
        "congruent": true,
        "gazeTowards": false,
        "gazeCondition": "away",
        "faceOnLeft": true,
        "impliedDirection": 0,
        "testDirection": 0,
        "avgFps": 60,
        "minFps": 49,
        "maxFps": 61,
        "totalFrames": 39,
        "frameRates": 60
      },
      {
        "trial_number": 59,
        "trial_index": 408,
        "rt": 892,
        "correct": true,
        "response": "ArrowRight",
        "congruent": true,
        "gazeTowards": true,
        "gazeCondition": "towards",
        "faceOnLeft": true,
        "impliedDirection": 0,
        "testDirection": 0,
        "avgFps": 59,
        "minFps": 43,
        "maxFps": 61,
        "totalFrames": 53,
        "frameRates": 59
      },
      {
        "trial_number": 60,
        "trial_index": 413,
        "rt": 738,
        "correct": true,
        "response": "ArrowRight",
        "congruent": false,
        "gazeTowards": true,
        "gazeCondition": "towards",
        "faceOnLeft": false,
        "impliedDirection": 180,
        "testDirection": 0,
        "avgFps": 60,
        "minFps": 58,
        "maxFps": 78,
        "totalFrames": 44,
        "frameRates": 60
      },
      {
        "trial_number": 61,
        "trial_index": 418,
        "rt": 585,
        "correct": true,
        "response": "ArrowRight",
        "congruent": false,
        "gazeTowards": true,
        "gazeCondition": "towards",
        "faceOnLeft": false,
        "impliedDirection": 180,
        "testDirection": 0,
        "avgFps": 60,
        "minFps": 58,
        "maxFps": 65,
        "totalFrames": 35,
        "frameRates": 60
      },
      {
        "trial_number": 62,
        "trial_index": 423,
        "rt": 630,
        "correct": true,
        "response": "ArrowRight",
        "congruent": true,
        "gazeTowards": true,
        "gazeCondition": "towards",
        "faceOnLeft": true,
        "impliedDirection": 0,
        "testDirection": 0,
        "avgFps": 60,
        "minFps": 58,
        "maxFps": 74,
        "totalFrames": 38,
        "frameRates": 60
      },
      {
        "trial_number": 63,
        "trial_index": 431,
        "rt": 698,
        "correct": true,
        "response": "ArrowLeft",
        "congruent": false,
        "gazeTowards": false,
        "gazeCondition": "away",
        "faceOnLeft": true,
        "impliedDirection": 0,
        "testDirection": 180,
        "avgFps": 61,
        "minFps": 57,
        "maxFps": 161,
        "totalFrames": 42,
        "frameRates": 61
      },
      {
        "trial_number": 64,
        "trial_index": 436,
        "rt": 579,
        "correct": true,
        "response": "ArrowLeft",
        "congruent": true,
        "gazeTowards": true,
        "gazeCondition": "towards",
        "faceOnLeft": false,
        "impliedDirection": 180,
        "testDirection": 180,
        "avgFps": 61,
        "minFps": 58,
        "maxFps": 130,
        "totalFrames": 35,
        "frameRates": 61
      },
      {
        "trial_number": 65,
        "trial_index": 441,
        "rt": 666,
        "correct": true,
        "response": "ArrowRight",
        "congruent": true,
        "gazeTowards": true,
        "gazeCondition": "towards",
        "faceOnLeft": true,
        "impliedDirection": 0,
        "testDirection": 0,
        "avgFps": 60,
        "minFps": 46,
        "maxFps": 70,
        "totalFrames": 39,
        "frameRates": 60
      },
      {
        "trial_number": 66,
        "trial_index": 446,
        "rt": 628,
        "correct": true,
        "response": "ArrowLeft",
        "congruent": true,
        "gazeTowards": true,
        "gazeCondition": "towards",
        "faceOnLeft": false,
        "impliedDirection": 180,
        "testDirection": 180,
        "avgFps": 61,
        "minFps": 57,
        "maxFps": 210,
        "totalFrames": 38,
        "frameRates": 61
      },
      {
        "trial_number": 67,
        "trial_index": 451,
        "rt": 537,
        "correct": true,
        "response": "ArrowRight",
        "congruent": true,
        "gazeTowards": true,
        "gazeCondition": "towards",
        "faceOnLeft": true,
        "impliedDirection": 0,
        "testDirection": 0,
        "avgFps": 59,
        "minFps": 35,
        "maxFps": 61,
        "totalFrames": 32,
        "frameRates": 59
      },
      {
        "trial_number": 68,
        "trial_index": 456,
        "rt": 643,
        "correct": true,
        "response": "ArrowRight",
        "congruent": true,
        "gazeTowards": true,
        "gazeCondition": "towards",
        "faceOnLeft": true,
        "impliedDirection": 0,
        "testDirection": 0,
        "avgFps": 60,
        "minFps": 60,
        "maxFps": 86,
        "totalFrames": 38,
        "frameRates": 60
      },
      {
        "trial_number": 69,
        "trial_index": 464,
        "rt": 619,
        "correct": true,
        "response": "ArrowRight",
        "congruent": true,
        "gazeTowards": false,
        "gazeCondition": "away",
        "faceOnLeft": true,
        "impliedDirection": 0,
        "testDirection": 0,
        "avgFps": 60,
        "minFps": 44,
        "maxFps": 74,
        "totalFrames": 37,
        "frameRates": 60
      },
      {
        "trial_number": 70,
        "trial_index": 469,
        "rt": 1525,
        "correct": false,
        "response": "ArrowLeft",
        "congruent": false,
        "gazeTowards": true,
        "gazeCondition": "towards",
        "faceOnLeft": false,
        "impliedDirection": 180,
        "testDirection": 0,
        "avgFps": 60,
        "minFps": 58,
        "maxFps": 190,
        "totalFrames": 91,
        "frameRates": 60
      },
      {
        "trial_number": 71,
        "trial_index": 474,
        "rt": 532,
        "correct": true,
        "response": "ArrowRight",
        "congruent": true,
        "gazeTowards": false,
        "gazeCondition": "away",
        "faceOnLeft": true,
        "impliedDirection": 0,
        "testDirection": 0,
        "avgFps": 60,
        "minFps": 50,
        "maxFps": 62,
        "totalFrames": 32,
        "frameRates": 60
      },
      {
        "trial_number": 72,
        "trial_index": 479,
        "rt": 542,
        "correct": true,
        "response": "ArrowLeft",
        "congruent": true,
        "gazeTowards": false,
        "gazeCondition": "away",
        "faceOnLeft": false,
        "impliedDirection": 180,
        "testDirection": 180,
        "avgFps": 61,
        "minFps": 58,
        "maxFps": 103,
        "totalFrames": 32,
        "frameRates": 61
      },
      {
        "trial_number": 73,
        "trial_index": 484,
        "rt": 527,
        "correct": true,
        "response": "ArrowRight",
        "congruent": false,
        "gazeTowards": false,
        "gazeCondition": "away",
        "faceOnLeft": false,
        "impliedDirection": 180,
        "testDirection": 0,
        "avgFps": 59,
        "minFps": 37,
        "maxFps": 61,
        "totalFrames": 31,
        "frameRates": 59
      },
      {
        "trial_number": 74,
        "trial_index": 489,
        "rt": 617,
        "correct": true,
        "response": "ArrowRight",
        "congruent": true,
        "gazeTowards": false,
        "gazeCondition": "away",
        "faceOnLeft": true,
        "impliedDirection": 0,
        "testDirection": 0,
        "avgFps": 60,
        "minFps": 59,
        "maxFps": 67,
        "totalFrames": 36,
        "frameRates": 60
      },
      {
        "trial_number": 75,
        "trial_index": 494,
        "rt": 551,
        "correct": true,
        "response": "ArrowLeft",
        "congruent": false,
        "gazeTowards": false,
        "gazeCondition": "away",
        "faceOnLeft": true,
        "impliedDirection": 0,
        "testDirection": 180,
        "avgFps": 61,
        "minFps": 58,
        "maxFps": 88,
        "totalFrames": 33,
        "frameRates": 61
      },
      {
        "trial_number": 76,
        "trial_index": 499,
        "rt": 574,
        "correct": true,
        "response": "ArrowRight",
        "congruent": false,
        "gazeTowards": true,
        "gazeCondition": "towards",
        "faceOnLeft": false,
        "impliedDirection": 180,
        "testDirection": 0,
        "avgFps": 61,
        "minFps": 58,
        "maxFps": 233,
        "totalFrames": 35,
        "frameRates": 61
      },
      {
        "trial_number": 77,
        "trial_index": 504,
        "rt": 1104,
        "correct": false,
        "response": "ArrowLeft",
        "congruent": false,
        "gazeTowards": true,
        "gazeCondition": "towards",
        "faceOnLeft": false,
        "impliedDirection": 180,
        "testDirection": 0,
        "avgFps": 60,
        "minFps": 58,
        "maxFps": 121,
        "totalFrames": 66,
        "frameRates": 60
      },
      {
        "trial_number": 78,
        "trial_index": 509,
        "rt": 646,
        "correct": true,
        "response": "ArrowRight",
        "congruent": true,
        "gazeTowards": true,
        "gazeCondition": "towards",
        "faceOnLeft": true,
        "impliedDirection": 0,
        "testDirection": 0,
        "avgFps": 60,
        "minFps": 57,
        "maxFps": 92,
        "totalFrames": 39,
        "frameRates": 60
      },
      {
        "trial_number": 79,
        "trial_index": 514,
        "rt": 678,
        "correct": true,
        "response": "ArrowRight",
        "congruent": true,
        "gazeTowards": true,
        "gazeCondition": "towards",
        "faceOnLeft": true,
        "impliedDirection": 0,
        "testDirection": 0,
        "avgFps": 60,
        "minFps": 58,
        "maxFps": 75,
        "totalFrames": 41,
        "frameRates": 60
      },
      {
        "trial_number": 80,
        "trial_index": 519,
        "rt": 644,
        "correct": true,
        "response": "ArrowLeft",
        "congruent": false,
        "gazeTowards": true,
        "gazeCondition": "towards",
        "faceOnLeft": true,
        "impliedDirection": 0,
        "testDirection": 180,
        "avgFps": 61,
        "minFps": 58,
        "maxFps": 168,
        "totalFrames": 39,
        "frameRates": 61
      },
      {
        "trial_number": 81,
        "trial_index": 524,
        "rt": 618,
        "correct": true,
        "response": "ArrowRight",
        "congruent": true,
        "gazeTowards": true,
        "gazeCondition": "towards",
        "faceOnLeft": true,
        "impliedDirection": 0,
        "testDirection": 0,
        "avgFps": 60,
        "minFps": 58,
        "maxFps": 80,
        "totalFrames": 37,
        "frameRates": 60
      },
      {
        "trial_number": 82,
        "trial_index": 529,
        "rt": 621,
        "correct": true,
        "response": "ArrowRight",
        "congruent": false,
        "gazeTowards": true,
        "gazeCondition": "towards",
        "faceOnLeft": false,
        "impliedDirection": 180,
        "testDirection": 0,
        "avgFps": 60,
        "minFps": 50,
        "maxFps": 61,
        "totalFrames": 37,
        "frameRates": 60
      },
      {
        "trial_number": 83,
        "trial_index": 534,
        "rt": 636,
        "correct": true,
        "response": "ArrowLeft",
        "congruent": false,
        "gazeTowards": true,
        "gazeCondition": "towards",
        "faceOnLeft": true,
        "impliedDirection": 0,
        "testDirection": 180,
        "avgFps": 60,
        "minFps": 58,
        "maxFps": 76,
        "totalFrames": 38,
        "frameRates": 60
      },
      {
        "trial_number": 84,
        "trial_index": 539,
        "rt": 661,
        "correct": true,
        "response": "ArrowLeft",
        "congruent": false,
        "gazeTowards": true,
        "gazeCondition": "towards",
        "faceOnLeft": true,
        "impliedDirection": 0,
        "testDirection": 180,
        "avgFps": 61,
        "minFps": 59,
        "maxFps": 98,
        "totalFrames": 39,
        "frameRates": 61
      },
      {
        "trial_number": 85,
        "trial_index": 544,
        "rt": 948,
        "correct": true,
        "response": "ArrowLeft",
        "congruent": false,
        "gazeTowards": false,
        "gazeCondition": "away",
        "faceOnLeft": true,
        "impliedDirection": 0,
        "testDirection": 180,
        "avgFps": 61,
        "minFps": 56,
        "maxFps": 192,
        "totalFrames": 57,
        "frameRates": 61
      },
      {
        "trial_number": 86,
        "trial_index": 549,
        "rt": 1027,
        "correct": false,
        "response": "ArrowRight",
        "congruent": true,
        "gazeTowards": false,
        "gazeCondition": "away",
        "faceOnLeft": false,
        "impliedDirection": 180,
        "testDirection": 180,
        "avgFps": 59,
        "minFps": 39,
        "maxFps": 61,
        "totalFrames": 61,
        "frameRates": 59
      },
      {
        "trial_number": 87,
        "trial_index": 557,
        "rt": 553,
        "correct": true,
        "response": "ArrowLeft",
        "congruent": true,
        "gazeTowards": true,
        "gazeCondition": "towards",
        "faceOnLeft": false,
        "impliedDirection": 180,
        "testDirection": 180,
        "avgFps": 60,
        "minFps": 58,
        "maxFps": 62,
        "totalFrames": 33,
        "frameRates": 60
      },
      {
        "trial_number": 88,
        "trial_index": 562,
        "rt": 597,
        "correct": true,
        "response": "ArrowRight",
        "congruent": false,
        "gazeTowards": false,
        "gazeCondition": "away",
        "faceOnLeft": false,
        "impliedDirection": 180,
        "testDirection": 0,
        "avgFps": 61,
        "minFps": 58,
        "maxFps": 159,
        "totalFrames": 36,
        "frameRates": 61
      },
      {
        "trial_number": 89,
        "trial_index": 568,
        "rt": 669,
        "correct": true,
        "response": "ArrowRight",
        "congruent": true,
        "gazeTowards": false,
        "gazeCondition": "away",
        "faceOnLeft": true,
        "impliedDirection": 0,
        "testDirection": 0,
        "avgFps": 60,
        "minFps": 45,
        "maxFps": 65,
        "totalFrames": 39,
        "frameRates": 60
      },
      {
        "trial_number": 90,
        "trial_index": 573,
        "rt": 628,
        "correct": true,
        "response": "ArrowLeft",
        "congruent": false,
        "gazeTowards": true,
        "gazeCondition": "towards",
        "faceOnLeft": true,
        "impliedDirection": 0,
        "testDirection": 180,
        "avgFps": 61,
        "minFps": 47,
        "maxFps": 189,
        "totalFrames": 38,
        "frameRates": 61
      },
      {
        "trial_number": 91,
        "trial_index": 578,
        "rt": 577,
        "correct": true,
        "response": "ArrowRight",
        "congruent": true,
        "gazeTowards": true,
        "gazeCondition": "towards",
        "faceOnLeft": true,
        "impliedDirection": 0,
        "testDirection": 0,
        "avgFps": 60,
        "minFps": 51,
        "maxFps": 62,
        "totalFrames": 35,
        "frameRates": 60
      },
      {
        "trial_number": 92,
        "trial_index": 583,
        "rt": 605,
        "correct": true,
        "response": "ArrowLeft",
        "congruent": false,
        "gazeTowards": false,
        "gazeCondition": "away",
        "faceOnLeft": true,
        "impliedDirection": 0,
        "testDirection": 180,
        "avgFps": 60,
        "minFps": 57,
        "maxFps": 62,
        "totalFrames": 36,
        "frameRates": 60
      },
      {
        "trial_number": 93,
        "trial_index": 588,
        "rt": 575,
        "correct": true,
        "response": "ArrowRight",
        "congruent": true,
        "gazeTowards": false,
        "gazeCondition": "away",
        "faceOnLeft": true,
        "impliedDirection": 0,
        "testDirection": 0,
        "avgFps": 60,
        "minFps": 58,
        "maxFps": 63,
        "totalFrames": 34,
        "frameRates": 60
      },
      {
        "trial_number": 94,
        "trial_index": 593,
        "rt": 559,
        "correct": true,
        "response": "ArrowLeft",
        "congruent": true,
        "gazeTowards": true,
        "gazeCondition": "towards",
        "faceOnLeft": false,
        "impliedDirection": 180,
        "testDirection": 180,
        "avgFps": 61,
        "minFps": 58,
        "maxFps": 80,
        "totalFrames": 34,
        "frameRates": 61
      },
      {
        "trial_number": 95,
        "trial_index": 598,
        "rt": 614,
        "correct": true,
        "response": "ArrowRight",
        "congruent": true,
        "gazeTowards": true,
        "gazeCondition": "towards",
        "faceOnLeft": true,
        "impliedDirection": 0,
        "testDirection": 0,
        "avgFps": 61,
        "minFps": 59,
        "maxFps": 136,
        "totalFrames": 37,
        "frameRates": 61
      },
      {
        "trial_number": 96,
        "trial_index": 603,
        "rt": 527,
        "correct": true,
        "response": "ArrowRight",
        "congruent": true,
        "gazeTowards": false,
        "gazeCondition": "away",
        "faceOnLeft": true,
        "impliedDirection": 0,
        "testDirection": 0,
        "avgFps": 60,
        "minFps": 58,
        "maxFps": 72,
        "totalFrames": 32,
        "frameRates": 60
      },
      {
        "trial_number": 97,
        "trial_index": 608,
        "rt": 672,
        "correct": true,
        "response": "ArrowRight",
        "congruent": false,
        "gazeTowards": false,
        "gazeCondition": "away",
        "faceOnLeft": false,
        "impliedDirection": 180,
        "testDirection": 0,
        "avgFps": 60,
        "minFps": 59,
        "maxFps": 90,
        "totalFrames": 40,
        "frameRates": 60
      },
      {
        "trial_number": 98,
        "trial_index": 616,
        "rt": 539,
        "correct": true,
        "response": "ArrowRight",
        "congruent": true,
        "gazeTowards": false,
        "gazeCondition": "away",
        "faceOnLeft": true,
        "impliedDirection": 0,
        "testDirection": 0,
        "avgFps": 60,
        "minFps": 50,
        "maxFps": 61,
        "totalFrames": 32,
        "frameRates": 60
      },
      {
        "trial_number": 99,
        "trial_index": 621,
        "rt": 687,
        "correct": false,
        "response": "ArrowLeft",
        "congruent": true,
        "gazeTowards": true,
        "gazeCondition": "towards",
        "faceOnLeft": true,
        "impliedDirection": 0,
        "testDirection": 0,
        "avgFps": 59,
        "minFps": 35,
        "maxFps": 62,
        "totalFrames": 41,
        "frameRates": 59
      },
      {
        "trial_number": 100,
        "trial_index": 626,
        "rt": 562,
        "correct": true,
        "response": "ArrowLeft",
        "congruent": false,
        "gazeTowards": false,
        "gazeCondition": "away",
        "faceOnLeft": true,
        "impliedDirection": 0,
        "testDirection": 180,
        "avgFps": 60,
        "minFps": 58,
        "maxFps": 69,
        "totalFrames": 34,
        "frameRates": 60
      },
      {
        "trial_number": 101,
        "trial_index": 631,
        "rt": 722,
        "correct": true,
        "response": "ArrowLeft",
        "congruent": false,
        "gazeTowards": false,
        "gazeCondition": "away",
        "faceOnLeft": true,
        "impliedDirection": 0,
        "testDirection": 180,
        "avgFps": 61,
        "minFps": 57,
        "maxFps": 128,
        "totalFrames": 43,
        "frameRates": 61
      },
      {
        "trial_number": 102,
        "trial_index": 636,
        "rt": 577,
        "correct": true,
        "response": "ArrowRight",
        "congruent": true,
        "gazeTowards": true,
        "gazeCondition": "towards",
        "faceOnLeft": true,
        "impliedDirection": 0,
        "testDirection": 0,
        "avgFps": 60,
        "minFps": 38,
        "maxFps": 217,
        "totalFrames": 35,
        "frameRates": 60
      },
      {
        "trial_number": 103,
        "trial_index": 641,
        "rt": 595,
        "correct": true,
        "response": "ArrowLeft",
        "congruent": true,
        "gazeTowards": false,
        "gazeCondition": "away",
        "faceOnLeft": false,
        "impliedDirection": 180,
        "testDirection": 180,
        "avgFps": 60,
        "minFps": 55,
        "maxFps": 61,
        "totalFrames": 36,
        "frameRates": 60
      },
      {
        "trial_number": 104,
        "trial_index": 646,
        "rt": 542,
        "correct": true,
        "response": "ArrowRight",
        "congruent": false,
        "gazeTowards": false,
        "gazeCondition": "away",
        "faceOnLeft": false,
        "impliedDirection": 180,
        "testDirection": 0,
        "avgFps": 61,
        "minFps": 58,
        "maxFps": 156,
        "totalFrames": 33,
        "frameRates": 61
      },
      {
        "trial_number": 105,
        "trial_index": 651,
        "rt": 643,
        "correct": true,
        "response": "ArrowRight",
        "congruent": true,
        "gazeTowards": false,
        "gazeCondition": "away",
        "faceOnLeft": true,
        "impliedDirection": 0,
        "testDirection": 0,
        "avgFps": 60,
        "minFps": 53,
        "maxFps": 62,
        "totalFrames": 39,
        "frameRates": 60
      },
      {
        "trial_number": 106,
        "trial_index": 656,
        "rt": 715,
        "correct": true,
        "response": "ArrowLeft",
        "congruent": false,
        "gazeTowards": true,
        "gazeCondition": "towards",
        "faceOnLeft": true,
        "impliedDirection": 0,
        "testDirection": 180,
        "avgFps": 60,
        "minFps": 54,
        "maxFps": 97,
        "totalFrames": 43,
        "frameRates": 60
      },
      {
        "trial_number": 107,
        "trial_index": 661,
        "rt": 632,
        "correct": true,
        "response": "ArrowRight",
        "congruent": true,
        "gazeTowards": false,
        "gazeCondition": "away",
        "faceOnLeft": true,
        "impliedDirection": 0,
        "testDirection": 0,
        "avgFps": 60,
        "minFps": 58,
        "maxFps": 61,
        "totalFrames": 38,
        "frameRates": 60
      },
      {
        "trial_number": 108,
        "trial_index": 666,
        "rt": 772,
        "correct": true,
        "response": "ArrowRight",
        "congruent": false,
        "gazeTowards": true,
        "gazeCondition": "towards",
        "faceOnLeft": false,
        "impliedDirection": 180,
        "testDirection": 0,
        "avgFps": 60,
        "minFps": 58,
        "maxFps": 81,
        "totalFrames": 46,
        "frameRates": 60
      },
      {
        "trial_number": 109,
        "trial_index": 671,
        "rt": 662,
        "correct": true,
        "response": "ArrowLeft",
        "congruent": true,
        "gazeTowards": true,
        "gazeCondition": "towards",
        "faceOnLeft": false,
        "impliedDirection": 180,
        "testDirection": 180,
        "avgFps": 60,
        "minFps": 58,
        "maxFps": 92,
        "totalFrames": 40,
        "frameRates": 60
      },
      {
        "trial_number": 110,
        "trial_index": 676,
        "rt": 760,
        "correct": true,
        "response": "ArrowRight",
        "congruent": false,
        "gazeTowards": true,
        "gazeCondition": "towards",
        "faceOnLeft": false,
        "impliedDirection": 180,
        "testDirection": 0,
        "avgFps": 60,
        "minFps": 58,
        "maxFps": 73,
        "totalFrames": 46,
        "frameRates": 60
      },
      {
        "trial_number": 111,
        "trial_index": 681,
        "rt": 605,
        "correct": true,
        "response": "ArrowLeft",
        "congruent": false,
        "gazeTowards": true,
        "gazeCondition": "towards",
        "faceOnLeft": true,
        "impliedDirection": 0,
        "testDirection": 180,
        "avgFps": 61,
        "minFps": 57,
        "maxFps": 266,
        "totalFrames": 36,
        "frameRates": 61
      },
      {
        "trial_number": 112,
        "trial_index": 686,
        "rt": 697,
        "correct": true,
        "response": "ArrowLeft",
        "congruent": true,
        "gazeTowards": false,
        "gazeCondition": "away",
        "faceOnLeft": false,
        "impliedDirection": 180,
        "testDirection": 180,
        "avgFps": 61,
        "minFps": 58,
        "maxFps": 98,
        "totalFrames": 42,
        "frameRates": 61
      },
      {
        "trial_number": 113,
        "trial_index": 691,
        "rt": 666,
        "correct": true,
        "response": "ArrowLeft",
        "congruent": true,
        "gazeTowards": false,
        "gazeCondition": "away",
        "faceOnLeft": false,
        "impliedDirection": 180,
        "testDirection": 180,
        "avgFps": 61,
        "minFps": 59,
        "maxFps": 156,
        "totalFrames": 40,
        "frameRates": 61
      },
      {
        "trial_number": 114,
        "trial_index": 696,
        "rt": 610,
        "correct": true,
        "response": "ArrowRight",
        "congruent": false,
        "gazeTowards": false,
        "gazeCondition": "away",
        "faceOnLeft": false,
        "impliedDirection": 180,
        "testDirection": 0,
        "avgFps": 59,
        "minFps": 45,
        "maxFps": 63,
        "totalFrames": 36,
        "frameRates": 59
      },
      {
        "trial_number": 115,
        "trial_index": 701,
        "rt": 663,
        "correct": true,
        "response": "ArrowRight",
        "congruent": false,
        "gazeTowards": true,
        "gazeCondition": "towards",
        "faceOnLeft": false,
        "impliedDirection": 180,
        "testDirection": 0,
        "avgFps": 61,
        "minFps": 57,
        "maxFps": 172,
        "totalFrames": 40,
        "frameRates": 61
      },
      {
        "trial_number": 116,
        "trial_index": 706,
        "rt": 665,
        "correct": true,
        "response": "ArrowRight",
        "congruent": true,
        "gazeTowards": false,
        "gazeCondition": "away",
        "faceOnLeft": true,
        "impliedDirection": 0,
        "testDirection": 0,
        "avgFps": 60,
        "minFps": 51,
        "maxFps": 61,
        "totalFrames": 40,
        "frameRates": 60
      },
      {
        "trial_number": 117,
        "trial_index": 711,
        "rt": 634,
        "correct": true,
        "response": "ArrowRight",
        "congruent": true,
        "gazeTowards": true,
        "gazeCondition": "towards",
        "faceOnLeft": true,
        "impliedDirection": 0,
        "testDirection": 0,
        "avgFps": 60,
        "minFps": 58,
        "maxFps": 78,
        "totalFrames": 38,
        "frameRates": 60
      },
      {
        "trial_number": 118,
        "trial_index": 716,
        "rt": 804,
        "correct": true,
        "response": "ArrowLeft",
        "congruent": false,
        "gazeTowards": false,
        "gazeCondition": "away",
        "faceOnLeft": true,
        "impliedDirection": 0,
        "testDirection": 180,
        "avgFps": 60,
        "minFps": 58,
        "maxFps": 67,
        "totalFrames": 48,
        "frameRates": 60
      },
      {
        "trial_number": 119,
        "trial_index": 721,
        "rt": 575,
        "correct": true,
        "response": "ArrowRight",
        "congruent": true,
        "gazeTowards": false,
        "gazeCondition": "away",
        "faceOnLeft": true,
        "impliedDirection": 0,
        "testDirection": 0,
        "avgFps": 60,
        "minFps": 44,
        "maxFps": 133,
        "totalFrames": 34,
        "frameRates": 60
      }
    ],
    "catch": {
      "total": 12,
      "correct": 12,
      "accuracy": 100,
      "meanRT": 647,
      "trials": [
        {
          "trial_number": 0,
          "trial_index": 94,
          "rt": 683,
          "correct": true,
          "colorTarget": "face",
          "gazeTowards": true,
          "gazeCondition": "towards",
          "faceOnLeft": true
        },
        {
          "trial_number": 1,
          "trial_index": 102,
          "rt": 578,
          "correct": true,
          "colorTarget": "face",
          "gazeTowards": false,
          "gazeCondition": "away",
          "faceOnLeft": false
        },
        {
          "trial_number": 2,
          "trial_index": 210,
          "rt": 1078,
          "correct": true,
          "colorTarget": "tree",
          "gazeTowards": true,
          "gazeCondition": "towards",
          "faceOnLeft": true
        },
        {
          "trial_number": 3,
          "trial_index": 228,
          "rt": 432,
          "correct": true,
          "colorTarget": "tree",
          "gazeTowards": false,
          "gazeCondition": "away",
          "faceOnLeft": false
        },
        {
          "trial_number": 4,
          "trial_index": 247,
          "rt": 603,
          "correct": true,
          "colorTarget": "tree",
          "gazeTowards": false,
          "gazeCondition": "away",
          "faceOnLeft": true
        },
        {
          "trial_number": 5,
          "trial_index": 270,
          "rt": 660,
          "correct": true,
          "colorTarget": "tree",
          "gazeTowards": true,
          "gazeCondition": "towards",
          "faceOnLeft": false
        },
        {
          "trial_number": 6,
          "trial_index": 273,
          "rt": 631,
          "correct": true,
          "colorTarget": "face",
          "gazeTowards": false,
          "gazeCondition": "away",
          "faceOnLeft": true
        },
        {
          "trial_number": 7,
          "trial_index": 427,
          "rt": 766,
          "correct": true,
          "colorTarget": "tree",
          "gazeTowards": false,
          "gazeCondition": "away",
          "faceOnLeft": true
        },
        {
          "trial_number": 8,
          "trial_index": 460,
          "rt": 625,
          "correct": true,
          "colorTarget": "face",
          "gazeTowards": true,
          "gazeCondition": "towards",
          "faceOnLeft": false
        },
        {
          "trial_number": 9,
          "trial_index": 553,
          "rt": 617,
          "correct": true,
          "colorTarget": "tree",
          "gazeTowards": false,
          "gazeCondition": "away",
          "faceOnLeft": false
        },
        {
          "trial_number": 10,
          "trial_index": 612,
          "rt": 529,
          "correct": true,
          "colorTarget": "face",
          "gazeTowards": true,
          "gazeCondition": "towards",
          "faceOnLeft": false
        },
        {
          "trial_number": 11,
          "trial_index": 725,
          "rt": 563,
          "correct": true,
          "colorTarget": "face",
          "gazeTowards": false,
          "gazeCondition": "away",
          "faceOnLeft": true
        }
      ]
    },
    "practice": {
      "trials": [
        {
          "trial_number": 0,
          "rt": null,
          "correct": false,
          "direction": 0
        },
        {
          "trial_number": 1,
          "rt": 296,
          "correct": false,
          "direction": 180
        },
        {
          "trial_number": 2,
          "rt": 527,
          "correct": true,
          "direction": 180
        },
        {
          "trial_number": 3,
          "rt": 762,
          "correct": false,
          "direction": 0
        },
        {
          "trial_number": 4,
          "rt": 485,
          "correct": false,
          "direction": 180
        },
        {
          "trial_number": 5,
          "rt": 653,
          "correct": false,
          "direction": 0
        },
        {
          "trial_number": 6,
          "rt": 680,
          "correct": true,
          "direction": 180
        },
        {
          "trial_number": 7,
          "rt": 567,
          "correct": true,
          "direction": 0
        },
        {
          "trial_number": 8,
          "rt": 692,
          "correct": true,
          "direction": 180
        },
        {
          "trial_number": 9,
          "rt": 514,
          "correct": true,
          "direction": 0
        },
        {
          "trial_number": 10,
          "rt": 335,
          "correct": true,
          "direction": 0
        },
        {
          "trial_number": 11,
          "rt": 750,
          "correct": true,
          "direction": 180
        },
        {
          "trial_number": 12,
          "rt": 609,
          "correct": true,
          "direction": 180
        },
        {
          "trial_number": 13,
          "rt": 605,
          "correct": true,
          "direction": 0
        },
        {
          "trial_number": 14,
          "rt": 565,
          "correct": true,
          "direction": 180
        },
        {
          "trial_number": 15,
          "rt": 681,
          "correct": true,
          "direction": 0
        },
        {
          "trial_number": 16,
          "rt": 554,
          "correct": true,
          "direction": 180
        },
        {
          "trial_number": 17,
          "rt": 578,
          "correct": true,
          "direction": 0
        },
        {
          "trial_number": 18,
          "rt": 737,
          "correct": true,
          "direction": 180
        },
        {
          "trial_number": 19,
          "rt": 712,
          "correct": true,
          "direction": 0
        }
      ],
      "meanRT": 595,
      "accuracy": 75
    }
  }
}