{
  "experiment": "rdk-bars",
  "UUID": "b4c0eb4a-f994-46a8-ad66-4cec7d1a4f91",
  "data": {
    "session": {
      "experiment_version": "1.0",
      "treatment": "bars",
      "file_version": "1.1",
      "totalTrials": 30,
      "session_group": "default",
      "browserData": {
        "os": "Windows",
        "browser": "Firefox",
        "screenResolution": "2176x1224",
        "browserViewport": "2176x1092",
        "extraHardware": {
          "userAgent": "Mozilla/5.0 (Windows NT 10.0; Win64; x64; rv:144.0) Gecko/20100101 Firefox/144.0",
          "platform": "Win32",
          "hardwareConcurrency": 16,
          "deviceMemory": null,
          "gpu": {
            "vendor": "Google Inc. (AMD)",
            "renderer": "ANGLE (AMD, Radeon R9 200 Series Direct3D11 vs_5_0 ps_5_0), or similar"
          },
          "screen": {
            "width": 2176,
            "height": 1224,
            "availWidth": 2176,
            "availHeight": 1176,
            "colorDepth": 24
          },
          "viewport": {
            "width": 2176,
            "height": 1092
          },
          "devicePixelRatio": 1.7647058823529411,
          "maxTouchPoints": 0,
          "pointer": {
            "coarse": false,
            "fine": true,
            "hover": true
          },
          "timeZone": "Asia/Singapore",
          "language": "en-US",
          "languages": [
            "en-US",
            "en"
          ]
        }
      },
      "calibration": {
        "monitorWidthCm": 38,
        "viewingDistanceCm": 54,
        "pixelsPerDegree": 0
      },
      "parameters": {
        "coherence": 0.4,
        "apertureDeg": 5,
        "dotSpeedDegPerSec": 2,
        "lifetimeMs": 200,
        "fixationDurationMs": 1500,
        "adaptorDurationMs": 1500,
        "testDurationMs": 2000
      },
      "mturk": {
        "assignmentId": "",
        "workerId": "",
        "hitId": ""
      }
    },
    "trials": [
      {
        "trial_index": 47,
        "rt": 1812,
        "correct": true,
        "response": "ArrowRight",
        "congruent": true,
        "adaptorDirection": 0,
        "testDirection": 0
      },
      {
        "trial_index": 52,
        "rt": 1243,
        "correct": true,
        "response": "ArrowLeft",
        "congruent": true,
        "adaptorDirection": 180,
        "testDirection": 180
      },
      {
        "trial_index": 57,
        "rt": 1320,
        "correct": true,
        "response": "ArrowLeft",
        "congruent": false,
        "adaptorDirection": 0,
        "testDirection": 180
      },
      {
        "trial_index": 62,
        "rt": 1154,
        "correct": true,
        "response": "ArrowRight",
        "congruent": false,
        "adaptorDirection": 180,
        "testDirection": 0
      },
      {
        "trial_index": 67,
        "rt": 1618,
        "correct": true,
        "response": "ArrowRight",
        "congruent": false,
        "adaptorDirection": 180,
        "testDirection": 0
      },
      {
        "trial_index": 72,
        "rt": 1681,
        "correct": false,
        "response": "ArrowLeft",
        "congruent": false,
        "adaptorDirection": 180,
        "testDirection": 0
      },
      {
        "trial_index": 77,
        "rt": 1370,
        "correct": true,
        "response": "ArrowRight",
        "congruent": false,
        "adaptorDirection": 180,
        "testDirection": 0
      },
      {
        "trial_index": 82,
        "rt": 1640,
        "correct": false,
        "response": "ArrowRight",
        "congruent": false,
        "adaptorDirection": 0,
        "testDirection": 180
      },
      {
        "trial_index": 87,
        "rt": 1545,
        "correct": false,
        "response": "ArrowRight",
        "congruent": true,
        "adaptorDirection": 180,
        "testDirection": 180
      },
      {
        "trial_index": 92,
        "rt": 1574,
        "correct": false,
        "response": "ArrowRight",
        "congruent": true,
        "adaptorDirection": 180,
        "testDirection": 180
      },
      {
        "trial_index": 97,
        "rt": 1747,
        "correct": true,
        "response": "ArrowLeft",
        "congruent": false,
        "adaptorDirection": 0,
        "testDirection": 180
      },
      {
        "trial_index": 102,
        "rt": 1455,
        "correct": true,
        "response": "ArrowLeft",
        "congruent": true,
        "adaptorDirection": 180,
        "testDirection": 180
      },
      {
        "trial_index": 107,
        "rt": 1912,
        "correct": true,
        "response": "ArrowRight",
        "congruent": false,
        "adaptorDirection": 180,
        "testDirection": 0
      },
      {
        "trial_index": 112,
        "rt": 1498,
        "correct": true,
        "response": "ArrowRight",
        "congruent": false,
        "adaptorDirection": 180,
        "testDirection": 0
      },
      {
        "trial_index": 117,
        "rt": 1494,
        "correct": true,
        "response": "ArrowRight",
        "congruent": false,
        "adaptorDirection": 180,
        "testDirection": 0
      },
      {
        "trial_index": 122,
        "rt": 1764,
        "correct": true,
        "response": "ArrowRight",
        "congruent": true,
        "adaptorDirection": 0,
        "testDirection": 0
      },
      {
        "trial_index": 127,
        "rt": null,
        "correct": false,
        "response": null,
        "congruent": true,
        "adaptorDirection": 0,
        "testDirection": 0
      },
      {
        "trial_index": 132,
        "rt": 1477,
        "correct": false,
        "response": "ArrowRight",
        "congruent": true,
        "adaptorDirection": 180,
        "testDirection": 180
      },
      {
        "trial_index": 137,
        "rt": 1616,
        "correct": true,
        "response": "ArrowRight",
        "congruent": true,
        "adaptorDirection": 0,
        "testDirection": 0
      },
      {
        "trial_index": 142,
        "rt": 1841,
        "correct": false,
        "response": "ArrowLeft",
        "congruent": false,
        "adaptorDirection": 180,
        "testDirection": 0
      },
      {
        "trial_index": 147,
        "rt": 1379,
        "correct": false,
        "response": "ArrowRight",
        "congruent": true,
        "adaptorDirection": 180,
        "testDirection": 180
      },
      {
        "trial_index": 152,
        "rt": 1485,
        "correct": false,
        "response": "ArrowRight",
        "congruent": true,
        "adaptorDirection": 180,
        "testDirection": 180
      },
      {
        "trial_index": 157,
        "rt": 1849,
        "correct": true,
        "response": "ArrowRight",
        "congruent": true,
        "adaptorDirection": 0,
        "testDirection": 0
      },
      {
        "trial_index": 162,
        "rt": 1752,
        "correct": false,
        "response": "ArrowRight",
        "congruent": true,
        "adaptorDirection": 180,
        "testDirection": 180
      },
      {
        "trial_index": 167,
        "rt": 1773,
        "correct": true,
        "response": "ArrowLeft",
        "congruent": false,
        "adaptorDirection": 0,
        "testDirection": 180
      },
      {
        "trial_index": 172,
        "rt": 1588,
        "correct": false,
        "response": "ArrowRight",
        "congruent": true,
        "adaptorDirection": 180,
        "testDirection": 180
      },
      {
        "trial_index": 177,
        "rt": 1414,
        "correct": false,
        "response": "ArrowRight",
        "congruent": true,
        "adaptorDirection": 180,
        "testDirection": 180
      },
      {
        "trial_index": 182,
        "rt": 1587,
        "correct": false,
        "response": "ArrowLeft",
        "congruent": false,
        "adaptorDirection": 180,
        "testDirection": 0
      },
      {
        "trial_index": 187,
        "rt": 1611,
        "correct": false,
        "response": "ArrowLeft",
        "congruent": false,
        "adaptorDirection": 180,
        "testDirection": 0
      },
      {
        "trial_index": 192,
        "rt": 1815,
        "correct": true,
        "response": "ArrowRight",
        "congruent": false,
        "adaptorDirection": 180,
        "testDirection": 0
      }
    ]
  }
}