{
  "experiment": "rdk-face-1",
  "UUID": "8e093e46-b4b7-495f-a99e-faa0feae7e8d",
  "data": {
    "session": {
      "experiment_version": "1.8.6",
      "treatment": "faces_towards_away_catch",
      "file_version": "1.8.6",
      "totalTrials": 120,
      "totalTrialsIncludingCatch": 132,
      "conditions": {
        "gazeTowardsCount": 60,
        "gazeAwayCount": 60,
        "gazeTowardsAccuracy": 93,
        "gazeAwayAccuracy": 100
      },
      "session_group": "default",
      "browserData": {
        "os": "Mac",
        "browser": "Firefox",
        "screenResolution": "1440x900",
        "browserViewport": "1440x900",
        "devicePixelRatio": 2,
        "colorDepth": 24,
        "hardwareConcurrency": 2,
        "deviceMemory": "Unknown",
        "gpuRenderer": "Intel(R) HD Graphics, or similar",
        "measuredRefreshRateHz": 17
      },
      "attention": {
        "visibilityEvents": [
          {
            "event": "focus",
            "state": "focused",
            "timestamp": 1772765670581
          },
          {
            "event": "blur",
            "state": "blurred",
            "timestamp": 1772765670581
          },
          {
            "event": "visibilitychange",
            "state": "hidden",
            "timestamp": 1772765670849
          },
          {
            "event": "focus",
            "state": "focused",
            "timestamp": 1772765673199
          },
          {
            "event": "visibilitychange",
            "state": "visible",
            "timestamp": 1772765673343
          },
          {
            "event": "visibilitychange",
            "state": "hidden",
            "timestamp": 1772765690897
          },
          {
            "event": "visibilitychange",
            "state": "visible",
            "timestamp": 1772765690909
          }
        ]
      },
      "calibration": {
        "monitorWidthCm": 38,
        "viewingDistanceCm": 54,
        "pixelsPerDegree": 50
      },
      "parameters": {
        "coherence": 0.4,
        "apertureDeg": 5,
        "densityDotsPerDeg2": 40,
        "dotDiameterDeg": 0.035,
        "dotSpeedDegPerSec": 3,
        "lifetimeMs": 200,
        "fixationDurationMs": 1500,
        "faceDurationMs": 1500,
        "testDurationMs": 2000,
        "catchResponseMs": 3000
      },
      "prolific": {
        "prolificPid": "6646cdbd7a8e4d39556e459b",
        "studyId": "",
        "sessionId": ""
      },
      "timing": {
        "startTime": "2026-03-06T02:54:30.538Z",
        "endTime": "2026-03-06T03:08:53.061Z",
        "totalElapsedTimeMs": 862523
      }
    },
    "trials": [
      {
        "trial_number": 0,
        "trial_index": 90,
        "rt": 1040,
        "correct": true,
        "response": "ArrowLeft",
        "congruent": true,
        "gazeTowards": true,
        "gazeCondition": "towards",
        "faceOnLeft": false,
        "impliedDirection": 180,
        "testDirection": 180,
        "avgFps": 60,
        "minFps": 31,
        "maxFps": 1515,
        "totalFrames": 62,
        "frameRates": 60
      },
      {
        "trial_number": 1,
        "trial_index": 95,
        "rt": 1375,
        "correct": true,
        "response": "ArrowLeft",
        "congruent": true,
        "gazeTowards": false,
        "gazeCondition": "away",
        "faceOnLeft": false,
        "impliedDirection": 180,
        "testDirection": 180,
        "avgFps": 60,
        "minFps": 31,
        "maxFps": 1923,
        "totalFrames": 82,
        "frameRates": 60
      },
      {
        "trial_number": 2,
        "trial_index": 100,
        "rt": 1080,
        "correct": true,
        "response": "ArrowLeft",
        "congruent": false,
        "gazeTowards": true,
        "gazeCondition": "towards",
        "faceOnLeft": true,
        "impliedDirection": 0,
        "testDirection": 180,
        "avgFps": 60,
        "minFps": 33,
        "maxFps": 1724,
        "totalFrames": 65,
        "frameRates": 60
      },
      {
        "trial_number": 3,
        "trial_index": 105,
        "rt": 1048,
        "correct": true,
        "response": "ArrowRight",
        "congruent": false,
        "gazeTowards": false,
        "gazeCondition": "away",
        "faceOnLeft": false,
        "impliedDirection": 180,
        "testDirection": 0,
        "avgFps": 60,
        "minFps": 37,
        "maxFps": 1613,
        "totalFrames": 63,
        "frameRates": 60
      },
      {
        "trial_number": 4,
        "trial_index": 110,
        "rt": 985,
        "correct": true,
        "response": "ArrowLeft",
        "congruent": false,
        "gazeTowards": false,
        "gazeCondition": "away",
        "faceOnLeft": true,
        "impliedDirection": 0,
        "testDirection": 180,
        "avgFps": 60,
        "minFps": 27,
        "maxFps": 3571,
        "totalFrames": 59,
        "frameRates": 60
      },
      {
        "trial_number": 5,
        "trial_index": 115,
        "rt": 939,
        "correct": true,
        "response": "ArrowLeft",
        "congruent": false,
        "gazeTowards": true,
        "gazeCondition": "towards",
        "faceOnLeft": true,
        "impliedDirection": 0,
        "testDirection": 180,
        "avgFps": 60,
        "minFps": 33,
        "maxFps": 2083,
        "totalFrames": 56,
        "frameRates": 60
      },
      {
        "trial_number": 6,
        "trial_index": 120,
        "rt": 1454,
        "correct": false,
        "response": "ArrowRight",
        "congruent": false,
        "gazeTowards": true,
        "gazeCondition": "towards",
        "faceOnLeft": true,
        "impliedDirection": 0,
        "testDirection": 180,
        "avgFps": 61,
        "minFps": 46,
        "maxFps": 1786,
        "totalFrames": 88,
        "frameRates": 61
      },
      {
        "trial_number": 7,
        "trial_index": 128,
        "rt": 814,
        "correct": true,
        "response": "ArrowLeft",
        "congruent": false,
        "gazeTowards": false,
        "gazeCondition": "away",
        "faceOnLeft": true,
        "impliedDirection": 0,
        "testDirection": 180,
        "avgFps": 60,
        "minFps": 31,
        "maxFps": 1724,
        "totalFrames": 48,
        "frameRates": 60
      },
      {
        "trial_number": 8,
        "trial_index": 133,
        "rt": 920,
        "correct": true,
        "response": "ArrowLeft",
        "congruent": false,
        "gazeTowards": false,
        "gazeCondition": "away",
        "faceOnLeft": true,
        "impliedDirection": 0,
        "testDirection": 180,
        "avgFps": 60,
        "minFps": 40,
        "maxFps": 2273,
        "totalFrames": 55,
        "frameRates": 60
      },
      {
        "trial_number": 9,
        "trial_index": 138,
        "rt": 833,
        "correct": true,
        "response": "ArrowLeft",
        "congruent": false,
        "gazeTowards": false,
        "gazeCondition": "away",
        "faceOnLeft": true,
        "impliedDirection": 0,
        "testDirection": 180,
        "avgFps": 60,
        "minFps": 28,
        "maxFps": 2381,
        "totalFrames": 49,
        "frameRates": 60
      },
      {
        "trial_number": 10,
        "trial_index": 143,
        "rt": 1202,
        "correct": true,
        "response": "ArrowRight",
        "congruent": false,
        "gazeTowards": true,
        "gazeCondition": "towards",
        "faceOnLeft": false,
        "impliedDirection": 180,
        "testDirection": 0,
        "avgFps": 60,
        "minFps": 24,
        "maxFps": 2083,
        "totalFrames": 71,
        "frameRates": 60
      },
      {
        "trial_number": 11,
        "trial_index": 148,
        "rt": 837,
        "correct": true,
        "response": "ArrowLeft",
        "congruent": false,
        "gazeTowards": true,
        "gazeCondition": "towards",
        "faceOnLeft": true,
        "impliedDirection": 0,
        "testDirection": 180,
        "avgFps": 60,
        "minFps": 34,
        "maxFps": 2174,
        "totalFrames": 50,
        "frameRates": 60
      },
      {
        "trial_number": 12,
        "trial_index": 153,
        "rt": 853,
        "correct": true,
        "response": "ArrowLeft",
        "congruent": false,
        "gazeTowards": false,
        "gazeCondition": "away",
        "faceOnLeft": true,
        "impliedDirection": 0,
        "testDirection": 180,
        "avgFps": 60,
        "minFps": 30,
        "maxFps": 1786,
        "totalFrames": 51,
        "frameRates": 60
      },
      {
        "trial_number": 13,
        "trial_index": 158,
        "rt": 1737,
        "correct": true,
        "response": "ArrowLeft",
        "congruent": false,
        "gazeTowards": false,
        "gazeCondition": "away",
        "faceOnLeft": true,
        "impliedDirection": 0,
        "testDirection": 180,
        "avgFps": 60,
        "minFps": 22,
        "maxFps": 2174,
        "totalFrames": 103,
        "frameRates": 60
      },
      {
        "trial_number": 14,
        "trial_index": 163,
        "rt": 1546,
        "correct": true,
        "response": "ArrowLeft",
        "congruent": true,
        "gazeTowards": false,
        "gazeCondition": "away",
        "faceOnLeft": false,
        "impliedDirection": 180,
        "testDirection": 180,
        "avgFps": 60,
        "minFps": 42,
        "maxFps": 1786,
        "totalFrames": 93,
        "frameRates": 60
      },
      {
        "trial_number": 15,
        "trial_index": 168,
        "rt": 1457,
        "correct": true,
        "response": "ArrowLeft",
        "congruent": false,
        "gazeTowards": false,
        "gazeCondition": "away",
        "faceOnLeft": true,
        "impliedDirection": 0,
        "testDirection": 180,
        "avgFps": 60,
        "minFps": 41,
        "maxFps": 1667,
        "totalFrames": 88,
        "frameRates": 60
      },
      {
        "trial_number": 16,
        "trial_index": 173,
        "rt": 1081,
        "correct": true,
        "response": "ArrowRight",
        "congruent": true,
        "gazeTowards": false,
        "gazeCondition": "away",
        "faceOnLeft": true,
        "impliedDirection": 0,
        "testDirection": 0,
        "avgFps": 60,
        "minFps": 29,
        "maxFps": 2174,
        "totalFrames": 64,
        "frameRates": 60
      },
      {
        "trial_number": 17,
        "trial_index": 178,
        "rt": 1499,
        "correct": true,
        "response": "ArrowRight",
        "congruent": false,
        "gazeTowards": false,
        "gazeCondition": "away",
        "faceOnLeft": false,
        "impliedDirection": 180,
        "testDirection": 0,
        "avgFps": 60,
        "minFps": 37,
        "maxFps": 2632,
        "totalFrames": 90,
        "frameRates": 60
      },
      {
        "trial_number": 18,
        "trial_index": 186,
        "rt": 808,
        "correct": true,
        "response": "ArrowLeft",
        "congruent": true,
        "gazeTowards": true,
        "gazeCondition": "towards",
        "faceOnLeft": false,
        "impliedDirection": 180,
        "testDirection": 180,
        "avgFps": 60,
        "minFps": 35,
        "maxFps": 1786,
        "totalFrames": 48,
        "frameRates": 60
      },
      {
        "trial_number": 19,
        "trial_index": 191,
        "rt": 1417,
        "correct": true,
        "response": "ArrowLeft",
        "congruent": false,
        "gazeTowards": false,
        "gazeCondition": "away",
        "faceOnLeft": true,
        "impliedDirection": 0,
        "testDirection": 180,
        "avgFps": 60,
        "minFps": 44,
        "maxFps": 2000,
        "totalFrames": 85,
        "frameRates": 60
      },
      {
        "trial_number": 20,
        "trial_index": 199,
        "rt": 887,
        "correct": true,
        "response": "ArrowLeft",
        "congruent": true,
        "gazeTowards": true,
        "gazeCondition": "towards",
        "faceOnLeft": false,
        "impliedDirection": 180,
        "testDirection": 180,
        "avgFps": 60,
        "minFps": 37,
        "maxFps": 1923,
        "totalFrames": 53,
        "frameRates": 60
      },
      {
        "trial_number": 21,
        "trial_index": 207,
        "rt": 733,
        "correct": true,
        "response": "ArrowLeft",
        "congruent": false,
        "gazeTowards": true,
        "gazeCondition": "towards",
        "faceOnLeft": true,
        "impliedDirection": 0,
        "testDirection": 180,
        "avgFps": 60,
        "minFps": 31,
        "maxFps": 1786,
        "totalFrames": 44,
        "frameRates": 60
      },
      {
        "trial_number": 22,
        "trial_index": 212,
        "rt": 758,
        "correct": true,
        "response": "ArrowLeft",
        "congruent": true,
        "gazeTowards": true,
        "gazeCondition": "towards",
        "faceOnLeft": false,
        "impliedDirection": 180,
        "testDirection": 180,
        "avgFps": 60,
        "minFps": 32,
        "maxFps": 3571,
        "totalFrames": 45,
        "frameRates": 60
      },
      {
        "trial_number": 23,
        "trial_index": 217,
        "rt": 844,
        "correct": true,
        "response": "ArrowLeft",
        "congruent": true,
        "gazeTowards": false,
        "gazeCondition": "away",
        "faceOnLeft": false,
        "impliedDirection": 180,
        "testDirection": 180,
        "avgFps": 60,
        "minFps": 30,
        "maxFps": 1786,
        "totalFrames": 50,
        "frameRates": 60
      },
      {
        "trial_number": 24,
        "trial_index": 222,
        "rt": 1300,
        "correct": true,
        "response": "ArrowRight",
        "congruent": true,
        "gazeTowards": false,
        "gazeCondition": "away",
        "faceOnLeft": true,
        "impliedDirection": 0,
        "testDirection": 0,
        "avgFps": 60,
        "minFps": 28,
        "maxFps": 2632,
        "totalFrames": 78,
        "frameRates": 60
      },
      {
        "trial_number": 25,
        "trial_index": 227,
        "rt": 916,
        "correct": false,
        "response": "ArrowLeft",
        "congruent": true,
        "gazeTowards": true,
        "gazeCondition": "towards",
        "faceOnLeft": true,
        "impliedDirection": 0,
        "testDirection": 0,
        "avgFps": 61,
        "minFps": 43,
        "maxFps": 2632,
        "totalFrames": 55,
        "frameRates": 61
      },
      {
        "trial_number": 26,
        "trial_index": 232,
        "rt": 856,
        "correct": true,
        "response": "ArrowLeft",
        "congruent": true,
        "gazeTowards": true,
        "gazeCondition": "towards",
        "faceOnLeft": false,
        "impliedDirection": 180,
        "testDirection": 180,
        "avgFps": 61,
        "minFps": 40,
        "maxFps": 4167,
        "totalFrames": 51,
        "frameRates": 61
      },
      {
        "trial_number": 27,
        "trial_index": 237,
        "rt": 867,
        "correct": true,
        "response": "ArrowLeft",
        "congruent": true,
        "gazeTowards": true,
        "gazeCondition": "towards",
        "faceOnLeft": false,
        "impliedDirection": 180,
        "testDirection": 180,
        "avgFps": 61,
        "minFps": 43,
        "maxFps": 2381,
        "totalFrames": 52,
        "frameRates": 61
      },
      {
        "trial_number": 28,
        "trial_index": 242,
        "rt": 954,
        "correct": true,
        "response": "ArrowRight",
        "congruent": true,
        "gazeTowards": true,
        "gazeCondition": "towards",
        "faceOnLeft": true,
        "impliedDirection": 0,
        "testDirection": 0,
        "avgFps": 54,
        "minFps": 8,
        "maxFps": 2632,
        "totalFrames": 51,
        "frameRates": 54
      },
      {
        "trial_number": 29,
        "trial_index": 248,
        "rt": 716,
        "correct": true,
        "response": "ArrowRight",
        "congruent": true,
        "gazeTowards": false,
        "gazeCondition": "away",
        "faceOnLeft": true,
        "impliedDirection": 0,
        "testDirection": 0,
        "avgFps": 60,
        "minFps": 31,
        "maxFps": 2273,
        "totalFrames": 43,
        "frameRates": 60
      },
      {
        "trial_number": 30,
        "trial_index": 253,
        "rt": 1660,
        "correct": true,
        "response": "ArrowRight",
        "congruent": false,
        "gazeTowards": false,
        "gazeCondition": "away",
        "faceOnLeft": false,
        "impliedDirection": 180,
        "testDirection": 0,
        "avgFps": 60,
        "minFps": 44,
        "maxFps": 4167,
        "totalFrames": 100,
        "frameRates": 60
      },
      {
        "trial_number": 31,
        "trial_index": 258,
        "rt": 1548,
        "correct": true,
        "response": "ArrowRight",
        "congruent": false,
        "gazeTowards": false,
        "gazeCondition": "away",
        "faceOnLeft": false,
        "impliedDirection": 180,
        "testDirection": 0,
        "avgFps": 60,
        "minFps": 43,
        "maxFps": 1724,
        "totalFrames": 93,
        "frameRates": 60
      },
      {
        "trial_number": 32,
        "trial_index": 263,
        "rt": 1777,
        "correct": true,
        "response": "ArrowRight",
        "congruent": true,
        "gazeTowards": true,
        "gazeCondition": "towards",
        "faceOnLeft": true,
        "impliedDirection": 0,
        "testDirection": 0,
        "avgFps": 60,
        "minFps": 40,
        "maxFps": 2778,
        "totalFrames": 107,
        "frameRates": 60
      },
      {
        "trial_number": 33,
        "trial_index": 271,
        "rt": 818,
        "correct": true,
        "response": "ArrowLeft",
        "congruent": true,
        "gazeTowards": false,
        "gazeCondition": "away",
        "faceOnLeft": false,
        "impliedDirection": 180,
        "testDirection": 180,
        "avgFps": 61,
        "minFps": 38,
        "maxFps": 1923,
        "totalFrames": 49,
        "frameRates": 61
      },
      {
        "trial_number": 34,
        "trial_index": 276,
        "rt": 796,
        "correct": true,
        "response": "ArrowLeft",
        "congruent": true,
        "gazeTowards": false,
        "gazeCondition": "away",
        "faceOnLeft": false,
        "impliedDirection": 180,
        "testDirection": 180,
        "avgFps": 60,
        "minFps": 28,
        "maxFps": 1562,
        "totalFrames": 47,
        "frameRates": 60
      },
      {
        "trial_number": 35,
        "trial_index": 281,
        "rt": 1994,
        "correct": true,
        "response": "ArrowRight",
        "congruent": false,
        "gazeTowards": false,
        "gazeCondition": "away",
        "faceOnLeft": false,
        "impliedDirection": 180,
        "testDirection": 0,
        "avgFps": 60,
        "minFps": 33,
        "maxFps": 893,
        "totalFrames": 119,
        "frameRates": 60
      },
      {
        "trial_number": 36,
        "trial_index": 286,
        "rt": 1622,
        "correct": true,
        "response": "ArrowRight",
        "congruent": true,
        "gazeTowards": true,
        "gazeCondition": "towards",
        "faceOnLeft": true,
        "impliedDirection": 0,
        "testDirection": 0,
        "avgFps": 60,
        "minFps": 46,
        "maxFps": 1852,
        "totalFrames": 98,
        "frameRates": 60
      },
      {
        "trial_number": 37,
        "trial_index": 291,
        "rt": null,
        "correct": false,
        "response": null,
        "congruent": true,
        "gazeTowards": true,
        "gazeCondition": "towards",
        "faceOnLeft": true,
        "impliedDirection": 0,
        "testDirection": 0,
        "avgFps": 60,
        "minFps": 40,
        "maxFps": 2083,
        "totalFrames": 121,
        "frameRates": 60
      },
      {
        "trial_number": 38,
        "trial_index": 296,
        "rt": 796,
        "correct": true,
        "response": "ArrowLeft",
        "congruent": true,
        "gazeTowards": true,
        "gazeCondition": "towards",
        "faceOnLeft": false,
        "impliedDirection": 180,
        "testDirection": 180,
        "avgFps": 60,
        "minFps": 29,
        "maxFps": 2273,
        "totalFrames": 47,
        "frameRates": 60
      },
      {
        "trial_number": 39,
        "trial_index": 301,
        "rt": 1046,
        "correct": true,
        "response": "ArrowLeft",
        "congruent": false,
        "gazeTowards": false,
        "gazeCondition": "away",
        "faceOnLeft": true,
        "impliedDirection": 0,
        "testDirection": 180,
        "avgFps": 60,
        "minFps": 27,
        "maxFps": 2000,
        "totalFrames": 62,
        "frameRates": 60
      },
      {
        "trial_number": 40,
        "trial_index": 306,
        "rt": 737,
        "correct": true,
        "response": "ArrowLeft",
        "congruent": false,
        "gazeTowards": true,
        "gazeCondition": "towards",
        "faceOnLeft": true,
        "impliedDirection": 0,
        "testDirection": 180,
        "avgFps": 60,
        "minFps": 29,
        "maxFps": 1471,
        "totalFrames": 44,
        "frameRates": 60
      },
      {
        "trial_number": 41,
        "trial_index": 311,
        "rt": 815,
        "correct": true,
        "response": "ArrowLeft",
        "congruent": true,
        "gazeTowards": false,
        "gazeCondition": "away",
        "faceOnLeft": false,
        "impliedDirection": 180,
        "testDirection": 180,
        "avgFps": 61,
        "minFps": 45,
        "maxFps": 1852,
        "totalFrames": 49,
        "frameRates": 61
      },
      {
        "trial_number": 42,
        "trial_index": 316,
        "rt": 1275,
        "correct": true,
        "response": "ArrowLeft",
        "congruent": false,
        "gazeTowards": false,
        "gazeCondition": "away",
        "faceOnLeft": true,
        "impliedDirection": 0,
        "testDirection": 180,
        "avgFps": 60,
        "minFps": 30,
        "maxFps": 1724,
        "totalFrames": 76,
        "frameRates": 60
      },
      {
        "trial_number": 43,
        "trial_index": 321,
        "rt": 1427,
        "correct": true,
        "response": "ArrowRight",
        "congruent": false,
        "gazeTowards": false,
        "gazeCondition": "away",
        "faceOnLeft": false,
        "impliedDirection": 180,
        "testDirection": 0,
        "avgFps": 59,
        "minFps": 15,
        "maxFps": 2941,
        "totalFrames": 83,
        "frameRates": 59
      },
      {
        "trial_number": 44,
        "trial_index": 326,
        "rt": 1720,
        "correct": true,
        "response": "ArrowRight",
        "congruent": true,
        "gazeTowards": false,
        "gazeCondition": "away",
        "faceOnLeft": true,
        "impliedDirection": 0,
        "testDirection": 0,
        "avgFps": 60,
        "minFps": 46,
        "maxFps": 2000,
        "totalFrames": 103,
        "frameRates": 60
      },
      {
        "trial_number": 45,
        "trial_index": 331,
        "rt": 1402,
        "correct": true,
        "response": "ArrowRight",
        "congruent": true,
        "gazeTowards": false,
        "gazeCondition": "away",
        "faceOnLeft": true,
        "impliedDirection": 0,
        "testDirection": 0,
        "avgFps": 60,
        "minFps": 22,
        "maxFps": 2000,
        "totalFrames": 83,
        "frameRates": 60
      },
      {
        "trial_number": 46,
        "trial_index": 336,
        "rt": 883,
        "correct": true,
        "response": "ArrowLeft",
        "congruent": true,
        "gazeTowards": false,
        "gazeCondition": "away",
        "faceOnLeft": false,
        "impliedDirection": 180,
        "testDirection": 180,
        "avgFps": 60,
        "minFps": 34,
        "maxFps": 1923,
        "totalFrames": 53,
        "frameRates": 60
      },
      {
        "trial_number": 47,
        "trial_index": 341,
        "rt": 1479,
        "correct": true,
        "response": "ArrowRight",
        "congruent": false,
        "gazeTowards": true,
        "gazeCondition": "towards",
        "faceOnLeft": false,
        "impliedDirection": 180,
        "testDirection": 0,
        "avgFps": 60,
        "minFps": 28,
        "maxFps": 1724,
        "totalFrames": 88,
        "frameRates": 60
      },
      {
        "trial_number": 48,
        "trial_index": 346,
        "rt": 733,
        "correct": true,
        "response": "ArrowLeft",
        "congruent": true,
        "gazeTowards": true,
        "gazeCondition": "towards",
        "faceOnLeft": false,
        "impliedDirection": 180,
        "testDirection": 180,
        "avgFps": 60,
        "minFps": 29,
        "maxFps": 1923,
        "totalFrames": 43,
        "frameRates": 60
      },
      {
        "trial_number": 49,
        "trial_index": 351,
        "rt": 1397,
        "correct": true,
        "response": "ArrowRight",
        "congruent": false,
        "gazeTowards": true,
        "gazeCondition": "towards",
        "faceOnLeft": false,
        "impliedDirection": 180,
        "testDirection": 0,
        "avgFps": 61,
        "minFps": 45,
        "maxFps": 2174,
        "totalFrames": 84,
        "frameRates": 61
      },
      {
        "trial_number": 50,
        "trial_index": 356,
        "rt": 1499,
        "correct": true,
        "response": "ArrowRight",
        "congruent": true,
        "gazeTowards": false,
        "gazeCondition": "away",
        "faceOnLeft": true,
        "impliedDirection": 0,
        "testDirection": 0,
        "avgFps": 60,
        "minFps": 27,
        "maxFps": 2083,
        "totalFrames": 89,
        "frameRates": 60
      },
      {
        "trial_number": 51,
        "trial_index": 361,
        "rt": 820,
        "correct": true,
        "response": "ArrowLeft",
        "congruent": false,
        "gazeTowards": true,
        "gazeCondition": "towards",
        "faceOnLeft": true,
        "impliedDirection": 0,
        "testDirection": 180,
        "avgFps": 61,
        "minFps": 42,
        "maxFps": 1852,
        "totalFrames": 49,
        "frameRates": 61
      },
      {
        "trial_number": 52,
        "trial_index": 369,
        "rt": 1038,
        "correct": true,
        "response": "ArrowRight",
        "congruent": true,
        "gazeTowards": false,
        "gazeCondition": "away",
        "faceOnLeft": true,
        "impliedDirection": 0,
        "testDirection": 0,
        "avgFps": 60,
        "minFps": 34,
        "maxFps": 2083,
        "totalFrames": 62,
        "frameRates": 60
      },
      {
        "trial_number": 53,
        "trial_index": 374,
        "rt": 1179,
        "correct": true,
        "response": "ArrowRight",
        "congruent": false,
        "gazeTowards": false,
        "gazeCondition": "away",
        "faceOnLeft": false,
        "impliedDirection": 180,
        "testDirection": 0,
        "avgFps": 60,
        "minFps": 28,
        "maxFps": 5000,
        "totalFrames": 70,
        "frameRates": 60
      },
      {
        "trial_number": 54,
        "trial_index": 379,
        "rt": 744,
        "correct": true,
        "response": "ArrowLeft",
        "congruent": false,
        "gazeTowards": false,
        "gazeCondition": "away",
        "faceOnLeft": true,
        "impliedDirection": 0,
        "testDirection": 180,
        "avgFps": 59,
        "minFps": 30,
        "maxFps": 2500,
        "totalFrames": 44,
        "frameRates": 59
      },
      {
        "trial_number": 55,
        "trial_index": 384,
        "rt": 707,
        "correct": true,
        "response": "ArrowRight",
        "congruent": true,
        "gazeTowards": true,
        "gazeCondition": "towards",
        "faceOnLeft": true,
        "impliedDirection": 0,
        "testDirection": 0,
        "avgFps": 60,
        "minFps": 29,
        "maxFps": 2174,
        "totalFrames": 42,
        "frameRates": 60
      },
      {
        "trial_number": 56,
        "trial_index": 389,
        "rt": 792,
        "correct": true,
        "response": "ArrowLeft",
        "congruent": true,
        "gazeTowards": true,
        "gazeCondition": "towards",
        "faceOnLeft": false,
        "impliedDirection": 180,
        "testDirection": 180,
        "avgFps": 60,
        "minFps": 32,
        "maxFps": 2941,
        "totalFrames": 47,
        "frameRates": 60
      },
      {
        "trial_number": 57,
        "trial_index": 394,
        "rt": 901,
        "correct": true,
        "response": "ArrowRight",
        "congruent": true,
        "gazeTowards": false,
        "gazeCondition": "away",
        "faceOnLeft": true,
        "impliedDirection": 0,
        "testDirection": 0,
        "avgFps": 61,
        "minFps": 39,
        "maxFps": 2000,
        "totalFrames": 54,
        "frameRates": 61
      },
      {
        "trial_number": 58,
        "trial_index": 399,
        "rt": 1637,
        "correct": true,
        "response": "ArrowRight",
        "congruent": true,
        "gazeTowards": false,
        "gazeCondition": "away",
        "faceOnLeft": true,
        "impliedDirection": 0,
        "testDirection": 0,
        "avgFps": 60,
        "minFps": 37,
        "maxFps": 1316,
        "totalFrames": 98,
        "frameRates": 60
      },
      {
        "trial_number": 59,
        "trial_index": 404,
        "rt": 1617,
        "correct": true,
        "response": "ArrowRight",
        "congruent": true,
        "gazeTowards": false,
        "gazeCondition": "away",
        "faceOnLeft": true,
        "impliedDirection": 0,
        "testDirection": 0,
        "avgFps": 60,
        "minFps": 30,
        "maxFps": 2174,
        "totalFrames": 97,
        "frameRates": 60
      },
      {
        "trial_number": 60,
        "trial_index": 410,
        "rt": 1858,
        "correct": true,
        "response": "ArrowRight",
        "congruent": false,
        "gazeTowards": false,
        "gazeCondition": "away",
        "faceOnLeft": false,
        "impliedDirection": 180,
        "testDirection": 0,
        "avgFps": 60,
        "minFps": 36,
        "maxFps": 2083,
        "totalFrames": 111,
        "frameRates": 60
      },
      {
        "trial_number": 61,
        "trial_index": 415,
        "rt": 1395,
        "correct": true,
        "response": "ArrowRight",
        "congruent": false,
        "gazeTowards": true,
        "gazeCondition": "towards",
        "faceOnLeft": false,
        "impliedDirection": 180,
        "testDirection": 0,
        "avgFps": 60,
        "minFps": 35,
        "maxFps": 2083,
        "totalFrames": 83,
        "frameRates": 60
      },
      {
        "trial_number": 62,
        "trial_index": 426,
        "rt": 687,
        "correct": true,
        "response": "ArrowLeft",
        "congruent": false,
        "gazeTowards": false,
        "gazeCondition": "away",
        "faceOnLeft": true,
        "impliedDirection": 0,
        "testDirection": 180,
        "avgFps": 61,
        "minFps": 37,
        "maxFps": 2083,
        "totalFrames": 41,
        "frameRates": 61
      },
      {
        "trial_number": 63,
        "trial_index": 431,
        "rt": 1031,
        "correct": true,
        "response": "ArrowLeft",
        "congruent": false,
        "gazeTowards": true,
        "gazeCondition": "towards",
        "faceOnLeft": true,
        "impliedDirection": 0,
        "testDirection": 180,
        "avgFps": 61,
        "minFps": 45,
        "maxFps": 5000,
        "totalFrames": 62,
        "frameRates": 61
      },
      {
        "trial_number": 64,
        "trial_index": 436,
        "rt": 1173,
        "correct": true,
        "response": "ArrowLeft",
        "congruent": false,
        "gazeTowards": true,
        "gazeCondition": "towards",
        "faceOnLeft": true,
        "impliedDirection": 0,
        "testDirection": 180,
        "avgFps": 60,
        "minFps": 25,
        "maxFps": 2083,
        "totalFrames": 70,
        "frameRates": 60
      },
      {
        "trial_number": 65,
        "trial_index": 441,
        "rt": 871,
        "correct": true,
        "response": "ArrowRight",
        "congruent": false,
        "gazeTowards": true,
        "gazeCondition": "towards",
        "faceOnLeft": false,
        "impliedDirection": 180,
        "testDirection": 0,
        "avgFps": 60,
        "minFps": 37,
        "maxFps": 2273,
        "totalFrames": 52,
        "frameRates": 60
      },
      {
        "trial_number": 66,
        "trial_index": 446,
        "rt": 828,
        "correct": true,
        "response": "ArrowRight",
        "congruent": false,
        "gazeTowards": false,
        "gazeCondition": "away",
        "faceOnLeft": false,
        "impliedDirection": 180,
        "testDirection": 0,
        "avgFps": 60,
        "minFps": 34,
        "maxFps": 2083,
        "totalFrames": 49,
        "frameRates": 60
      },
      {
        "trial_number": 67,
        "trial_index": 451,
        "rt": 869,
        "correct": true,
        "response": "ArrowRight",
        "congruent": false,
        "gazeTowards": true,
        "gazeCondition": "towards",
        "faceOnLeft": false,
        "impliedDirection": 180,
        "testDirection": 0,
        "avgFps": 60,
        "minFps": 27,
        "maxFps": 1667,
        "totalFrames": 51,
        "frameRates": 60
      },
      {
        "trial_number": 68,
        "trial_index": 456,
        "rt": 853,
        "correct": true,
        "response": "ArrowRight",
        "congruent": true,
        "gazeTowards": false,
        "gazeCondition": "away",
        "faceOnLeft": true,
        "impliedDirection": 0,
        "testDirection": 0,
        "avgFps": 61,
        "minFps": 38,
        "maxFps": 2500,
        "totalFrames": 51,
        "frameRates": 61
      },
      {
        "trial_number": 69,
        "trial_index": 461,
        "rt": 1091,
        "correct": true,
        "response": "ArrowRight",
        "congruent": true,
        "gazeTowards": false,
        "gazeCondition": "away",
        "faceOnLeft": true,
        "impliedDirection": 0,
        "testDirection": 0,
        "avgFps": 56,
        "minFps": 9,
        "maxFps": 2273,
        "totalFrames": 60,
        "frameRates": 56
      },
      {
        "trial_number": 70,
        "trial_index": 466,
        "rt": 994,
        "correct": true,
        "response": "ArrowLeft",
        "congruent": true,
        "gazeTowards": false,
        "gazeCondition": "away",
        "faceOnLeft": false,
        "impliedDirection": 180,
        "testDirection": 180,
        "avgFps": 60,
        "minFps": 28,
        "maxFps": 2273,
        "totalFrames": 59,
        "frameRates": 60
      },
      {
        "trial_number": 71,
        "trial_index": 471,
        "rt": 900,
        "correct": true,
        "response": "ArrowLeft",
        "congruent": false,
        "gazeTowards": false,
        "gazeCondition": "away",
        "faceOnLeft": true,
        "impliedDirection": 0,
        "testDirection": 180,
        "avgFps": 61,
        "minFps": 37,
        "maxFps": 2273,
        "totalFrames": 54,
        "frameRates": 61
      },
      {
        "trial_number": 72,
        "trial_index": 476,
        "rt": 816,
        "correct": true,
        "response": "ArrowRight",
        "congruent": true,
        "gazeTowards": true,
        "gazeCondition": "towards",
        "faceOnLeft": true,
        "impliedDirection": 0,
        "testDirection": 0,
        "avgFps": 60,
        "minFps": 29,
        "maxFps": 2381,
        "totalFrames": 49,
        "frameRates": 60
      },
      {
        "trial_number": 73,
        "trial_index": 481,
        "rt": 1517,
        "correct": true,
        "response": "ArrowRight",
        "congruent": false,
        "gazeTowards": false,
        "gazeCondition": "away",
        "faceOnLeft": false,
        "impliedDirection": 180,
        "testDirection": 0,
        "avgFps": 60,
        "minFps": 33,
        "maxFps": 2000,
        "totalFrames": 91,
        "frameRates": 60
      },
      {
        "trial_number": 74,
        "trial_index": 486,
        "rt": 1449,
        "correct": true,
        "response": "ArrowRight",
        "congruent": true,
        "gazeTowards": true,
        "gazeCondition": "towards",
        "faceOnLeft": true,
        "impliedDirection": 0,
        "testDirection": 0,
        "avgFps": 60,
        "minFps": 31,
        "maxFps": 248,
        "totalFrames": 86,
        "frameRates": 60
      },
      {
        "trial_number": 75,
        "trial_index": 491,
        "rt": 1154,
        "correct": true,
        "response": "ArrowRight",
        "congruent": true,
        "gazeTowards": false,
        "gazeCondition": "away",
        "faceOnLeft": true,
        "impliedDirection": 0,
        "testDirection": 0,
        "avgFps": 61,
        "minFps": 42,
        "maxFps": 2778,
        "totalFrames": 69,
        "frameRates": 61
      },
      {
        "trial_number": 76,
        "trial_index": 496,
        "rt": 1352,
        "correct": true,
        "response": "ArrowRight",
        "congruent": false,
        "gazeTowards": true,
        "gazeCondition": "towards",
        "faceOnLeft": false,
        "impliedDirection": 180,
        "testDirection": 0,
        "avgFps": 61,
        "minFps": 47,
        "maxFps": 625,
        "totalFrames": 81,
        "frameRates": 61
      },
      {
        "trial_number": 77,
        "trial_index": 501,
        "rt": null,
        "correct": false,
        "response": null,
        "congruent": false,
        "gazeTowards": true,
        "gazeCondition": "towards",
        "faceOnLeft": false,
        "impliedDirection": 180,
        "testDirection": 0,
        "avgFps": 60,
        "minFps": 27,
        "maxFps": 2174,
        "totalFrames": 120,
        "frameRates": 60
      },
      {
        "trial_number": 78,
        "trial_index": 506,
        "rt": 853,
        "correct": true,
        "response": "ArrowLeft",
        "congruent": true,
        "gazeTowards": true,
        "gazeCondition": "towards",
        "faceOnLeft": false,
        "impliedDirection": 180,
        "testDirection": 180,
        "avgFps": 60,
        "minFps": 37,
        "maxFps": 1923,
        "totalFrames": 51,
        "frameRates": 60
      },
      {
        "trial_number": 79,
        "trial_index": 514,
        "rt": 831,
        "correct": true,
        "response": "ArrowRight",
        "congruent": false,
        "gazeTowards": true,
        "gazeCondition": "towards",
        "faceOnLeft": false,
        "impliedDirection": 180,
        "testDirection": 0,
        "avgFps": 61,
        "minFps": 47,
        "maxFps": 3333,
        "totalFrames": 50,
        "frameRates": 61
      },
      {
        "trial_number": 80,
        "trial_index": 519,
        "rt": 724,
        "correct": true,
        "response": "ArrowLeft",
        "congruent": false,
        "gazeTowards": true,
        "gazeCondition": "towards",
        "faceOnLeft": true,
        "impliedDirection": 0,
        "testDirection": 180,
        "avgFps": 61,
        "minFps": 45,
        "maxFps": 1724,
        "totalFrames": 44,
        "frameRates": 61
      },
      {
        "trial_number": 81,
        "trial_index": 524,
        "rt": 777,
        "correct": true,
        "response": "ArrowLeft",
        "congruent": true,
        "gazeTowards": true,
        "gazeCondition": "towards",
        "faceOnLeft": false,
        "impliedDirection": 180,
        "testDirection": 180,
        "avgFps": 60,
        "minFps": 30,
        "maxFps": 1724,
        "totalFrames": 46,
        "frameRates": 60
      },
      {
        "trial_number": 82,
        "trial_index": 529,
        "rt": 747,
        "correct": true,
        "response": "ArrowRight",
        "congruent": false,
        "gazeTowards": false,
        "gazeCondition": "away",
        "faceOnLeft": false,
        "impliedDirection": 180,
        "testDirection": 0,
        "avgFps": 60,
        "minFps": 28,
        "maxFps": 3125,
        "totalFrames": 44,
        "frameRates": 60
      },
      {
        "trial_number": 83,
        "trial_index": 534,
        "rt": 721,
        "correct": true,
        "response": "ArrowRight",
        "congruent": false,
        "gazeTowards": true,
        "gazeCondition": "towards",
        "faceOnLeft": false,
        "impliedDirection": 180,
        "testDirection": 0,
        "avgFps": 60,
        "minFps": 34,
        "maxFps": 2000,
        "totalFrames": 43,
        "frameRates": 60
      },
      {
        "trial_number": 84,
        "trial_index": 539,
        "rt": 1803,
        "correct": true,
        "response": "ArrowRight",
        "congruent": false,
        "gazeTowards": true,
        "gazeCondition": "towards",
        "faceOnLeft": false,
        "impliedDirection": 180,
        "testDirection": 0,
        "avgFps": 60,
        "minFps": 37,
        "maxFps": 1724,
        "totalFrames": 108,
        "frameRates": 60
      },
      {
        "trial_number": 85,
        "trial_index": 547,
        "rt": 748,
        "correct": true,
        "response": "ArrowLeft",
        "congruent": false,
        "gazeTowards": true,
        "gazeCondition": "towards",
        "faceOnLeft": true,
        "impliedDirection": 0,
        "testDirection": 180,
        "avgFps": 60,
        "minFps": 28,
        "maxFps": 1923,
        "totalFrames": 44,
        "frameRates": 60
      },
      {
        "trial_number": 86,
        "trial_index": 552,
        "rt": 856,
        "correct": true,
        "response": "ArrowRight",
        "congruent": true,
        "gazeTowards": true,
        "gazeCondition": "towards",
        "faceOnLeft": true,
        "impliedDirection": 0,
        "testDirection": 0,
        "avgFps": 60,
        "minFps": 34,
        "maxFps": 2273,
        "totalFrames": 51,
        "frameRates": 60
      },
      {
        "trial_number": 87,
        "trial_index": 557,
        "rt": 870,
        "correct": true,
        "response": "ArrowRight",
        "congruent": true,
        "gazeTowards": false,
        "gazeCondition": "away",
        "faceOnLeft": true,
        "impliedDirection": 0,
        "testDirection": 0,
        "avgFps": 60,
        "minFps": 35,
        "maxFps": 2273,
        "totalFrames": 52,
        "frameRates": 60
      },
      {
        "trial_number": 88,
        "trial_index": 562,
        "rt": 803,
        "correct": true,
        "response": "ArrowLeft",
        "congruent": false,
        "gazeTowards": false,
        "gazeCondition": "away",
        "faceOnLeft": true,
        "impliedDirection": 0,
        "testDirection": 180,
        "avgFps": 61,
        "minFps": 43,
        "maxFps": 485,
        "totalFrames": 48,
        "frameRates": 61
      },
      {
        "trial_number": 89,
        "trial_index": 568,
        "rt": 743,
        "correct": true,
        "response": "ArrowRight",
        "congruent": false,
        "gazeTowards": false,
        "gazeCondition": "away",
        "faceOnLeft": false,
        "impliedDirection": 180,
        "testDirection": 0,
        "avgFps": 60,
        "minFps": 31,
        "maxFps": 2000,
        "totalFrames": 44,
        "frameRates": 60
      },
      {
        "trial_number": 90,
        "trial_index": 573,
        "rt": 746,
        "correct": true,
        "response": "ArrowRight",
        "congruent": false,
        "gazeTowards": true,
        "gazeCondition": "towards",
        "faceOnLeft": false,
        "impliedDirection": 180,
        "testDirection": 0,
        "avgFps": 61,
        "minFps": 43,
        "maxFps": 2174,
        "totalFrames": 45,
        "frameRates": 61
      },
      {
        "trial_number": 91,
        "trial_index": 578,
        "rt": 781,
        "correct": true,
        "response": "ArrowRight",
        "congruent": false,
        "gazeTowards": false,
        "gazeCondition": "away",
        "faceOnLeft": false,
        "impliedDirection": 180,
        "testDirection": 0,
        "avgFps": 60,
        "minFps": 32,
        "maxFps": 2083,
        "totalFrames": 47,
        "frameRates": 60
      },
      {
        "trial_number": 92,
        "trial_index": 583,
        "rt": 730,
        "correct": true,
        "response": "ArrowRight",
        "congruent": false,
        "gazeTowards": true,
        "gazeCondition": "towards",
        "faceOnLeft": false,
        "impliedDirection": 180,
        "testDirection": 0,
        "avgFps": 60,
        "minFps": 28,
        "maxFps": 2381,
        "totalFrames": 43,
        "frameRates": 60
      },
      {
        "trial_number": 93,
        "trial_index": 588,
        "rt": 748,
        "correct": true,
        "response": "ArrowLeft",
        "congruent": true,
        "gazeTowards": true,
        "gazeCondition": "towards",
        "faceOnLeft": false,
        "impliedDirection": 180,
        "testDirection": 180,
        "avgFps": 61,
        "minFps": 46,
        "maxFps": 2174,
        "totalFrames": 45,
        "frameRates": 61
      },
      {
        "trial_number": 94,
        "trial_index": 593,
        "rt": 669,
        "correct": true,
        "response": "ArrowRight",
        "congruent": false,
        "gazeTowards": true,
        "gazeCondition": "towards",
        "faceOnLeft": false,
        "impliedDirection": 180,
        "testDirection": 0,
        "avgFps": 61,
        "minFps": 42,
        "maxFps": 3333,
        "totalFrames": 40,
        "frameRates": 61
      },
      {
        "trial_number": 95,
        "trial_index": 598,
        "rt": 772,
        "correct": true,
        "response": "ArrowRight",
        "congruent": false,
        "gazeTowards": false,
        "gazeCondition": "away",
        "faceOnLeft": false,
        "impliedDirection": 180,
        "testDirection": 0,
        "avgFps": 61,
        "minFps": 47,
        "maxFps": 2083,
        "totalFrames": 47,
        "frameRates": 61
      },
      {
        "trial_number": 96,
        "trial_index": 603,
        "rt": 701,
        "correct": true,
        "response": "ArrowLeft",
        "congruent": false,
        "gazeTowards": true,
        "gazeCondition": "towards",
        "faceOnLeft": true,
        "impliedDirection": 0,
        "testDirection": 180,
        "avgFps": 60,
        "minFps": 31,
        "maxFps": 758,
        "totalFrames": 42,
        "frameRates": 60
      },
      {
        "trial_number": 97,
        "trial_index": 608,
        "rt": 714,
        "correct": true,
        "response": "ArrowLeft",
        "congruent": false,
        "gazeTowards": true,
        "gazeCondition": "towards",
        "faceOnLeft": true,
        "impliedDirection": 0,
        "testDirection": 180,
        "avgFps": 58,
        "minFps": 19,
        "maxFps": 2174,
        "totalFrames": 41,
        "frameRates": 58
      },
      {
        "trial_number": 98,
        "trial_index": 613,
        "rt": 978,
        "correct": true,
        "response": "ArrowRight",
        "congruent": true,
        "gazeTowards": false,
        "gazeCondition": "away",
        "faceOnLeft": true,
        "impliedDirection": 0,
        "testDirection": 0,
        "avgFps": 60,
        "minFps": 28,
        "maxFps": 2273,
        "totalFrames": 58,
        "frameRates": 60
      },
      {
        "trial_number": 99,
        "trial_index": 618,
        "rt": 668,
        "correct": true,
        "response": "ArrowLeft",
        "congruent": true,
        "gazeTowards": true,
        "gazeCondition": "towards",
        "faceOnLeft": false,
        "impliedDirection": 180,
        "testDirection": 180,
        "avgFps": 60,
        "minFps": 30,
        "maxFps": 2273,
        "totalFrames": 40,
        "frameRates": 60
      },
      {
        "trial_number": 100,
        "trial_index": 623,
        "rt": 685,
        "correct": true,
        "response": "ArrowLeft",
        "congruent": true,
        "gazeTowards": false,
        "gazeCondition": "away",
        "faceOnLeft": false,
        "impliedDirection": 180,
        "testDirection": 180,
        "avgFps": 60,
        "minFps": 35,
        "maxFps": 3571,
        "totalFrames": 41,
        "frameRates": 60
      },
      {
        "trial_number": 101,
        "trial_index": 628,
        "rt": 690,
        "correct": true,
        "response": "ArrowRight",
        "congruent": true,
        "gazeTowards": true,
        "gazeCondition": "towards",
        "faceOnLeft": true,
        "impliedDirection": 0,
        "testDirection": 0,
        "avgFps": 60,
        "minFps": 30,
        "maxFps": 2000,
        "totalFrames": 41,
        "frameRates": 60
      },
      {
        "trial_number": 102,
        "trial_index": 636,
        "rt": 697,
        "correct": true,
        "response": "ArrowRight",
        "congruent": true,
        "gazeTowards": false,
        "gazeCondition": "away",
        "faceOnLeft": true,
        "impliedDirection": 0,
        "testDirection": 0,
        "avgFps": 61,
        "minFps": 40,
        "maxFps": 2273,
        "totalFrames": 42,
        "frameRates": 61
      },
      {
        "trial_number": 103,
        "trial_index": 641,
        "rt": 635,
        "correct": true,
        "response": "ArrowLeft",
        "congruent": true,
        "gazeTowards": true,
        "gazeCondition": "towards",
        "faceOnLeft": false,
        "impliedDirection": 180,
        "testDirection": 180,
        "avgFps": 61,
        "minFps": 41,
        "maxFps": 2174,
        "totalFrames": 38,
        "frameRates": 61
      },
      {
        "trial_number": 104,
        "trial_index": 646,
        "rt": 679,
        "correct": true,
        "response": "ArrowRight",
        "congruent": false,
        "gazeTowards": true,
        "gazeCondition": "towards",
        "faceOnLeft": false,
        "impliedDirection": 180,
        "testDirection": 0,
        "avgFps": 60,
        "minFps": 28,
        "maxFps": 2381,
        "totalFrames": 40,
        "frameRates": 60
      },
      {
        "trial_number": 105,
        "trial_index": 651,
        "rt": 789,
        "correct": true,
        "response": "ArrowLeft",
        "congruent": true,
        "gazeTowards": false,
        "gazeCondition": "away",
        "faceOnLeft": false,
        "impliedDirection": 180,
        "testDirection": 180,
        "avgFps": 60,
        "minFps": 35,
        "maxFps": 2083,
        "totalFrames": 47,
        "frameRates": 60
      },
      {
        "trial_number": 106,
        "trial_index": 656,
        "rt": 840,
        "correct": true,
        "response": "ArrowRight",
        "congruent": true,
        "gazeTowards": true,
        "gazeCondition": "towards",
        "faceOnLeft": true,
        "impliedDirection": 0,
        "testDirection": 0,
        "avgFps": 61,
        "minFps": 38,
        "maxFps": 2083,
        "totalFrames": 50,
        "frameRates": 61
      },
      {
        "trial_number": 107,
        "trial_index": 661,
        "rt": 628,
        "correct": true,
        "response": "ArrowLeft",
        "congruent": true,
        "gazeTowards": false,
        "gazeCondition": "away",
        "faceOnLeft": false,
        "impliedDirection": 180,
        "testDirection": 180,
        "avgFps": 60,
        "minFps": 28,
        "maxFps": 2083,
        "totalFrames": 37,
        "frameRates": 60
      },
      {
        "trial_number": 108,
        "trial_index": 666,
        "rt": 678,
        "correct": true,
        "response": "ArrowLeft",
        "congruent": true,
        "gazeTowards": true,
        "gazeCondition": "towards",
        "faceOnLeft": false,
        "impliedDirection": 180,
        "testDirection": 180,
        "avgFps": 60,
        "minFps": 27,
        "maxFps": 2083,
        "totalFrames": 40,
        "frameRates": 60
      },
      {
        "trial_number": 109,
        "trial_index": 671,
        "rt": 857,
        "correct": true,
        "response": "ArrowLeft",
        "congruent": false,
        "gazeTowards": true,
        "gazeCondition": "towards",
        "faceOnLeft": true,
        "impliedDirection": 0,
        "testDirection": 180,
        "avgFps": 60,
        "minFps": 32,
        "maxFps": 1724,
        "totalFrames": 51,
        "frameRates": 60
      },
      {
        "trial_number": 110,
        "trial_index": 676,
        "rt": 723,
        "correct": true,
        "response": "ArrowRight",
        "congruent": true,
        "gazeTowards": true,
        "gazeCondition": "towards",
        "faceOnLeft": true,
        "impliedDirection": 0,
        "testDirection": 0,
        "avgFps": 52,
        "minFps": 10,
        "maxFps": 63,
        "totalFrames": 37,
        "frameRates": 52
      },
      {
        "trial_number": 111,
        "trial_index": 681,
        "rt": 728,
        "correct": true,
        "response": "ArrowRight",
        "congruent": true,
        "gazeTowards": false,
        "gazeCondition": "away",
        "faceOnLeft": true,
        "impliedDirection": 0,
        "testDirection": 0,
        "avgFps": 60,
        "minFps": 30,
        "maxFps": 2174,
        "totalFrames": 43,
        "frameRates": 60
      },
      {
        "trial_number": 112,
        "trial_index": 686,
        "rt": 1064,
        "correct": true,
        "response": "ArrowRight",
        "congruent": true,
        "gazeTowards": false,
        "gazeCondition": "away",
        "faceOnLeft": true,
        "impliedDirection": 0,
        "testDirection": 0,
        "avgFps": 60,
        "minFps": 31,
        "maxFps": 6250,
        "totalFrames": 63,
        "frameRates": 60
      },
      {
        "trial_number": 113,
        "trial_index": 691,
        "rt": 1658,
        "correct": true,
        "response": "ArrowRight",
        "congruent": true,
        "gazeTowards": true,
        "gazeCondition": "towards",
        "faceOnLeft": true,
        "impliedDirection": 0,
        "testDirection": 0,
        "avgFps": 60,
        "minFps": 30,
        "maxFps": 2381,
        "totalFrames": 99,
        "frameRates": 60
      },
      {
        "trial_number": 114,
        "trial_index": 696,
        "rt": 707,
        "correct": true,
        "response": "ArrowLeft",
        "congruent": true,
        "gazeTowards": true,
        "gazeCondition": "towards",
        "faceOnLeft": false,
        "impliedDirection": 180,
        "testDirection": 180,
        "avgFps": 60,
        "minFps": 29,
        "maxFps": 262,
        "totalFrames": 42,
        "frameRates": 60
      },
      {
        "trial_number": 115,
        "trial_index": 701,
        "rt": 863,
        "correct": true,
        "response": "ArrowLeft",
        "congruent": false,
        "gazeTowards": true,
        "gazeCondition": "towards",
        "faceOnLeft": true,
        "impliedDirection": 0,
        "testDirection": 180,
        "avgFps": 61,
        "minFps": 38,
        "maxFps": 1852,
        "totalFrames": 52,
        "frameRates": 61
      },
      {
        "trial_number": 116,
        "trial_index": 706,
        "rt": 810,
        "correct": true,
        "response": "ArrowRight",
        "congruent": true,
        "gazeTowards": false,
        "gazeCondition": "away",
        "faceOnLeft": true,
        "impliedDirection": 0,
        "testDirection": 0,
        "avgFps": 60,
        "minFps": 29,
        "maxFps": 1786,
        "totalFrames": 48,
        "frameRates": 60
      },
      {
        "trial_number": 117,
        "trial_index": 711,
        "rt": 783,
        "correct": true,
        "response": "ArrowLeft",
        "congruent": true,
        "gazeTowards": true,
        "gazeCondition": "towards",
        "faceOnLeft": false,
        "impliedDirection": 180,
        "testDirection": 180,
        "avgFps": 61,
        "minFps": 37,
        "maxFps": 1852,
        "totalFrames": 47,
        "frameRates": 61
      },
      {
        "trial_number": 118,
        "trial_index": 716,
        "rt": 878,
        "correct": true,
        "response": "ArrowRight",
        "congruent": false,
        "gazeTowards": false,
        "gazeCondition": "away",
        "faceOnLeft": false,
        "impliedDirection": 180,
        "testDirection": 0,
        "avgFps": 60,
        "minFps": 30,
        "maxFps": 2381,
        "totalFrames": 52,
        "frameRates": 60
      },
      {
        "trial_number": 119,
        "trial_index": 721,
        "rt": 751,
        "correct": true,
        "response": "ArrowLeft",
        "congruent": false,
        "gazeTowards": false,
        "gazeCondition": "away",
        "faceOnLeft": true,
        "impliedDirection": 0,
        "testDirection": 180,
        "avgFps": 61,
        "minFps": 42,
        "maxFps": 1562,
        "totalFrames": 45,
        "frameRates": 61
      }
    ],
    "catch": {
      "total": 12,
      "correct": 12,
      "accuracy": 100,
      "meanRT": 643,
      "trials": [
        {
          "trial_number": 0,
          "trial_index": 124,
          "rt": 740,
          "correct": true,
          "colorTarget": "face",
          "gazeTowards": true,
          "gazeCondition": "towards",
          "faceOnLeft": true
        },
        {
          "trial_number": 1,
          "trial_index": 182,
          "rt": 621,
          "correct": true,
          "colorTarget": "face",
          "gazeTowards": true,
          "gazeCondition": "towards",
          "faceOnLeft": true
        },
        {
          "trial_number": 2,
          "trial_index": 195,
          "rt": 630,
          "correct": true,
          "colorTarget": "tree",
          "gazeTowards": true,
          "gazeCondition": "towards",
          "faceOnLeft": true
        },
        {
          "trial_number": 3,
          "trial_index": 203,
          "rt": 544,
          "correct": true,
          "colorTarget": "tree",
          "gazeTowards": false,
          "gazeCondition": "away",
          "faceOnLeft": false
        },
        {
          "trial_number": 4,
          "trial_index": 267,
          "rt": 595,
          "correct": true,
          "colorTarget": "tree",
          "gazeTowards": false,
          "gazeCondition": "away",
          "faceOnLeft": false
        },
        {
          "trial_number": 5,
          "trial_index": 365,
          "rt": 572,
          "correct": true,
          "colorTarget": "tree",
          "gazeTowards": true,
          "gazeCondition": "towards",
          "faceOnLeft": true
        },
        {
          "trial_number": 6,
          "trial_index": 419,
          "rt": 589,
          "correct": true,
          "colorTarget": "face",
          "gazeTowards": false,
          "gazeCondition": "away",
          "faceOnLeft": false
        },
        {
          "trial_number": 7,
          "trial_index": 422,
          "rt": 593,
          "correct": true,
          "colorTarget": "face",
          "gazeTowards": true,
          "gazeCondition": "towards",
          "faceOnLeft": false
        },
        {
          "trial_number": 8,
          "trial_index": 510,
          "rt": 532,
          "correct": true,
          "colorTarget": "face",
          "gazeTowards": false,
          "gazeCondition": "away",
          "faceOnLeft": true
        },
        {
          "trial_number": 9,
          "trial_index": 543,
          "rt": 963,
          "correct": true,
          "colorTarget": "tree",
          "gazeTowards": true,
          "gazeCondition": "towards",
          "faceOnLeft": true
        },
        {
          "trial_number": 10,
          "trial_index": 632,
          "rt": 657,
          "correct": true,
          "colorTarget": "face",
          "gazeTowards": false,
          "gazeCondition": "away",
          "faceOnLeft": false
        },
        {
          "trial_number": 11,
          "trial_index": 725,
          "rt": 681,
          "correct": true,
          "colorTarget": "tree",
          "gazeTowards": false,
          "gazeCondition": "away",
          "faceOnLeft": true
        }
      ]
    },
    "practice": {
      "trials": [
        {
          "trial_number": 0,
          "rt": null,
          "correct": false,
          "direction": 180
        },
        {
          "trial_number": 1,
          "rt": 1319,
          "correct": false,
          "direction": 0
        },
        {
          "trial_number": 2,
          "rt": 601,
          "correct": false,
          "direction": 180
        },
        {
          "trial_number": 3,
          "rt": 797,
          "correct": true,
          "direction": 0
        },
        {
          "trial_number": 4,
          "rt": 1072,
          "correct": false,
          "direction": 0
        },
        {
          "trial_number": 5,
          "rt": 996,
          "correct": true,
          "direction": 0
        },
        {
          "trial_number": 6,
          "rt": 919,
          "correct": true,
          "direction": 0
        },
        {
          "trial_number": 7,
          "rt": 839,
          "correct": true,
          "direction": 180
        },
        {
          "trial_number": 8,
          "rt": 734,
          "correct": true,
          "direction": 0
        },
        {
          "trial_number": 9,
          "rt": 789,
          "correct": true,
          "direction": 180
        },
        {
          "trial_number": 10,
          "rt": 1004,
          "correct": true,
          "direction": 180
        },
        {
          "trial_number": 11,
          "rt": 1735,
          "correct": true,
          "direction": 0
        },
        {
          "trial_number": 12,
          "rt": 826,
          "correct": true,
          "direction": 180
        },
        {
          "trial_number": 13,
          "rt": 847,
          "correct": true,
          "direction": 0
        },
        {
          "trial_number": 14,
          "rt": 1063,
          "correct": true,
          "direction": 0
        },
        {
          "trial_number": 15,
          "rt": 1845,
          "correct": true,
          "direction": 0
        },
        {
          "trial_number": 16,
          "rt": 1756,
          "correct": false,
          "direction": 0
        },
        {
          "trial_number": 17,
          "rt": 811,
          "correct": true,
          "direction": 180
        },
        {
          "trial_number": 18,
          "rt": 1775,
          "correct": true,
          "direction": 0
        },
        {
          "trial_number": 19,
          "rt": 838,
          "correct": true,
          "direction": 180
        }
      ],
      "meanRT": 1082,
      "accuracy": 75
    }
  }
}