{
  "experiment": "rdk-bars",
  "UUID": "10c82f87-692c-46f5-9652-1db9f0cd41c2",
  "data": {
    "session": {
      "experiment_version": "1.0",
      "treatment": "bars",
      "file_version": "1.1",
      "totalTrials": 30,
      "session_group": "default",
      "browserData": {
        "os": "Windows",
        "browser": "Firefox",
        "screenResolution": "1760x990",
        "browserViewport": "1760x861",
        "extraHardware": {
          "userAgent": "Mozilla/5.0 (Windows NT 10.0; Win64; x64; rv:144.0) Gecko/20100101 Firefox/144.0",
          "platform": "Win32",
          "hardwareConcurrency": 12,
          "deviceMemory": null,
          "gpu": {
            "vendor": "Google Inc. (NVIDIA)",
            "renderer": "ANGLE (NVIDIA, NVIDIA GeForce GTX 980 Direct3D11 vs_5_0 ps_5_0), or similar"
          },
          "screen": {
            "width": 1760,
            "height": 990,
            "availWidth": 1760,
            "availHeight": 946,
            "colorDepth": 24
          },
          "viewport": {
            "width": 1760,
            "height": 861
          },
          "devicePixelRatio": 1.0909090909090908,
          "maxTouchPoints": 1,
          "pointer": {
            "coarse": false,
            "fine": true,
            "hover": true
          },
          "timeZone": "America/Denver",
          "language": "en-US",
          "languages": [
            "en-US",
            "en"
          ]
        }
      },
      "calibration": {
        "monitorWidthCm": 38,
        "viewingDistanceCm": 54,
        "pixelsPerDegree": 0
      },
      "parameters": {
        "coherence": 0.4,
        "apertureDeg": 5,
        "dotSpeedDegPerSec": 2,
        "lifetimeMs": 200,
        "fixationDurationMs": 1500,
        "adaptorDurationMs": 1500,
        "testDurationMs": 2000
      },
      "mturk": {
        "assignmentId": "",
        "workerId": "",
        "hitId": ""
      }
    },
    "trials": [
      {
        "trial_index": 47,
        "rt": 721,
        "correct": true,
        "response": "ArrowRight",
        "congruent": false,
        "adaptorDirection": 180,
        "testDirection": 0
      },
      {
        "trial_index": 52,
        "rt": 1019,
        "correct": true,
        "response": "ArrowRight",
        "congruent": false,
        "adaptorDirection": 180,
        "testDirection": 0
      },
      {
        "trial_index": 57,
        "rt": 964,
        "correct": true,
        "response": "ArrowLeft",
        "congruent": true,
        "adaptorDirection": 180,
        "testDirection": 180
      },
      {
        "trial_index": 62,
        "rt": 616,
        "correct": true,
        "response": "ArrowLeft",
        "congruent": false,
        "adaptorDirection": 0,
        "testDirection": 180
      },
      {
        "trial_index": 67,
        "rt": 991,
        "correct": true,
        "response": "ArrowLeft",
        "congruent": true,
        "adaptorDirection": 180,
        "testDirection": 180
      },
      {
        "trial_index": 72,
        "rt": 807,
        "correct": true,
        "response": "ArrowRight",
        "congruent": true,
        "adaptorDirection": 0,
        "testDirection": 0
      },
      {
        "trial_index": 77,
        "rt": 771,
        "correct": true,
        "response": "ArrowLeft",
        "congruent": false,
        "adaptorDirection": 0,
        "testDirection": 180
      },
      {
        "trial_index": 82,
        "rt": 1002,
        "correct": true,
        "response": "ArrowLeft",
        "congruent": true,
        "adaptorDirection": 180,
        "testDirection": 180
      },
      {
        "trial_index": 87,
        "rt": 855,
        "correct": true,
        "response": "ArrowLeft",
        "congruent": false,
        "adaptorDirection": 0,
        "testDirection": 180
      },
      {
        "trial_index": 92,
        "rt": 797,
        "correct": true,
        "response": "ArrowLeft",
        "congruent": false,
        "adaptorDirection": 0,
        "testDirection": 180
      },
      {
        "trial_index": 97,
        "rt": 1456,
        "correct": true,
        "response": "ArrowLeft",
        "congruent": true,
        "adaptorDirection": 180,
        "testDirection": 180
      },
      {
        "trial_index": 102,
        "rt": 991,
        "correct": true,
        "response": "ArrowRight",
        "congruent": true,
        "adaptorDirection": 0,
        "testDirection": 0
      },
      {
        "trial_index": 107,
        "rt": 894,
        "correct": true,
        "response": "ArrowRight",
        "congruent": true,
        "adaptorDirection": 0,
        "testDirection": 0
      },
      {
        "trial_index": 112,
        "rt": 898,
        "correct": true,
        "response": "ArrowLeft",
        "congruent": true,
        "adaptorDirection": 180,
        "testDirection": 180
      },
      {
        "trial_index": 117,
        "rt": 827,
        "correct": true,
        "response": "ArrowRight",
        "congruent": false,
        "adaptorDirection": 180,
        "testDirection": 0
      },
      {
        "trial_index": 122,
        "rt": 831,
        "correct": true,
        "response": "ArrowRight",
        "congruent": true,
        "adaptorDirection": 0,
        "testDirection": 0
      },
      {
        "trial_index": 127,
        "rt": 753,
        "correct": true,
        "response": "ArrowRight",
        "congruent": false,
        "adaptorDirection": 180,
        "testDirection": 0
      },
      {
        "trial_index": 132,
        "rt": 823,
        "correct": true,
        "response": "ArrowRight",
        "congruent": false,
        "adaptorDirection": 180,
        "testDirection": 0
      },
      {
        "trial_index": 137,
        "rt": 794,
        "correct": true,
        "response": "ArrowLeft",
        "congruent": false,
        "adaptorDirection": 0,
        "testDirection": 180
      },
      {
        "trial_index": 142,
        "rt": 722,
        "correct": true,
        "response": "ArrowRight",
        "congruent": false,
        "adaptorDirection": 180,
        "testDirection": 0
      },
      {
        "trial_index": 147,
        "rt": 829,
        "correct": true,
        "response": "ArrowRight",
        "congruent": true,
        "adaptorDirection": 0,
        "testDirection": 0
      },
      {
        "trial_index": 152,
        "rt": 1047,
        "correct": true,
        "response": "ArrowLeft",
        "congruent": true,
        "adaptorDirection": 180,
        "testDirection": 180
      },
      {
        "trial_index": 157,
        "rt": 791,
        "correct": true,
        "response": "ArrowLeft",
        "congruent": false,
        "adaptorDirection": 0,
        "testDirection": 180
      },
      {
        "trial_index": 162,
        "rt": 843,
        "correct": true,
        "response": "ArrowLeft",
        "congruent": false,
        "adaptorDirection": 0,
        "testDirection": 180
      },
      {
        "trial_index": 167,
        "rt": 824,
        "correct": true,
        "response": "ArrowLeft",
        "congruent": true,
        "adaptorDirection": 180,
        "testDirection": 180
      },
      {
        "trial_index": 172,
        "rt": 885,
        "correct": true,
        "response": "ArrowLeft",
        "congruent": false,
        "adaptorDirection": 0,
        "testDirection": 180
      },
      {
        "trial_index": 177,
        "rt": 932,
        "correct": true,
        "response": "ArrowRight",
        "congruent": true,
        "adaptorDirection": 0,
        "testDirection": 0
      },
      {
        "trial_index": 182,
        "rt": 739,
        "correct": true,
        "response": "ArrowLeft",
        "congruent": false,
        "adaptorDirection": 0,
        "testDirection": 180
      },
      {
        "trial_index": 187,
        "rt": 783,
        "correct": true,
        "response": "ArrowLeft",
        "congruent": true,
        "adaptorDirection": 180,
        "testDirection": 180
      },
      {
        "trial_index": 192,
        "rt": 862,
        "correct": true,
        "response": "ArrowRight",
        "congruent": true,
        "adaptorDirection": 0,
        "testDirection": 0
      }
    ]
  }
}