{
  "experiment": "rdk-face-1",
  "UUID": "5fed7caa-7367-409a-9031-f1ab54d16c10",
  "data": {
    "session": {
      "experiment_version": "1.8.6",
      "treatment": "faces_towards_away_catch",
      "file_version": "1.8.6",
      "totalTrials": 120,
      "totalTrialsIncludingCatch": 132,
      "conditions": {
        "gazeTowardsCount": 60,
        "gazeAwayCount": 60,
        "gazeTowardsAccuracy": 77,
        "gazeAwayAccuracy": 88
      },
      "session_group": "default",
      "browserData": {
        "os": "Windows",
        "browser": "Chrome",
        "screenResolution": "1920x1080",
        "browserViewport": "1920x1080",
        "devicePixelRatio": 1,
        "colorDepth": 32,
        "hardwareConcurrency": 16,
        "deviceMemory": 8,
        "gpuRenderer": "ANGLE (AMD, AMD Radeon(TM) Graphics (0x0000164C) Direct3D11 vs_5_0 ps_5_0, D3D11)",
        "measuredRefreshRateHz": 30
      },
      "attention": {
        "visibilityEvents": [
          {
            "event": "blur",
            "state": "blurred",
            "timestamp": 1772768230838
          },
          {
            "event": "visibilitychange",
            "state": "hidden",
            "timestamp": 1772768230843
          },
          {
            "event": "visibilitychange",
            "state": "visible",
            "timestamp": 1772768232378
          },
          {
            "event": "focus",
            "state": "focused",
            "timestamp": 1772768232383
          }
        ]
      },
      "calibration": {
        "monitorWidthCm": 38,
        "viewingDistanceCm": 54,
        "pixelsPerDegree": 50
      },
      "parameters": {
        "coherence": 0.4,
        "apertureDeg": 5,
        "densityDotsPerDeg2": 40,
        "dotDiameterDeg": 0.035,
        "dotSpeedDegPerSec": 3,
        "lifetimeMs": 200,
        "fixationDurationMs": 1500,
        "faceDurationMs": 1500,
        "testDurationMs": 2000,
        "catchResponseMs": 3000
      },
      "prolific": {
        "prolificPid": "63d42387aba51e699ab9ce5c",
        "studyId": "",
        "sessionId": ""
      },
      "timing": {
        "startTime": "2026-03-06T03:37:07.801Z",
        "endTime": "2026-03-06T03:53:21.809Z",
        "totalElapsedTimeMs": 974008
      }
    },
    "trials": [
      {
        "trial_number": 0,
        "trial_index": 131,
        "rt": 1924,
        "correct": true,
        "response": "ArrowRight",
        "congruent": true,
        "gazeTowards": true,
        "gazeCondition": "towards",
        "faceOnLeft": true,
        "impliedDirection": 0,
        "testDirection": 0,
        "avgFps": 32,
        "minFps": 31,
        "maxFps": 62,
        "totalFrames": 62,
        "frameRates": 32
      },
      {
        "trial_number": 1,
        "trial_index": 136,
        "rt": 1339,
        "correct": true,
        "response": "ArrowRight",
        "congruent": false,
        "gazeTowards": true,
        "gazeCondition": "towards",
        "faceOnLeft": false,
        "impliedDirection": 180,
        "testDirection": 0,
        "avgFps": 32,
        "minFps": 31,
        "maxFps": 60,
        "totalFrames": 43,
        "frameRates": 32
      },
      {
        "trial_number": 2,
        "trial_index": 141,
        "rt": 1575,
        "correct": true,
        "response": "ArrowRight",
        "congruent": true,
        "gazeTowards": false,
        "gazeCondition": "away",
        "faceOnLeft": true,
        "impliedDirection": 0,
        "testDirection": 0,
        "avgFps": 32,
        "minFps": 31,
        "maxFps": 33,
        "totalFrames": 50,
        "frameRates": 32
      },
      {
        "trial_number": 3,
        "trial_index": 146,
        "rt": 1568,
        "correct": false,
        "response": "ArrowRight",
        "congruent": true,
        "gazeTowards": true,
        "gazeCondition": "towards",
        "faceOnLeft": false,
        "impliedDirection": 180,
        "testDirection": 180,
        "avgFps": 32,
        "minFps": 31,
        "maxFps": 33,
        "totalFrames": 50,
        "frameRates": 32
      },
      {
        "trial_number": 4,
        "trial_index": 154,
        "rt": 1916,
        "correct": false,
        "response": "ArrowRight",
        "congruent": true,
        "gazeTowards": true,
        "gazeCondition": "towards",
        "faceOnLeft": false,
        "impliedDirection": 180,
        "testDirection": 180,
        "avgFps": 32,
        "minFps": 31,
        "maxFps": 69,
        "totalFrames": 62,
        "frameRates": 32
      },
      {
        "trial_number": 5,
        "trial_index": 159,
        "rt": null,
        "correct": false,
        "response": null,
        "congruent": false,
        "gazeTowards": false,
        "gazeCondition": "away",
        "faceOnLeft": true,
        "impliedDirection": 0,
        "testDirection": 180,
        "avgFps": 32,
        "minFps": 31,
        "maxFps": 36,
        "totalFrames": 64,
        "frameRates": 32
      },
      {
        "trial_number": 6,
        "trial_index": 164,
        "rt": 1606,
        "correct": true,
        "response": "ArrowRight",
        "congruent": false,
        "gazeTowards": true,
        "gazeCondition": "towards",
        "faceOnLeft": false,
        "impliedDirection": 180,
        "testDirection": 0,
        "avgFps": 32,
        "minFps": 31,
        "maxFps": 33,
        "totalFrames": 51,
        "frameRates": 32
      },
      {
        "trial_number": 7,
        "trial_index": 172,
        "rt": 1421,
        "correct": true,
        "response": "ArrowRight",
        "congruent": true,
        "gazeTowards": true,
        "gazeCondition": "towards",
        "faceOnLeft": true,
        "impliedDirection": 0,
        "testDirection": 0,
        "avgFps": 32,
        "minFps": 31,
        "maxFps": 33,
        "totalFrames": 45,
        "frameRates": 32
      },
      {
        "trial_number": 8,
        "trial_index": 177,
        "rt": 1421,
        "correct": false,
        "response": "ArrowRight",
        "congruent": false,
        "gazeTowards": false,
        "gazeCondition": "away",
        "faceOnLeft": true,
        "impliedDirection": 0,
        "testDirection": 180,
        "avgFps": 32,
        "minFps": 31,
        "maxFps": 69,
        "totalFrames": 46,
        "frameRates": 32
      },
      {
        "trial_number": 9,
        "trial_index": 182,
        "rt": 1337,
        "correct": true,
        "response": "ArrowRight",
        "congruent": true,
        "gazeTowards": true,
        "gazeCondition": "towards",
        "faceOnLeft": true,
        "impliedDirection": 0,
        "testDirection": 0,
        "avgFps": 32,
        "minFps": 32,
        "maxFps": 32,
        "totalFrames": 42,
        "frameRates": 32
      },
      {
        "trial_number": 10,
        "trial_index": 187,
        "rt": 1520,
        "correct": true,
        "response": "ArrowRight",
        "congruent": true,
        "gazeTowards": false,
        "gazeCondition": "away",
        "faceOnLeft": true,
        "impliedDirection": 0,
        "testDirection": 0,
        "avgFps": 32,
        "minFps": 31,
        "maxFps": 33,
        "totalFrames": 48,
        "frameRates": 32
      },
      {
        "trial_number": 11,
        "trial_index": 192,
        "rt": 1402,
        "correct": true,
        "response": "ArrowRight",
        "congruent": true,
        "gazeTowards": false,
        "gazeCondition": "away",
        "faceOnLeft": true,
        "impliedDirection": 0,
        "testDirection": 0,
        "avgFps": 32,
        "minFps": 31,
        "maxFps": 59,
        "totalFrames": 45,
        "frameRates": 32
      },
      {
        "trial_number": 12,
        "trial_index": 197,
        "rt": 1509,
        "correct": true,
        "response": "ArrowRight",
        "congruent": true,
        "gazeTowards": false,
        "gazeCondition": "away",
        "faceOnLeft": true,
        "impliedDirection": 0,
        "testDirection": 0,
        "avgFps": 32,
        "minFps": 31,
        "maxFps": 68,
        "totalFrames": 48,
        "frameRates": 32
      },
      {
        "trial_number": 13,
        "trial_index": 202,
        "rt": 1574,
        "correct": true,
        "response": "ArrowRight",
        "congruent": false,
        "gazeTowards": false,
        "gazeCondition": "away",
        "faceOnLeft": false,
        "impliedDirection": 180,
        "testDirection": 0,
        "avgFps": 32,
        "minFps": 31,
        "maxFps": 59,
        "totalFrames": 50,
        "frameRates": 32
      },
      {
        "trial_number": 14,
        "trial_index": 210,
        "rt": 1286,
        "correct": true,
        "response": "ArrowLeft",
        "congruent": true,
        "gazeTowards": false,
        "gazeCondition": "away",
        "faceOnLeft": false,
        "impliedDirection": 180,
        "testDirection": 180,
        "avgFps": 32,
        "minFps": 31,
        "maxFps": 34,
        "totalFrames": 41,
        "frameRates": 32
      },
      {
        "trial_number": 15,
        "trial_index": 215,
        "rt": 1137,
        "correct": false,
        "response": "ArrowRight",
        "congruent": true,
        "gazeTowards": true,
        "gazeCondition": "towards",
        "faceOnLeft": false,
        "impliedDirection": 180,
        "testDirection": 180,
        "avgFps": 32,
        "minFps": 31,
        "maxFps": 68,
        "totalFrames": 36,
        "frameRates": 32
      },
      {
        "trial_number": 16,
        "trial_index": 220,
        "rt": 1411,
        "correct": false,
        "response": "ArrowRight",
        "congruent": true,
        "gazeTowards": true,
        "gazeCondition": "towards",
        "faceOnLeft": false,
        "impliedDirection": 180,
        "testDirection": 180,
        "avgFps": 32,
        "minFps": 31,
        "maxFps": 69,
        "totalFrames": 45,
        "frameRates": 32
      },
      {
        "trial_number": 17,
        "trial_index": 225,
        "rt": 1424,
        "correct": true,
        "response": "ArrowRight",
        "congruent": true,
        "gazeTowards": false,
        "gazeCondition": "away",
        "faceOnLeft": true,
        "impliedDirection": 0,
        "testDirection": 0,
        "avgFps": 32,
        "minFps": 31,
        "maxFps": 66,
        "totalFrames": 46,
        "frameRates": 32
      },
      {
        "trial_number": 18,
        "trial_index": 230,
        "rt": 1696,
        "correct": true,
        "response": "ArrowLeft",
        "congruent": false,
        "gazeTowards": true,
        "gazeCondition": "towards",
        "faceOnLeft": true,
        "impliedDirection": 0,
        "testDirection": 180,
        "avgFps": 32,
        "minFps": 23,
        "maxFps": 33,
        "totalFrames": 53,
        "frameRates": 32
      },
      {
        "trial_number": 19,
        "trial_index": 238,
        "rt": 1612,
        "correct": false,
        "response": "ArrowRight",
        "congruent": true,
        "gazeTowards": false,
        "gazeCondition": "away",
        "faceOnLeft": false,
        "impliedDirection": 180,
        "testDirection": 180,
        "avgFps": 32,
        "minFps": 31,
        "maxFps": 69,
        "totalFrames": 52,
        "frameRates": 32
      },
      {
        "trial_number": 20,
        "trial_index": 243,
        "rt": null,
        "correct": false,
        "response": null,
        "congruent": true,
        "gazeTowards": false,
        "gazeCondition": "away",
        "faceOnLeft": true,
        "impliedDirection": 0,
        "testDirection": 0,
        "avgFps": 32,
        "minFps": 31,
        "maxFps": 34,
        "totalFrames": 64,
        "frameRates": 32
      },
      {
        "trial_number": 21,
        "trial_index": 248,
        "rt": 1275,
        "correct": true,
        "response": "ArrowLeft",
        "congruent": true,
        "gazeTowards": false,
        "gazeCondition": "away",
        "faceOnLeft": false,
        "impliedDirection": 180,
        "testDirection": 180,
        "avgFps": 32,
        "minFps": 31,
        "maxFps": 71,
        "totalFrames": 41,
        "frameRates": 32
      },
      {
        "trial_number": 22,
        "trial_index": 253,
        "rt": 1277,
        "correct": true,
        "response": "ArrowLeft",
        "congruent": false,
        "gazeTowards": true,
        "gazeCondition": "towards",
        "faceOnLeft": true,
        "impliedDirection": 0,
        "testDirection": 180,
        "avgFps": 32,
        "minFps": 31,
        "maxFps": 33,
        "totalFrames": 40,
        "frameRates": 32
      },
      {
        "trial_number": 23,
        "trial_index": 258,
        "rt": 1751,
        "correct": true,
        "response": "ArrowLeft",
        "congruent": false,
        "gazeTowards": false,
        "gazeCondition": "away",
        "faceOnLeft": true,
        "impliedDirection": 0,
        "testDirection": 180,
        "avgFps": 32,
        "minFps": 31,
        "maxFps": 70,
        "totalFrames": 56,
        "frameRates": 32
      },
      {
        "trial_number": 24,
        "trial_index": 263,
        "rt": 1905,
        "correct": true,
        "response": "ArrowRight",
        "congruent": false,
        "gazeTowards": false,
        "gazeCondition": "away",
        "faceOnLeft": false,
        "impliedDirection": 180,
        "testDirection": 0,
        "avgFps": 32,
        "minFps": 31,
        "maxFps": 52,
        "totalFrames": 61,
        "frameRates": 32
      },
      {
        "trial_number": 25,
        "trial_index": 268,
        "rt": 1506,
        "correct": true,
        "response": "ArrowLeft",
        "congruent": false,
        "gazeTowards": false,
        "gazeCondition": "away",
        "faceOnLeft": true,
        "impliedDirection": 0,
        "testDirection": 180,
        "avgFps": 32,
        "minFps": 31,
        "maxFps": 81,
        "totalFrames": 48,
        "frameRates": 32
      },
      {
        "trial_number": 26,
        "trial_index": 273,
        "rt": 1572,
        "correct": false,
        "response": "ArrowRight",
        "congruent": false,
        "gazeTowards": true,
        "gazeCondition": "towards",
        "faceOnLeft": true,
        "impliedDirection": 0,
        "testDirection": 180,
        "avgFps": 32,
        "minFps": 31,
        "maxFps": 33,
        "totalFrames": 50,
        "frameRates": 32
      },
      {
        "trial_number": 27,
        "trial_index": 278,
        "rt": 1758,
        "correct": true,
        "response": "ArrowRight",
        "congruent": true,
        "gazeTowards": false,
        "gazeCondition": "away",
        "faceOnLeft": true,
        "impliedDirection": 0,
        "testDirection": 0,
        "avgFps": 32,
        "minFps": 32,
        "maxFps": 83,
        "totalFrames": 56,
        "frameRates": 32
      },
      {
        "trial_number": 28,
        "trial_index": 283,
        "rt": 1674,
        "correct": false,
        "response": "ArrowRight",
        "congruent": false,
        "gazeTowards": true,
        "gazeCondition": "towards",
        "faceOnLeft": true,
        "impliedDirection": 0,
        "testDirection": 180,
        "avgFps": 32,
        "minFps": 31,
        "maxFps": 33,
        "totalFrames": 53,
        "frameRates": 32
      },
      {
        "trial_number": 29,
        "trial_index": 289,
        "rt": 1396,
        "correct": true,
        "response": "ArrowRight",
        "congruent": false,
        "gazeTowards": true,
        "gazeCondition": "towards",
        "faceOnLeft": false,
        "impliedDirection": 180,
        "testDirection": 0,
        "avgFps": 32,
        "minFps": 31,
        "maxFps": 33,
        "totalFrames": 44,
        "frameRates": 32
      },
      {
        "trial_number": 30,
        "trial_index": 297,
        "rt": 1496,
        "correct": true,
        "response": "ArrowRight",
        "congruent": true,
        "gazeTowards": true,
        "gazeCondition": "towards",
        "faceOnLeft": true,
        "impliedDirection": 0,
        "testDirection": 0,
        "avgFps": 32,
        "minFps": 32,
        "maxFps": 69,
        "totalFrames": 48,
        "frameRates": 32
      },
      {
        "trial_number": 31,
        "trial_index": 302,
        "rt": 1419,
        "correct": true,
        "response": "ArrowRight",
        "congruent": true,
        "gazeTowards": false,
        "gazeCondition": "away",
        "faceOnLeft": true,
        "impliedDirection": 0,
        "testDirection": 0,
        "avgFps": 32,
        "minFps": 31,
        "maxFps": 33,
        "totalFrames": 45,
        "frameRates": 32
      },
      {
        "trial_number": 32,
        "trial_index": 307,
        "rt": 1323,
        "correct": true,
        "response": "ArrowRight",
        "congruent": false,
        "gazeTowards": true,
        "gazeCondition": "towards",
        "faceOnLeft": false,
        "impliedDirection": 180,
        "testDirection": 0,
        "avgFps": 32,
        "minFps": 32,
        "maxFps": 34,
        "totalFrames": 42,
        "frameRates": 32
      },
      {
        "trial_number": 33,
        "trial_index": 312,
        "rt": 1571,
        "correct": true,
        "response": "ArrowRight",
        "congruent": false,
        "gazeTowards": false,
        "gazeCondition": "away",
        "faceOnLeft": false,
        "impliedDirection": 180,
        "testDirection": 0,
        "avgFps": 32,
        "minFps": 31,
        "maxFps": 69,
        "totalFrames": 50,
        "frameRates": 32
      },
      {
        "trial_number": 34,
        "trial_index": 317,
        "rt": 1414,
        "correct": true,
        "response": "ArrowRight",
        "congruent": true,
        "gazeTowards": false,
        "gazeCondition": "away",
        "faceOnLeft": true,
        "impliedDirection": 0,
        "testDirection": 0,
        "avgFps": 32,
        "minFps": 32,
        "maxFps": 70,
        "totalFrames": 45,
        "frameRates": 32
      },
      {
        "trial_number": 35,
        "trial_index": 322,
        "rt": 1315,
        "correct": true,
        "response": "ArrowLeft",
        "congruent": false,
        "gazeTowards": true,
        "gazeCondition": "towards",
        "faceOnLeft": true,
        "impliedDirection": 0,
        "testDirection": 180,
        "avgFps": 32,
        "minFps": 31,
        "maxFps": 33,
        "totalFrames": 42,
        "frameRates": 32
      },
      {
        "trial_number": 36,
        "trial_index": 327,
        "rt": 1431,
        "correct": true,
        "response": "ArrowRight",
        "congruent": true,
        "gazeTowards": false,
        "gazeCondition": "away",
        "faceOnLeft": true,
        "impliedDirection": 0,
        "testDirection": 0,
        "avgFps": 32,
        "minFps": 31,
        "maxFps": 34,
        "totalFrames": 45,
        "frameRates": 32
      },
      {
        "trial_number": 37,
        "trial_index": 332,
        "rt": 1535,
        "correct": false,
        "response": "ArrowRight",
        "congruent": true,
        "gazeTowards": false,
        "gazeCondition": "away",
        "faceOnLeft": false,
        "impliedDirection": 180,
        "testDirection": 180,
        "avgFps": 32,
        "minFps": 31,
        "maxFps": 32,
        "totalFrames": 49,
        "frameRates": 32
      },
      {
        "trial_number": 38,
        "trial_index": 337,
        "rt": 1415,
        "correct": true,
        "response": "ArrowRight",
        "congruent": false,
        "gazeTowards": true,
        "gazeCondition": "towards",
        "faceOnLeft": false,
        "impliedDirection": 180,
        "testDirection": 0,
        "avgFps": 32,
        "minFps": 31,
        "maxFps": 62,
        "totalFrames": 45,
        "frameRates": 32
      },
      {
        "trial_number": 39,
        "trial_index": 342,
        "rt": 1343,
        "correct": true,
        "response": "ArrowLeft",
        "congruent": true,
        "gazeTowards": true,
        "gazeCondition": "towards",
        "faceOnLeft": false,
        "impliedDirection": 180,
        "testDirection": 180,
        "avgFps": 32,
        "minFps": 31,
        "maxFps": 70,
        "totalFrames": 43,
        "frameRates": 32
      },
      {
        "trial_number": 40,
        "trial_index": 347,
        "rt": 1102,
        "correct": true,
        "response": "ArrowRight",
        "congruent": false,
        "gazeTowards": true,
        "gazeCondition": "towards",
        "faceOnLeft": false,
        "impliedDirection": 180,
        "testDirection": 0,
        "avgFps": 32,
        "minFps": 31,
        "maxFps": 69,
        "totalFrames": 35,
        "frameRates": 32
      },
      {
        "trial_number": 41,
        "trial_index": 352,
        "rt": 1537,
        "correct": true,
        "response": "ArrowRight",
        "congruent": true,
        "gazeTowards": false,
        "gazeCondition": "away",
        "faceOnLeft": true,
        "impliedDirection": 0,
        "testDirection": 0,
        "avgFps": 32,
        "minFps": 31,
        "maxFps": 70,
        "totalFrames": 49,
        "frameRates": 32
      },
      {
        "trial_number": 42,
        "trial_index": 357,
        "rt": 1797,
        "correct": true,
        "response": "ArrowLeft",
        "congruent": false,
        "gazeTowards": false,
        "gazeCondition": "away",
        "faceOnLeft": true,
        "impliedDirection": 0,
        "testDirection": 180,
        "avgFps": 32,
        "minFps": 31,
        "maxFps": 32,
        "totalFrames": 57,
        "frameRates": 32
      },
      {
        "trial_number": 43,
        "trial_index": 362,
        "rt": 1440,
        "correct": true,
        "response": "ArrowLeft",
        "congruent": false,
        "gazeTowards": true,
        "gazeCondition": "towards",
        "faceOnLeft": true,
        "impliedDirection": 0,
        "testDirection": 180,
        "avgFps": 32,
        "minFps": 31,
        "maxFps": 33,
        "totalFrames": 46,
        "frameRates": 32
      },
      {
        "trial_number": 44,
        "trial_index": 367,
        "rt": 1267,
        "correct": true,
        "response": "ArrowLeft",
        "congruent": false,
        "gazeTowards": false,
        "gazeCondition": "away",
        "faceOnLeft": true,
        "impliedDirection": 0,
        "testDirection": 180,
        "avgFps": 32,
        "minFps": 31,
        "maxFps": 32,
        "totalFrames": 40,
        "frameRates": 32
      },
      {
        "trial_number": 45,
        "trial_index": 372,
        "rt": 1269,
        "correct": true,
        "response": "ArrowRight",
        "congruent": true,
        "gazeTowards": false,
        "gazeCondition": "away",
        "faceOnLeft": true,
        "impliedDirection": 0,
        "testDirection": 0,
        "avgFps": 32,
        "minFps": 32,
        "maxFps": 35,
        "totalFrames": 41,
        "frameRates": 32
      },
      {
        "trial_number": 46,
        "trial_index": 377,
        "rt": 974,
        "correct": true,
        "response": "ArrowRight",
        "congruent": true,
        "gazeTowards": false,
        "gazeCondition": "away",
        "faceOnLeft": true,
        "impliedDirection": 0,
        "testDirection": 0,
        "avgFps": 32,
        "minFps": 31,
        "maxFps": 34,
        "totalFrames": 31,
        "frameRates": 32
      },
      {
        "trial_number": 47,
        "trial_index": 382,
        "rt": 1095,
        "correct": true,
        "response": "ArrowLeft",
        "congruent": true,
        "gazeTowards": true,
        "gazeCondition": "towards",
        "faceOnLeft": false,
        "impliedDirection": 180,
        "testDirection": 180,
        "avgFps": 32,
        "minFps": 32,
        "maxFps": 34,
        "totalFrames": 35,
        "frameRates": 32
      },
      {
        "trial_number": 48,
        "trial_index": 387,
        "rt": 1205,
        "correct": true,
        "response": "ArrowLeft",
        "congruent": false,
        "gazeTowards": false,
        "gazeCondition": "away",
        "faceOnLeft": true,
        "impliedDirection": 0,
        "testDirection": 180,
        "avgFps": 32,
        "minFps": 31,
        "maxFps": 69,
        "totalFrames": 39,
        "frameRates": 32
      },
      {
        "trial_number": 49,
        "trial_index": 392,
        "rt": 1254,
        "correct": true,
        "response": "ArrowRight",
        "congruent": false,
        "gazeTowards": false,
        "gazeCondition": "away",
        "faceOnLeft": false,
        "impliedDirection": 180,
        "testDirection": 0,
        "avgFps": 32,
        "minFps": 22,
        "maxFps": 33,
        "totalFrames": 39,
        "frameRates": 32
      },
      {
        "trial_number": 50,
        "trial_index": 397,
        "rt": 1206,
        "correct": true,
        "response": "ArrowLeft",
        "congruent": false,
        "gazeTowards": false,
        "gazeCondition": "away",
        "faceOnLeft": true,
        "impliedDirection": 0,
        "testDirection": 180,
        "avgFps": 32,
        "minFps": 31,
        "maxFps": 59,
        "totalFrames": 39,
        "frameRates": 32
      },
      {
        "trial_number": 51,
        "trial_index": 402,
        "rt": 1861,
        "correct": false,
        "response": "ArrowLeft",
        "congruent": true,
        "gazeTowards": true,
        "gazeCondition": "towards",
        "faceOnLeft": true,
        "impliedDirection": 0,
        "testDirection": 0,
        "avgFps": 32,
        "minFps": 31,
        "maxFps": 61,
        "totalFrames": 60,
        "frameRates": 32
      },
      {
        "trial_number": 52,
        "trial_index": 407,
        "rt": 1112,
        "correct": true,
        "response": "ArrowRight",
        "congruent": true,
        "gazeTowards": true,
        "gazeCondition": "towards",
        "faceOnLeft": true,
        "impliedDirection": 0,
        "testDirection": 0,
        "avgFps": 32,
        "minFps": 31,
        "maxFps": 33,
        "totalFrames": 35,
        "frameRates": 32
      },
      {
        "trial_number": 53,
        "trial_index": 412,
        "rt": 1167,
        "correct": true,
        "response": "ArrowLeft",
        "congruent": true,
        "gazeTowards": true,
        "gazeCondition": "towards",
        "faceOnLeft": false,
        "impliedDirection": 180,
        "testDirection": 180,
        "avgFps": 32,
        "minFps": 31,
        "maxFps": 69,
        "totalFrames": 37,
        "frameRates": 32
      },
      {
        "trial_number": 54,
        "trial_index": 417,
        "rt": 1143,
        "correct": true,
        "response": "ArrowRight",
        "congruent": true,
        "gazeTowards": false,
        "gazeCondition": "away",
        "faceOnLeft": true,
        "impliedDirection": 0,
        "testDirection": 0,
        "avgFps": 32,
        "minFps": 31,
        "maxFps": 69,
        "totalFrames": 37,
        "frameRates": 32
      },
      {
        "trial_number": 55,
        "trial_index": 422,
        "rt": 1440,
        "correct": true,
        "response": "ArrowRight",
        "congruent": false,
        "gazeTowards": true,
        "gazeCondition": "towards",
        "faceOnLeft": false,
        "impliedDirection": 180,
        "testDirection": 0,
        "avgFps": 32,
        "minFps": 32,
        "maxFps": 33,
        "totalFrames": 46,
        "frameRates": 32
      },
      {
        "trial_number": 56,
        "trial_index": 427,
        "rt": 1674,
        "correct": true,
        "response": "ArrowRight",
        "congruent": true,
        "gazeTowards": true,
        "gazeCondition": "towards",
        "faceOnLeft": true,
        "impliedDirection": 0,
        "testDirection": 0,
        "avgFps": 32,
        "minFps": 32,
        "maxFps": 61,
        "totalFrames": 54,
        "frameRates": 32
      },
      {
        "trial_number": 57,
        "trial_index": 432,
        "rt": 1438,
        "correct": true,
        "response": "ArrowRight",
        "congruent": true,
        "gazeTowards": false,
        "gazeCondition": "away",
        "faceOnLeft": true,
        "impliedDirection": 0,
        "testDirection": 0,
        "avgFps": 32,
        "minFps": 31,
        "maxFps": 32,
        "totalFrames": 46,
        "frameRates": 32
      },
      {
        "trial_number": 58,
        "trial_index": 437,
        "rt": 1074,
        "correct": true,
        "response": "ArrowLeft",
        "congruent": false,
        "gazeTowards": true,
        "gazeCondition": "towards",
        "faceOnLeft": true,
        "impliedDirection": 0,
        "testDirection": 180,
        "avgFps": 32,
        "minFps": 31,
        "maxFps": 34,
        "totalFrames": 34,
        "frameRates": 32
      },
      {
        "trial_number": 59,
        "trial_index": 442,
        "rt": 1129,
        "correct": true,
        "response": "ArrowLeft",
        "congruent": false,
        "gazeTowards": true,
        "gazeCondition": "towards",
        "faceOnLeft": true,
        "impliedDirection": 0,
        "testDirection": 180,
        "avgFps": 32,
        "minFps": 31,
        "maxFps": 53,
        "totalFrames": 36,
        "frameRates": 32
      },
      {
        "trial_number": 60,
        "trial_index": 447,
        "rt": 1126,
        "correct": true,
        "response": "ArrowLeft",
        "congruent": true,
        "gazeTowards": false,
        "gazeCondition": "away",
        "faceOnLeft": false,
        "impliedDirection": 180,
        "testDirection": 180,
        "avgFps": 32,
        "minFps": 32,
        "maxFps": 32,
        "totalFrames": 36,
        "frameRates": 32
      },
      {
        "trial_number": 61,
        "trial_index": 453,
        "rt": 1349,
        "correct": true,
        "response": "ArrowLeft",
        "congruent": false,
        "gazeTowards": true,
        "gazeCondition": "towards",
        "faceOnLeft": true,
        "impliedDirection": 0,
        "testDirection": 180,
        "avgFps": 32,
        "minFps": 31,
        "maxFps": 40,
        "totalFrames": 43,
        "frameRates": 32
      },
      {
        "trial_number": 62,
        "trial_index": 458,
        "rt": 926,
        "correct": true,
        "response": "ArrowLeft",
        "congruent": true,
        "gazeTowards": false,
        "gazeCondition": "away",
        "faceOnLeft": false,
        "impliedDirection": 180,
        "testDirection": 180,
        "avgFps": 32,
        "minFps": 31,
        "maxFps": 37,
        "totalFrames": 29,
        "frameRates": 32
      },
      {
        "trial_number": 63,
        "trial_index": 463,
        "rt": 1079,
        "correct": true,
        "response": "ArrowLeft",
        "congruent": false,
        "gazeTowards": false,
        "gazeCondition": "away",
        "faceOnLeft": true,
        "impliedDirection": 0,
        "testDirection": 180,
        "avgFps": 32,
        "minFps": 31,
        "maxFps": 61,
        "totalFrames": 35,
        "frameRates": 32
      },
      {
        "trial_number": 64,
        "trial_index": 468,
        "rt": 1144,
        "correct": true,
        "response": "ArrowRight",
        "congruent": true,
        "gazeTowards": true,
        "gazeCondition": "towards",
        "faceOnLeft": true,
        "impliedDirection": 0,
        "testDirection": 0,
        "avgFps": 32,
        "minFps": 31,
        "maxFps": 69,
        "totalFrames": 37,
        "frameRates": 32
      },
      {
        "trial_number": 65,
        "trial_index": 473,
        "rt": 1268,
        "correct": true,
        "response": "ArrowRight",
        "congruent": false,
        "gazeTowards": false,
        "gazeCondition": "away",
        "faceOnLeft": false,
        "impliedDirection": 180,
        "testDirection": 0,
        "avgFps": 32,
        "minFps": 31,
        "maxFps": 34,
        "totalFrames": 40,
        "frameRates": 32
      },
      {
        "trial_number": 66,
        "trial_index": 478,
        "rt": 1110,
        "correct": true,
        "response": "ArrowLeft",
        "congruent": true,
        "gazeTowards": false,
        "gazeCondition": "away",
        "faceOnLeft": false,
        "impliedDirection": 180,
        "testDirection": 180,
        "avgFps": 32,
        "minFps": 31,
        "maxFps": 32,
        "totalFrames": 35,
        "frameRates": 32
      },
      {
        "trial_number": 67,
        "trial_index": 483,
        "rt": 1326,
        "correct": true,
        "response": "ArrowLeft",
        "congruent": false,
        "gazeTowards": false,
        "gazeCondition": "away",
        "faceOnLeft": true,
        "impliedDirection": 0,
        "testDirection": 180,
        "avgFps": 32,
        "minFps": 31,
        "maxFps": 33,
        "totalFrames": 42,
        "frameRates": 32
      },
      {
        "trial_number": 68,
        "trial_index": 488,
        "rt": 984,
        "correct": true,
        "response": "ArrowRight",
        "congruent": true,
        "gazeTowards": true,
        "gazeCondition": "towards",
        "faceOnLeft": true,
        "impliedDirection": 0,
        "testDirection": 0,
        "avgFps": 32,
        "minFps": 32,
        "maxFps": 32,
        "totalFrames": 31,
        "frameRates": 32
      },
      {
        "trial_number": 69,
        "trial_index": 493,
        "rt": 953,
        "correct": true,
        "response": "ArrowLeft",
        "congruent": true,
        "gazeTowards": true,
        "gazeCondition": "towards",
        "faceOnLeft": false,
        "impliedDirection": 180,
        "testDirection": 180,
        "avgFps": 32,
        "minFps": 32,
        "maxFps": 59,
        "totalFrames": 31,
        "frameRates": 32
      },
      {
        "trial_number": 70,
        "trial_index": 498,
        "rt": 1235,
        "correct": true,
        "response": "ArrowRight",
        "congruent": true,
        "gazeTowards": false,
        "gazeCondition": "away",
        "faceOnLeft": true,
        "impliedDirection": 0,
        "testDirection": 0,
        "avgFps": 32,
        "minFps": 31,
        "maxFps": 35,
        "totalFrames": 40,
        "frameRates": 32
      },
      {
        "trial_number": 71,
        "trial_index": 503,
        "rt": 1278,
        "correct": true,
        "response": "ArrowLeft",
        "congruent": false,
        "gazeTowards": true,
        "gazeCondition": "towards",
        "faceOnLeft": true,
        "impliedDirection": 0,
        "testDirection": 180,
        "avgFps": 32,
        "minFps": 31,
        "maxFps": 33,
        "totalFrames": 41,
        "frameRates": 32
      },
      {
        "trial_number": 72,
        "trial_index": 508,
        "rt": 1185,
        "correct": true,
        "response": "ArrowRight",
        "congruent": false,
        "gazeTowards": true,
        "gazeCondition": "towards",
        "faceOnLeft": false,
        "impliedDirection": 180,
        "testDirection": 0,
        "avgFps": 32,
        "minFps": 31,
        "maxFps": 35,
        "totalFrames": 38,
        "frameRates": 32
      },
      {
        "trial_number": 73,
        "trial_index": 513,
        "rt": 1281,
        "correct": false,
        "response": "ArrowRight",
        "congruent": true,
        "gazeTowards": true,
        "gazeCondition": "towards",
        "faceOnLeft": false,
        "impliedDirection": 180,
        "testDirection": 180,
        "avgFps": 32,
        "minFps": 31,
        "maxFps": 37,
        "totalFrames": 41,
        "frameRates": 32
      },
      {
        "trial_number": 74,
        "trial_index": 518,
        "rt": 1314,
        "correct": false,
        "response": "ArrowRight",
        "congruent": false,
        "gazeTowards": true,
        "gazeCondition": "towards",
        "faceOnLeft": true,
        "impliedDirection": 0,
        "testDirection": 180,
        "avgFps": 32,
        "minFps": 32,
        "maxFps": 53,
        "totalFrames": 42,
        "frameRates": 32
      },
      {
        "trial_number": 75,
        "trial_index": 523,
        "rt": 1293,
        "correct": true,
        "response": "ArrowRight",
        "congruent": true,
        "gazeTowards": true,
        "gazeCondition": "towards",
        "faceOnLeft": true,
        "impliedDirection": 0,
        "testDirection": 0,
        "avgFps": 32,
        "minFps": 32,
        "maxFps": 61,
        "totalFrames": 42,
        "frameRates": 32
      },
      {
        "trial_number": 76,
        "trial_index": 528,
        "rt": 1690,
        "correct": false,
        "response": "ArrowRight",
        "congruent": false,
        "gazeTowards": true,
        "gazeCondition": "towards",
        "faceOnLeft": true,
        "impliedDirection": 0,
        "testDirection": 180,
        "avgFps": 32,
        "minFps": 31,
        "maxFps": 33,
        "totalFrames": 54,
        "frameRates": 32
      },
      {
        "trial_number": 77,
        "trial_index": 533,
        "rt": 1288,
        "correct": true,
        "response": "ArrowLeft",
        "congruent": false,
        "gazeTowards": false,
        "gazeCondition": "away",
        "faceOnLeft": true,
        "impliedDirection": 0,
        "testDirection": 180,
        "avgFps": 32,
        "minFps": 22,
        "maxFps": 33,
        "totalFrames": 40,
        "frameRates": 32
      },
      {
        "trial_number": 78,
        "trial_index": 541,
        "rt": 1401,
        "correct": true,
        "response": "ArrowLeft",
        "congruent": false,
        "gazeTowards": true,
        "gazeCondition": "towards",
        "faceOnLeft": true,
        "impliedDirection": 0,
        "testDirection": 180,
        "avgFps": 32,
        "minFps": 31,
        "maxFps": 69,
        "totalFrames": 45,
        "frameRates": 32
      },
      {
        "trial_number": 79,
        "trial_index": 552,
        "rt": 1848,
        "correct": true,
        "response": "ArrowLeft",
        "congruent": true,
        "gazeTowards": false,
        "gazeCondition": "away",
        "faceOnLeft": false,
        "impliedDirection": 180,
        "testDirection": 180,
        "avgFps": 32,
        "minFps": 31,
        "maxFps": 33,
        "totalFrames": 59,
        "frameRates": 32
      },
      {
        "trial_number": 80,
        "trial_index": 557,
        "rt": 1732,
        "correct": true,
        "response": "ArrowLeft",
        "congruent": false,
        "gazeTowards": false,
        "gazeCondition": "away",
        "faceOnLeft": true,
        "impliedDirection": 0,
        "testDirection": 180,
        "avgFps": 32,
        "minFps": 31,
        "maxFps": 52,
        "totalFrames": 55,
        "frameRates": 32
      },
      {
        "trial_number": 81,
        "trial_index": 568,
        "rt": 1579,
        "correct": true,
        "response": "ArrowLeft",
        "congruent": true,
        "gazeTowards": true,
        "gazeCondition": "towards",
        "faceOnLeft": false,
        "impliedDirection": 180,
        "testDirection": 180,
        "avgFps": 32,
        "minFps": 31,
        "maxFps": 70,
        "totalFrames": 51,
        "frameRates": 32
      },
      {
        "trial_number": 82,
        "trial_index": 573,
        "rt": 1098,
        "correct": true,
        "response": "ArrowRight",
        "congruent": true,
        "gazeTowards": true,
        "gazeCondition": "towards",
        "faceOnLeft": true,
        "impliedDirection": 0,
        "testDirection": 0,
        "avgFps": 33,
        "minFps": 31,
        "maxFps": 262,
        "totalFrames": 36,
        "frameRates": 33
      },
      {
        "trial_number": 83,
        "trial_index": 581,
        "rt": 1228,
        "correct": true,
        "response": "ArrowLeft",
        "congruent": false,
        "gazeTowards": true,
        "gazeCondition": "towards",
        "faceOnLeft": true,
        "impliedDirection": 0,
        "testDirection": 180,
        "avgFps": 32,
        "minFps": 31,
        "maxFps": 69,
        "totalFrames": 39,
        "frameRates": 32
      },
      {
        "trial_number": 84,
        "trial_index": 586,
        "rt": 1173,
        "correct": true,
        "response": "ArrowLeft",
        "congruent": false,
        "gazeTowards": false,
        "gazeCondition": "away",
        "faceOnLeft": true,
        "impliedDirection": 0,
        "testDirection": 180,
        "avgFps": 32,
        "minFps": 32,
        "maxFps": 37,
        "totalFrames": 37,
        "frameRates": 32
      },
      {
        "trial_number": 85,
        "trial_index": 591,
        "rt": 1489,
        "correct": true,
        "response": "ArrowRight",
        "congruent": false,
        "gazeTowards": false,
        "gazeCondition": "away",
        "faceOnLeft": false,
        "impliedDirection": 180,
        "testDirection": 0,
        "avgFps": 32,
        "minFps": 22,
        "maxFps": 32,
        "totalFrames": 47,
        "frameRates": 32
      },
      {
        "trial_number": 86,
        "trial_index": 596,
        "rt": 1424,
        "correct": true,
        "response": "ArrowLeft",
        "congruent": false,
        "gazeTowards": false,
        "gazeCondition": "away",
        "faceOnLeft": true,
        "impliedDirection": 0,
        "testDirection": 180,
        "avgFps": 32,
        "minFps": 31,
        "maxFps": 70,
        "totalFrames": 46,
        "frameRates": 32
      },
      {
        "trial_number": 87,
        "trial_index": 601,
        "rt": 1129,
        "correct": true,
        "response": "ArrowLeft",
        "congruent": false,
        "gazeTowards": true,
        "gazeCondition": "towards",
        "faceOnLeft": true,
        "impliedDirection": 0,
        "testDirection": 180,
        "avgFps": 32,
        "minFps": 31,
        "maxFps": 33,
        "totalFrames": 36,
        "frameRates": 32
      },
      {
        "trial_number": 88,
        "trial_index": 607,
        "rt": 947,
        "correct": true,
        "response": "ArrowLeft",
        "congruent": false,
        "gazeTowards": false,
        "gazeCondition": "away",
        "faceOnLeft": true,
        "impliedDirection": 0,
        "testDirection": 180,
        "avgFps": 33,
        "minFps": 31,
        "maxFps": 81,
        "totalFrames": 30,
        "frameRates": 33
      },
      {
        "trial_number": 89,
        "trial_index": 612,
        "rt": 1093,
        "correct": true,
        "response": "ArrowLeft",
        "congruent": false,
        "gazeTowards": true,
        "gazeCondition": "towards",
        "faceOnLeft": true,
        "impliedDirection": 0,
        "testDirection": 180,
        "avgFps": 32,
        "minFps": 31,
        "maxFps": 33,
        "totalFrames": 35,
        "frameRates": 32
      },
      {
        "trial_number": 90,
        "trial_index": 617,
        "rt": 1726,
        "correct": false,
        "response": "ArrowLeft",
        "congruent": true,
        "gazeTowards": true,
        "gazeCondition": "towards",
        "faceOnLeft": true,
        "impliedDirection": 0,
        "testDirection": 0,
        "avgFps": 32,
        "minFps": 31,
        "maxFps": 33,
        "totalFrames": 55,
        "frameRates": 32
      },
      {
        "trial_number": 91,
        "trial_index": 622,
        "rt": 1146,
        "correct": true,
        "response": "ArrowLeft",
        "congruent": true,
        "gazeTowards": true,
        "gazeCondition": "towards",
        "faceOnLeft": false,
        "impliedDirection": 180,
        "testDirection": 180,
        "avgFps": 32,
        "minFps": 31,
        "maxFps": 33,
        "totalFrames": 36,
        "frameRates": 32
      },
      {
        "trial_number": 92,
        "trial_index": 630,
        "rt": 1035,
        "correct": true,
        "response": "ArrowRight",
        "congruent": false,
        "gazeTowards": true,
        "gazeCondition": "towards",
        "faceOnLeft": false,
        "impliedDirection": 180,
        "testDirection": 0,
        "avgFps": 32,
        "minFps": 31,
        "maxFps": 33,
        "totalFrames": 33,
        "frameRates": 32
      },
      {
        "trial_number": 93,
        "trial_index": 635,
        "rt": 959,
        "correct": true,
        "response": "ArrowLeft",
        "congruent": true,
        "gazeTowards": false,
        "gazeCondition": "away",
        "faceOnLeft": false,
        "impliedDirection": 180,
        "testDirection": 180,
        "avgFps": 32,
        "minFps": 31,
        "maxFps": 60,
        "totalFrames": 31,
        "frameRates": 32
      },
      {
        "trial_number": 94,
        "trial_index": 640,
        "rt": 1039,
        "correct": true,
        "response": "ArrowRight",
        "congruent": false,
        "gazeTowards": false,
        "gazeCondition": "away",
        "faceOnLeft": false,
        "impliedDirection": 180,
        "testDirection": 0,
        "avgFps": 32,
        "minFps": 31,
        "maxFps": 33,
        "totalFrames": 33,
        "frameRates": 32
      },
      {
        "trial_number": 95,
        "trial_index": 645,
        "rt": 1545,
        "correct": false,
        "response": "ArrowLeft",
        "congruent": false,
        "gazeTowards": true,
        "gazeCondition": "towards",
        "faceOnLeft": false,
        "impliedDirection": 180,
        "testDirection": 0,
        "avgFps": 32,
        "minFps": 31,
        "maxFps": 69,
        "totalFrames": 50,
        "frameRates": 32
      },
      {
        "trial_number": 96,
        "trial_index": 650,
        "rt": 1414,
        "correct": true,
        "response": "ArrowLeft",
        "congruent": true,
        "gazeTowards": false,
        "gazeCondition": "away",
        "faceOnLeft": false,
        "impliedDirection": 180,
        "testDirection": 180,
        "avgFps": 32,
        "minFps": 31,
        "maxFps": 70,
        "totalFrames": 45,
        "frameRates": 32
      },
      {
        "trial_number": 97,
        "trial_index": 655,
        "rt": 1147,
        "correct": true,
        "response": "ArrowRight",
        "congruent": true,
        "gazeTowards": false,
        "gazeCondition": "away",
        "faceOnLeft": true,
        "impliedDirection": 0,
        "testDirection": 0,
        "avgFps": 32,
        "minFps": 31,
        "maxFps": 33,
        "totalFrames": 36,
        "frameRates": 32
      },
      {
        "trial_number": 98,
        "trial_index": 660,
        "rt": 1313,
        "correct": true,
        "response": "ArrowLeft",
        "congruent": true,
        "gazeTowards": true,
        "gazeCondition": "towards",
        "faceOnLeft": false,
        "impliedDirection": 180,
        "testDirection": 180,
        "avgFps": 32,
        "minFps": 31,
        "maxFps": 71,
        "totalFrames": 42,
        "frameRates": 32
      },
      {
        "trial_number": 99,
        "trial_index": 665,
        "rt": 1398,
        "correct": true,
        "response": "ArrowLeft",
        "congruent": false,
        "gazeTowards": false,
        "gazeCondition": "away",
        "faceOnLeft": true,
        "impliedDirection": 0,
        "testDirection": 180,
        "avgFps": 32,
        "minFps": 31,
        "maxFps": 70,
        "totalFrames": 45,
        "frameRates": 32
      },
      {
        "trial_number": 100,
        "trial_index": 670,
        "rt": 1318,
        "correct": true,
        "response": "ArrowRight",
        "congruent": true,
        "gazeTowards": true,
        "gazeCondition": "towards",
        "faceOnLeft": true,
        "impliedDirection": 0,
        "testDirection": 0,
        "avgFps": 32,
        "minFps": 32,
        "maxFps": 70,
        "totalFrames": 42,
        "frameRates": 32
      },
      {
        "trial_number": 101,
        "trial_index": 675,
        "rt": 1236,
        "correct": true,
        "response": "ArrowRight",
        "congruent": false,
        "gazeTowards": true,
        "gazeCondition": "towards",
        "faceOnLeft": false,
        "impliedDirection": 180,
        "testDirection": 0,
        "avgFps": 32,
        "minFps": 31,
        "maxFps": 34,
        "totalFrames": 39,
        "frameRates": 32
      },
      {
        "trial_number": 102,
        "trial_index": 680,
        "rt": 1506,
        "correct": false,
        "response": "ArrowRight",
        "congruent": true,
        "gazeTowards": true,
        "gazeCondition": "towards",
        "faceOnLeft": false,
        "impliedDirection": 180,
        "testDirection": 180,
        "avgFps": 32,
        "minFps": 31,
        "maxFps": 69,
        "totalFrames": 48,
        "frameRates": 32
      },
      {
        "trial_number": 103,
        "trial_index": 685,
        "rt": 1323,
        "correct": true,
        "response": "ArrowLeft",
        "congruent": false,
        "gazeTowards": true,
        "gazeCondition": "towards",
        "faceOnLeft": true,
        "impliedDirection": 0,
        "testDirection": 180,
        "avgFps": 32,
        "minFps": 31,
        "maxFps": 69,
        "totalFrames": 43,
        "frameRates": 32
      },
      {
        "trial_number": 104,
        "trial_index": 690,
        "rt": 1461,
        "correct": true,
        "response": "ArrowRight",
        "congruent": false,
        "gazeTowards": false,
        "gazeCondition": "away",
        "faceOnLeft": false,
        "impliedDirection": 180,
        "testDirection": 0,
        "avgFps": 32,
        "minFps": 32,
        "maxFps": 68,
        "totalFrames": 47,
        "frameRates": 32
      },
      {
        "trial_number": 105,
        "trial_index": 695,
        "rt": 1296,
        "correct": true,
        "response": "ArrowRight",
        "congruent": false,
        "gazeTowards": true,
        "gazeCondition": "towards",
        "faceOnLeft": false,
        "impliedDirection": 180,
        "testDirection": 0,
        "avgFps": 32,
        "minFps": 31,
        "maxFps": 32,
        "totalFrames": 41,
        "frameRates": 32
      },
      {
        "trial_number": 106,
        "trial_index": 700,
        "rt": 1516,
        "correct": true,
        "response": "ArrowRight",
        "congruent": false,
        "gazeTowards": false,
        "gazeCondition": "away",
        "faceOnLeft": false,
        "impliedDirection": 180,
        "testDirection": 0,
        "avgFps": 32,
        "minFps": 31,
        "maxFps": 37,
        "totalFrames": 49,
        "frameRates": 32
      },
      {
        "trial_number": 107,
        "trial_index": 705,
        "rt": 982,
        "correct": true,
        "response": "ArrowLeft",
        "congruent": false,
        "gazeTowards": true,
        "gazeCondition": "towards",
        "faceOnLeft": true,
        "impliedDirection": 0,
        "testDirection": 180,
        "avgFps": 32,
        "minFps": 31,
        "maxFps": 60,
        "totalFrames": 31,
        "frameRates": 32
      },
      {
        "trial_number": 108,
        "trial_index": 710,
        "rt": 1411,
        "correct": true,
        "response": "ArrowRight",
        "congruent": true,
        "gazeTowards": false,
        "gazeCondition": "away",
        "faceOnLeft": true,
        "impliedDirection": 0,
        "testDirection": 0,
        "avgFps": 32,
        "minFps": 31,
        "maxFps": 33,
        "totalFrames": 45,
        "frameRates": 32
      },
      {
        "trial_number": 109,
        "trial_index": 715,
        "rt": null,
        "correct": false,
        "response": null,
        "congruent": false,
        "gazeTowards": false,
        "gazeCondition": "away",
        "faceOnLeft": true,
        "impliedDirection": 0,
        "testDirection": 180,
        "avgFps": 32,
        "minFps": 23,
        "maxFps": 33,
        "totalFrames": 64,
        "frameRates": 32
      },
      {
        "trial_number": 110,
        "trial_index": 720,
        "rt": 1940,
        "correct": true,
        "response": "ArrowRight",
        "congruent": false,
        "gazeTowards": false,
        "gazeCondition": "away",
        "faceOnLeft": false,
        "impliedDirection": 180,
        "testDirection": 0,
        "avgFps": 32,
        "minFps": 31,
        "maxFps": 35,
        "totalFrames": 62,
        "frameRates": 32
      },
      {
        "trial_number": 111,
        "trial_index": 725,
        "rt": 1070,
        "correct": true,
        "response": "ArrowLeft",
        "congruent": true,
        "gazeTowards": true,
        "gazeCondition": "towards",
        "faceOnLeft": false,
        "impliedDirection": 180,
        "testDirection": 180,
        "avgFps": 33,
        "minFps": 31,
        "maxFps": 81,
        "totalFrames": 34,
        "frameRates": 33
      },
      {
        "trial_number": 112,
        "trial_index": 730,
        "rt": 1059,
        "correct": false,
        "response": "ArrowRight",
        "congruent": false,
        "gazeTowards": false,
        "gazeCondition": "away",
        "faceOnLeft": true,
        "impliedDirection": 0,
        "testDirection": 180,
        "avgFps": 33,
        "minFps": 31,
        "maxFps": 69,
        "totalFrames": 34,
        "frameRates": 33
      },
      {
        "trial_number": 113,
        "trial_index": 735,
        "rt": 1004,
        "correct": false,
        "response": "ArrowRight",
        "congruent": true,
        "gazeTowards": true,
        "gazeCondition": "towards",
        "faceOnLeft": false,
        "impliedDirection": 180,
        "testDirection": 180,
        "avgFps": 32,
        "minFps": 32,
        "maxFps": 33,
        "totalFrames": 32,
        "frameRates": 32
      },
      {
        "trial_number": 114,
        "trial_index": 740,
        "rt": 945,
        "correct": true,
        "response": "ArrowRight",
        "congruent": true,
        "gazeTowards": false,
        "gazeCondition": "away",
        "faceOnLeft": true,
        "impliedDirection": 0,
        "testDirection": 0,
        "avgFps": 32,
        "minFps": 32,
        "maxFps": 33,
        "totalFrames": 30,
        "frameRates": 32
      },
      {
        "trial_number": 115,
        "trial_index": 745,
        "rt": 1080,
        "correct": true,
        "response": "ArrowLeft",
        "congruent": false,
        "gazeTowards": false,
        "gazeCondition": "away",
        "faceOnLeft": true,
        "impliedDirection": 0,
        "testDirection": 180,
        "avgFps": 32,
        "minFps": 22,
        "maxFps": 33,
        "totalFrames": 34,
        "frameRates": 32
      },
      {
        "trial_number": 116,
        "trial_index": 750,
        "rt": 899,
        "correct": true,
        "response": "ArrowLeft",
        "congruent": true,
        "gazeTowards": true,
        "gazeCondition": "towards",
        "faceOnLeft": false,
        "impliedDirection": 180,
        "testDirection": 180,
        "avgFps": 32,
        "minFps": 32,
        "maxFps": 39,
        "totalFrames": 29,
        "frameRates": 32
      },
      {
        "trial_number": 117,
        "trial_index": 755,
        "rt": 885,
        "correct": true,
        "response": "ArrowRight",
        "congruent": true,
        "gazeTowards": true,
        "gazeCondition": "towards",
        "faceOnLeft": true,
        "impliedDirection": 0,
        "testDirection": 0,
        "avgFps": 31,
        "minFps": 22,
        "maxFps": 33,
        "totalFrames": 27,
        "frameRates": 31
      },
      {
        "trial_number": 118,
        "trial_index": 760,
        "rt": 943,
        "correct": true,
        "response": "ArrowLeft",
        "congruent": false,
        "gazeTowards": false,
        "gazeCondition": "away",
        "faceOnLeft": true,
        "impliedDirection": 0,
        "testDirection": 180,
        "avgFps": 33,
        "minFps": 31,
        "maxFps": 70,
        "totalFrames": 30,
        "frameRates": 33
      },
      {
        "trial_number": 119,
        "trial_index": 765,
        "rt": 827,
        "correct": true,
        "response": "ArrowRight",
        "congruent": true,
        "gazeTowards": false,
        "gazeCondition": "away",
        "faceOnLeft": true,
        "impliedDirection": 0,
        "testDirection": 0,
        "avgFps": 33,
        "minFps": 31,
        "maxFps": 80,
        "totalFrames": 27,
        "frameRates": 33
      }
    ],
    "catch": {
      "total": 12,
      "correct": 12,
      "accuracy": 100,
      "meanRT": 919,
      "trials": [
        {
          "trial_number": 0,
          "trial_index": 150,
          "rt": 755,
          "correct": true,
          "colorTarget": "tree",
          "gazeTowards": false,
          "gazeCondition": "away",
          "faceOnLeft": true
        },
        {
          "trial_number": 1,
          "trial_index": 168,
          "rt": 818,
          "correct": true,
          "colorTarget": "face",
          "gazeTowards": true,
          "gazeCondition": "towards",
          "faceOnLeft": true
        },
        {
          "trial_number": 2,
          "trial_index": 206,
          "rt": 857,
          "correct": true,
          "colorTarget": "tree",
          "gazeTowards": false,
          "gazeCondition": "away",
          "faceOnLeft": false
        },
        {
          "trial_number": 3,
          "trial_index": 234,
          "rt": 736,
          "correct": true,
          "colorTarget": "tree",
          "gazeTowards": true,
          "gazeCondition": "towards",
          "faceOnLeft": true
        },
        {
          "trial_number": 4,
          "trial_index": 293,
          "rt": 755,
          "correct": true,
          "colorTarget": "tree",
          "gazeTowards": true,
          "gazeCondition": "towards",
          "faceOnLeft": false
        },
        {
          "trial_number": 5,
          "trial_index": 537,
          "rt": 1135,
          "correct": true,
          "colorTarget": "face",
          "gazeTowards": true,
          "gazeCondition": "towards",
          "faceOnLeft": false
        },
        {
          "trial_number": 6,
          "trial_index": 545,
          "rt": 1266,
          "correct": true,
          "colorTarget": "face",
          "gazeTowards": true,
          "gazeCondition": "towards",
          "faceOnLeft": true
        },
        {
          "trial_number": 7,
          "trial_index": 548,
          "rt": 913,
          "correct": true,
          "colorTarget": "face",
          "gazeTowards": false,
          "gazeCondition": "away",
          "faceOnLeft": true
        },
        {
          "trial_number": 8,
          "trial_index": 561,
          "rt": 1067,
          "correct": true,
          "colorTarget": "face",
          "gazeTowards": true,
          "gazeCondition": "towards",
          "faceOnLeft": false
        },
        {
          "trial_number": 9,
          "trial_index": 564,
          "rt": 831,
          "correct": true,
          "colorTarget": "face",
          "gazeTowards": true,
          "gazeCondition": "towards",
          "faceOnLeft": true
        },
        {
          "trial_number": 10,
          "trial_index": 577,
          "rt": 950,
          "correct": true,
          "colorTarget": "tree",
          "gazeTowards": false,
          "gazeCondition": "away",
          "faceOnLeft": true
        },
        {
          "trial_number": 11,
          "trial_index": 626,
          "rt": 943,
          "correct": true,
          "colorTarget": "tree",
          "gazeTowards": false,
          "gazeCondition": "away",
          "faceOnLeft": true
        }
      ]
    },
    "practice": {
      "trials": [
        {
          "trial_number": 0,
          "rt": 1256,
          "correct": true,
          "direction": 180
        },
        {
          "trial_number": 1,
          "rt": 1957,
          "correct": true,
          "direction": 0
        },
        {
          "trial_number": 2,
          "rt": 1917,
          "correct": false,
          "direction": 0
        },
        {
          "trial_number": 3,
          "rt": 1654,
          "correct": true,
          "direction": 0
        },
        {
          "trial_number": 4,
          "rt": null,
          "correct": false,
          "direction": 180
        },
        {
          "trial_number": 5,
          "rt": 1139,
          "correct": true,
          "direction": 180
        },
        {
          "trial_number": 6,
          "rt": 1815,
          "correct": true,
          "direction": 0
        },
        {
          "trial_number": 7,
          "rt": null,
          "correct": false,
          "direction": 0
        },
        {
          "trial_number": 8,
          "rt": 1566,
          "correct": true,
          "direction": 0
        },
        {
          "trial_number": 9,
          "rt": 1557,
          "correct": true,
          "direction": 0
        },
        {
          "trial_number": 10,
          "rt": 1263,
          "correct": true,
          "direction": 180
        },
        {
          "trial_number": 11,
          "rt": 1101,
          "correct": true,
          "direction": 0
        },
        {
          "trial_number": 12,
          "rt": 1489,
          "correct": true,
          "direction": 0
        },
        {
          "trial_number": 13,
          "rt": 1465,
          "correct": true,
          "direction": 0
        },
        {
          "trial_number": 14,
          "rt": null,
          "correct": false,
          "direction": 180
        },
        {
          "trial_number": 15,
          "rt": 1062,
          "correct": false,
          "direction": 180
        },
        {
          "trial_number": 16,
          "rt": 1174,
          "correct": true,
          "direction": 0
        },
        {
          "trial_number": 17,
          "rt": 1421,
          "correct": false,
          "direction": 0
        },
        {
          "trial_number": 18,
          "rt": 1211,
          "correct": true,
          "direction": 0
        },
        {
          "trial_number": 19,
          "rt": 1174,
          "correct": true,
          "direction": 0
        },
        {
          "trial_number": 20,
          "rt": null,
          "correct": false,
          "direction": 180
        },
        {
          "trial_number": 21,
          "rt": 1369,
          "correct": true,
          "direction": 0
        },
        {
          "trial_number": 22,
          "rt": 1362,
          "correct": true,
          "direction": 0
        },
        {
          "trial_number": 23,
          "rt": 1331,
          "correct": true,
          "direction": 0
        },
        {
          "trial_number": 24,
          "rt": 1134,
          "correct": true,
          "direction": 180
        },
        {
          "trial_number": 25,
          "rt": 1278,
          "correct": false,
          "direction": 180
        },
        {
          "trial_number": 26,
          "rt": 1097,
          "correct": true,
          "direction": 0
        },
        {
          "trial_number": 27,
          "rt": 1001,
          "correct": true,
          "direction": 0
        },
        {
          "trial_number": 28,
          "rt": 1527,
          "correct": true,
          "direction": 0
        },
        {
          "trial_number": 29,
          "rt": 1284,
          "correct": true,
          "direction": 0
        }
      ],
      "meanRT": 1369,
      "accuracy": 73
    }
  }
}