{
  "experiment": "rdk-face-1",
  "UUID": "d94b1d8c-7744-4892-b360-32e670473ba2",
  "data": {
    "session": {
      "experiment_version": "1.8.6",
      "treatment": "faces_towards_away_catch",
      "file_version": "1.8.6",
      "totalTrials": 120,
      "totalTrialsIncludingCatch": 132,
      "conditions": {
        "gazeTowardsCount": 60,
        "gazeAwayCount": 60,
        "gazeTowardsAccuracy": 100,
        "gazeAwayAccuracy": 98
      },
      "session_group": "default",
      "browserData": {
        "os": "Windows",
        "browser": "Chrome",
        "screenResolution": "1536x864",
        "browserViewport": "1536x864",
        "devicePixelRatio": 1.25,
        "colorDepth": 32,
        "hardwareConcurrency": 16,
        "deviceMemory": 8,
        "gpuRenderer": "ANGLE (AMD, AMD Radeon(TM) Graphics (0x00001638) Direct3D11 vs_5_0 ps_5_0, D3D11)",
        "measuredRefreshRateHz": 137
      },
      "attention": {
        "visibilityEvents": []
      },
      "calibration": {
        "monitorWidthCm": 38,
        "viewingDistanceCm": 54,
        "pixelsPerDegree": 50
      },
      "parameters": {
        "coherence": 0.4,
        "apertureDeg": 5,
        "densityDotsPerDeg2": 40,
        "dotDiameterDeg": 0.035,
        "dotSpeedDegPerSec": 3,
        "lifetimeMs": 200,
        "fixationDurationMs": 1500,
        "faceDurationMs": 1500,
        "testDurationMs": 2000,
        "catchResponseMs": 3000
      },
      "prolific": {
        "prolificPid": "5c8ec49f692c610001e14eca",
        "studyId": "",
        "sessionId": ""
      },
      "timing": {
        "startTime": "2026-03-06T02:53:29.078Z",
        "endTime": "2026-03-06T03:07:32.960Z",
        "totalElapsedTimeMs": 843882
      }
    },
    "trials": [
      {
        "trial_number": 0,
        "trial_index": 52,
        "rt": 1529,
        "correct": true,
        "response": "ArrowLeft",
        "congruent": true,
        "gazeTowards": false,
        "gazeCondition": "away",
        "faceOnLeft": false,
        "impliedDirection": 180,
        "testDirection": 180,
        "avgFps": 144,
        "minFps": 141,
        "maxFps": 147,
        "totalFrames": 221,
        "frameRates": 144
      },
      {
        "trial_number": 1,
        "trial_index": 60,
        "rt": 1766,
        "correct": true,
        "response": "ArrowRight",
        "congruent": true,
        "gazeTowards": false,
        "gazeCondition": "away",
        "faceOnLeft": true,
        "impliedDirection": 0,
        "testDirection": 0,
        "avgFps": 144,
        "minFps": 141,
        "maxFps": 147,
        "totalFrames": 254,
        "frameRates": 144
      },
      {
        "trial_number": 2,
        "trial_index": 65,
        "rt": 1389,
        "correct": true,
        "response": "ArrowRight",
        "congruent": true,
        "gazeTowards": false,
        "gazeCondition": "away",
        "faceOnLeft": true,
        "impliedDirection": 0,
        "testDirection": 0,
        "avgFps": 144,
        "minFps": 141,
        "maxFps": 147,
        "totalFrames": 200,
        "frameRates": 144
      },
      {
        "trial_number": 3,
        "trial_index": 70,
        "rt": 1572,
        "correct": true,
        "response": "ArrowRight",
        "congruent": true,
        "gazeTowards": false,
        "gazeCondition": "away",
        "faceOnLeft": true,
        "impliedDirection": 0,
        "testDirection": 0,
        "avgFps": 144,
        "minFps": 141,
        "maxFps": 147,
        "totalFrames": 226,
        "frameRates": 144
      },
      {
        "trial_number": 4,
        "trial_index": 75,
        "rt": 958,
        "correct": true,
        "response": "ArrowLeft",
        "congruent": false,
        "gazeTowards": false,
        "gazeCondition": "away",
        "faceOnLeft": true,
        "impliedDirection": 0,
        "testDirection": 180,
        "avgFps": 144,
        "minFps": 141,
        "maxFps": 147,
        "totalFrames": 138,
        "frameRates": 144
      },
      {
        "trial_number": 5,
        "trial_index": 80,
        "rt": 1695,
        "correct": true,
        "response": "ArrowRight",
        "congruent": true,
        "gazeTowards": true,
        "gazeCondition": "towards",
        "faceOnLeft": true,
        "impliedDirection": 0,
        "testDirection": 0,
        "avgFps": 144,
        "minFps": 141,
        "maxFps": 147,
        "totalFrames": 244,
        "frameRates": 144
      },
      {
        "trial_number": 6,
        "trial_index": 85,
        "rt": 913,
        "correct": true,
        "response": "ArrowLeft",
        "congruent": false,
        "gazeTowards": false,
        "gazeCondition": "away",
        "faceOnLeft": true,
        "impliedDirection": 0,
        "testDirection": 180,
        "avgFps": 144,
        "minFps": 141,
        "maxFps": 233,
        "totalFrames": 132,
        "frameRates": 144
      },
      {
        "trial_number": 7,
        "trial_index": 90,
        "rt": 1549,
        "correct": true,
        "response": "ArrowRight",
        "congruent": false,
        "gazeTowards": true,
        "gazeCondition": "towards",
        "faceOnLeft": false,
        "impliedDirection": 180,
        "testDirection": 0,
        "avgFps": 144,
        "minFps": 141,
        "maxFps": 233,
        "totalFrames": 223,
        "frameRates": 144
      },
      {
        "trial_number": 8,
        "trial_index": 95,
        "rt": 1068,
        "correct": true,
        "response": "ArrowLeft",
        "congruent": true,
        "gazeTowards": true,
        "gazeCondition": "towards",
        "faceOnLeft": false,
        "impliedDirection": 180,
        "testDirection": 180,
        "avgFps": 144,
        "minFps": 141,
        "maxFps": 147,
        "totalFrames": 153,
        "frameRates": 144
      },
      {
        "trial_number": 9,
        "trial_index": 103,
        "rt": 1970,
        "correct": true,
        "response": "ArrowRight",
        "congruent": true,
        "gazeTowards": false,
        "gazeCondition": "away",
        "faceOnLeft": true,
        "impliedDirection": 0,
        "testDirection": 0,
        "avgFps": 144,
        "minFps": 141,
        "maxFps": 233,
        "totalFrames": 284,
        "frameRates": 144
      },
      {
        "trial_number": 10,
        "trial_index": 108,
        "rt": 954,
        "correct": true,
        "response": "ArrowLeft",
        "congruent": true,
        "gazeTowards": false,
        "gazeCondition": "away",
        "faceOnLeft": false,
        "impliedDirection": 180,
        "testDirection": 180,
        "avgFps": 144,
        "minFps": 141,
        "maxFps": 147,
        "totalFrames": 137,
        "frameRates": 144
      },
      {
        "trial_number": 11,
        "trial_index": 113,
        "rt": 1259,
        "correct": true,
        "response": "ArrowRight",
        "congruent": false,
        "gazeTowards": false,
        "gazeCondition": "away",
        "faceOnLeft": false,
        "impliedDirection": 180,
        "testDirection": 0,
        "avgFps": 144,
        "minFps": 141,
        "maxFps": 233,
        "totalFrames": 181,
        "frameRates": 144
      },
      {
        "trial_number": 12,
        "trial_index": 118,
        "rt": 749,
        "correct": true,
        "response": "ArrowLeft",
        "congruent": true,
        "gazeTowards": true,
        "gazeCondition": "towards",
        "faceOnLeft": false,
        "impliedDirection": 180,
        "testDirection": 180,
        "avgFps": 145,
        "minFps": 141,
        "maxFps": 228,
        "totalFrames": 108,
        "frameRates": 145
      },
      {
        "trial_number": 13,
        "trial_index": 123,
        "rt": 893,
        "correct": true,
        "response": "ArrowLeft",
        "congruent": false,
        "gazeTowards": true,
        "gazeCondition": "towards",
        "faceOnLeft": true,
        "impliedDirection": 0,
        "testDirection": 180,
        "avgFps": 143,
        "minFps": 71,
        "maxFps": 147,
        "totalFrames": 128,
        "frameRates": 143
      },
      {
        "trial_number": 14,
        "trial_index": 128,
        "rt": 1008,
        "correct": true,
        "response": "ArrowLeft",
        "congruent": true,
        "gazeTowards": false,
        "gazeCondition": "away",
        "faceOnLeft": false,
        "impliedDirection": 180,
        "testDirection": 180,
        "avgFps": 144,
        "minFps": 141,
        "maxFps": 147,
        "totalFrames": 145,
        "frameRates": 144
      },
      {
        "trial_number": 15,
        "trial_index": 136,
        "rt": 1270,
        "correct": true,
        "response": "ArrowLeft",
        "congruent": true,
        "gazeTowards": true,
        "gazeCondition": "towards",
        "faceOnLeft": false,
        "impliedDirection": 180,
        "testDirection": 180,
        "avgFps": 144,
        "minFps": 141,
        "maxFps": 233,
        "totalFrames": 183,
        "frameRates": 144
      },
      {
        "trial_number": 16,
        "trial_index": 141,
        "rt": 1137,
        "correct": true,
        "response": "ArrowLeft",
        "congruent": false,
        "gazeTowards": false,
        "gazeCondition": "away",
        "faceOnLeft": true,
        "impliedDirection": 0,
        "testDirection": 180,
        "avgFps": 144,
        "minFps": 141,
        "maxFps": 147,
        "totalFrames": 164,
        "frameRates": 144
      },
      {
        "trial_number": 17,
        "trial_index": 146,
        "rt": 1632,
        "correct": true,
        "response": "ArrowLeft",
        "congruent": false,
        "gazeTowards": true,
        "gazeCondition": "towards",
        "faceOnLeft": true,
        "impliedDirection": 0,
        "testDirection": 180,
        "avgFps": 144,
        "minFps": 141,
        "maxFps": 147,
        "totalFrames": 235,
        "frameRates": 144
      },
      {
        "trial_number": 18,
        "trial_index": 151,
        "rt": 1507,
        "correct": true,
        "response": "ArrowLeft",
        "congruent": true,
        "gazeTowards": true,
        "gazeCondition": "towards",
        "faceOnLeft": false,
        "impliedDirection": 180,
        "testDirection": 180,
        "avgFps": 144,
        "minFps": 141,
        "maxFps": 147,
        "totalFrames": 217,
        "frameRates": 144
      },
      {
        "trial_number": 19,
        "trial_index": 156,
        "rt": 1704,
        "correct": true,
        "response": "ArrowLeft",
        "congruent": true,
        "gazeTowards": false,
        "gazeCondition": "away",
        "faceOnLeft": false,
        "impliedDirection": 180,
        "testDirection": 180,
        "avgFps": 144,
        "minFps": 141,
        "maxFps": 147,
        "totalFrames": 245,
        "frameRates": 144
      },
      {
        "trial_number": 20,
        "trial_index": 161,
        "rt": 1225,
        "correct": true,
        "response": "ArrowRight",
        "congruent": true,
        "gazeTowards": false,
        "gazeCondition": "away",
        "faceOnLeft": true,
        "impliedDirection": 0,
        "testDirection": 0,
        "avgFps": 144,
        "minFps": 141,
        "maxFps": 147,
        "totalFrames": 176,
        "frameRates": 144
      },
      {
        "trial_number": 21,
        "trial_index": 166,
        "rt": 1206,
        "correct": true,
        "response": "ArrowLeft",
        "congruent": false,
        "gazeTowards": true,
        "gazeCondition": "towards",
        "faceOnLeft": true,
        "impliedDirection": 0,
        "testDirection": 180,
        "avgFps": 144,
        "minFps": 141,
        "maxFps": 147,
        "totalFrames": 173,
        "frameRates": 144
      },
      {
        "trial_number": 22,
        "trial_index": 171,
        "rt": 1063,
        "correct": true,
        "response": "ArrowRight",
        "congruent": false,
        "gazeTowards": true,
        "gazeCondition": "towards",
        "faceOnLeft": false,
        "impliedDirection": 180,
        "testDirection": 0,
        "avgFps": 144,
        "minFps": 141,
        "maxFps": 233,
        "totalFrames": 153,
        "frameRates": 144
      },
      {
        "trial_number": 23,
        "trial_index": 176,
        "rt": 1726,
        "correct": true,
        "response": "ArrowLeft",
        "congruent": false,
        "gazeTowards": false,
        "gazeCondition": "away",
        "faceOnLeft": true,
        "impliedDirection": 0,
        "testDirection": 180,
        "avgFps": 144,
        "minFps": 141,
        "maxFps": 228,
        "totalFrames": 248,
        "frameRates": 144
      },
      {
        "trial_number": 24,
        "trial_index": 181,
        "rt": 1230,
        "correct": true,
        "response": "ArrowRight",
        "congruent": true,
        "gazeTowards": false,
        "gazeCondition": "away",
        "faceOnLeft": true,
        "impliedDirection": 0,
        "testDirection": 0,
        "avgFps": 145,
        "minFps": 141,
        "maxFps": 630,
        "totalFrames": 177,
        "frameRates": 145
      },
      {
        "trial_number": 25,
        "trial_index": 186,
        "rt": 1063,
        "correct": true,
        "response": "ArrowRight",
        "congruent": true,
        "gazeTowards": false,
        "gazeCondition": "away",
        "faceOnLeft": true,
        "impliedDirection": 0,
        "testDirection": 0,
        "avgFps": 144,
        "minFps": 141,
        "maxFps": 147,
        "totalFrames": 153,
        "frameRates": 144
      },
      {
        "trial_number": 26,
        "trial_index": 191,
        "rt": 1621,
        "correct": true,
        "response": "ArrowLeft",
        "congruent": true,
        "gazeTowards": true,
        "gazeCondition": "towards",
        "faceOnLeft": false,
        "impliedDirection": 180,
        "testDirection": 180,
        "avgFps": 144,
        "minFps": 141,
        "maxFps": 147,
        "totalFrames": 233,
        "frameRates": 144
      },
      {
        "trial_number": 27,
        "trial_index": 196,
        "rt": 1028,
        "correct": true,
        "response": "ArrowRight",
        "congruent": false,
        "gazeTowards": true,
        "gazeCondition": "towards",
        "faceOnLeft": false,
        "impliedDirection": 180,
        "testDirection": 0,
        "avgFps": 143,
        "minFps": 69,
        "maxFps": 154,
        "totalFrames": 147,
        "frameRates": 143
      },
      {
        "trial_number": 28,
        "trial_index": 201,
        "rt": 1136,
        "correct": true,
        "response": "ArrowRight",
        "congruent": false,
        "gazeTowards": false,
        "gazeCondition": "away",
        "faceOnLeft": false,
        "impliedDirection": 180,
        "testDirection": 0,
        "avgFps": 144,
        "minFps": 141,
        "maxFps": 147,
        "totalFrames": 163,
        "frameRates": 144
      },
      {
        "trial_number": 29,
        "trial_index": 207,
        "rt": 1509,
        "correct": true,
        "response": "ArrowLeft",
        "congruent": false,
        "gazeTowards": true,
        "gazeCondition": "towards",
        "faceOnLeft": true,
        "impliedDirection": 0,
        "testDirection": 180,
        "avgFps": 144,
        "minFps": 140,
        "maxFps": 147,
        "totalFrames": 218,
        "frameRates": 144
      },
      {
        "trial_number": 30,
        "trial_index": 212,
        "rt": 1775,
        "correct": true,
        "response": "ArrowLeft",
        "congruent": false,
        "gazeTowards": false,
        "gazeCondition": "away",
        "faceOnLeft": true,
        "impliedDirection": 0,
        "testDirection": 180,
        "avgFps": 144,
        "minFps": 141,
        "maxFps": 147,
        "totalFrames": 256,
        "frameRates": 144
      },
      {
        "trial_number": 31,
        "trial_index": 217,
        "rt": 1018,
        "correct": true,
        "response": "ArrowRight",
        "congruent": false,
        "gazeTowards": false,
        "gazeCondition": "away",
        "faceOnLeft": false,
        "impliedDirection": 180,
        "testDirection": 0,
        "avgFps": 143,
        "minFps": 71,
        "maxFps": 147,
        "totalFrames": 146,
        "frameRates": 143
      },
      {
        "trial_number": 32,
        "trial_index": 222,
        "rt": 1086,
        "correct": true,
        "response": "ArrowLeft",
        "congruent": false,
        "gazeTowards": true,
        "gazeCondition": "towards",
        "faceOnLeft": true,
        "impliedDirection": 0,
        "testDirection": 180,
        "avgFps": 144,
        "minFps": 141,
        "maxFps": 147,
        "totalFrames": 156,
        "frameRates": 144
      },
      {
        "trial_number": 33,
        "trial_index": 227,
        "rt": 1109,
        "correct": true,
        "response": "ArrowRight",
        "congruent": false,
        "gazeTowards": false,
        "gazeCondition": "away",
        "faceOnLeft": false,
        "impliedDirection": 180,
        "testDirection": 0,
        "avgFps": 144,
        "minFps": 141,
        "maxFps": 228,
        "totalFrames": 160,
        "frameRates": 144
      },
      {
        "trial_number": 34,
        "trial_index": 232,
        "rt": 975,
        "correct": true,
        "response": "ArrowLeft",
        "congruent": true,
        "gazeTowards": true,
        "gazeCondition": "towards",
        "faceOnLeft": false,
        "impliedDirection": 180,
        "testDirection": 180,
        "avgFps": 144,
        "minFps": 139,
        "maxFps": 147,
        "totalFrames": 140,
        "frameRates": 144
      },
      {
        "trial_number": 35,
        "trial_index": 237,
        "rt": 1834,
        "correct": true,
        "response": "ArrowLeft",
        "congruent": true,
        "gazeTowards": true,
        "gazeCondition": "towards",
        "faceOnLeft": false,
        "impliedDirection": 180,
        "testDirection": 180,
        "avgFps": 144,
        "minFps": 141,
        "maxFps": 147,
        "totalFrames": 264,
        "frameRates": 144
      },
      {
        "trial_number": 36,
        "trial_index": 242,
        "rt": null,
        "correct": false,
        "response": null,
        "congruent": true,
        "gazeTowards": false,
        "gazeCondition": "away",
        "faceOnLeft": false,
        "impliedDirection": 180,
        "testDirection": 180,
        "avgFps": 144,
        "minFps": 143,
        "maxFps": 147,
        "totalFrames": 288,
        "frameRates": 144
      },
      {
        "trial_number": 37,
        "trial_index": 247,
        "rt": 809,
        "correct": true,
        "response": "ArrowRight",
        "congruent": false,
        "gazeTowards": false,
        "gazeCondition": "away",
        "faceOnLeft": false,
        "impliedDirection": 180,
        "testDirection": 0,
        "avgFps": 144,
        "minFps": 141,
        "maxFps": 228,
        "totalFrames": 117,
        "frameRates": 144
      },
      {
        "trial_number": 38,
        "trial_index": 252,
        "rt": 773,
        "correct": true,
        "response": "ArrowRight",
        "congruent": false,
        "gazeTowards": false,
        "gazeCondition": "away",
        "faceOnLeft": false,
        "impliedDirection": 180,
        "testDirection": 0,
        "avgFps": 145,
        "minFps": 141,
        "maxFps": 342,
        "totalFrames": 111,
        "frameRates": 145
      },
      {
        "trial_number": 39,
        "trial_index": 257,
        "rt": 1042,
        "correct": true,
        "response": "ArrowLeft",
        "congruent": false,
        "gazeTowards": true,
        "gazeCondition": "towards",
        "faceOnLeft": true,
        "impliedDirection": 0,
        "testDirection": 180,
        "avgFps": 144,
        "minFps": 141,
        "maxFps": 228,
        "totalFrames": 150,
        "frameRates": 144
      },
      {
        "trial_number": 40,
        "trial_index": 262,
        "rt": 1496,
        "correct": true,
        "response": "ArrowLeft",
        "congruent": true,
        "gazeTowards": false,
        "gazeCondition": "away",
        "faceOnLeft": false,
        "impliedDirection": 180,
        "testDirection": 180,
        "avgFps": 144,
        "minFps": 141,
        "maxFps": 238,
        "totalFrames": 216,
        "frameRates": 144
      },
      {
        "trial_number": 41,
        "trial_index": 267,
        "rt": 814,
        "correct": true,
        "response": "ArrowRight",
        "congruent": false,
        "gazeTowards": true,
        "gazeCondition": "towards",
        "faceOnLeft": false,
        "impliedDirection": 180,
        "testDirection": 0,
        "avgFps": 144,
        "minFps": 141,
        "maxFps": 147,
        "totalFrames": 117,
        "frameRates": 144
      },
      {
        "trial_number": 42,
        "trial_index": 272,
        "rt": 813,
        "correct": true,
        "response": "ArrowLeft",
        "congruent": true,
        "gazeTowards": true,
        "gazeCondition": "towards",
        "faceOnLeft": false,
        "impliedDirection": 180,
        "testDirection": 180,
        "avgFps": 144,
        "minFps": 141,
        "maxFps": 147,
        "totalFrames": 117,
        "frameRates": 144
      },
      {
        "trial_number": 43,
        "trial_index": 277,
        "rt": 772,
        "correct": true,
        "response": "ArrowRight",
        "congruent": false,
        "gazeTowards": false,
        "gazeCondition": "away",
        "faceOnLeft": false,
        "impliedDirection": 180,
        "testDirection": 0,
        "avgFps": 144,
        "minFps": 141,
        "maxFps": 147,
        "totalFrames": 111,
        "frameRates": 144
      },
      {
        "trial_number": 44,
        "trial_index": 285,
        "rt": 933,
        "correct": true,
        "response": "ArrowLeft",
        "congruent": true,
        "gazeTowards": false,
        "gazeCondition": "away",
        "faceOnLeft": false,
        "impliedDirection": 180,
        "testDirection": 180,
        "avgFps": 144,
        "minFps": 141,
        "maxFps": 147,
        "totalFrames": 135,
        "frameRates": 144
      },
      {
        "trial_number": 45,
        "trial_index": 290,
        "rt": 1238,
        "correct": true,
        "response": "ArrowLeft",
        "congruent": true,
        "gazeTowards": true,
        "gazeCondition": "towards",
        "faceOnLeft": false,
        "impliedDirection": 180,
        "testDirection": 180,
        "avgFps": 143,
        "minFps": 71,
        "maxFps": 147,
        "totalFrames": 178,
        "frameRates": 143
      },
      {
        "trial_number": 46,
        "trial_index": 295,
        "rt": 1296,
        "correct": true,
        "response": "ArrowLeft",
        "congruent": true,
        "gazeTowards": true,
        "gazeCondition": "towards",
        "faceOnLeft": false,
        "impliedDirection": 180,
        "testDirection": 180,
        "avgFps": 144,
        "minFps": 141,
        "maxFps": 147,
        "totalFrames": 187,
        "frameRates": 144
      },
      {
        "trial_number": 47,
        "trial_index": 300,
        "rt": 854,
        "correct": true,
        "response": "ArrowRight",
        "congruent": true,
        "gazeTowards": true,
        "gazeCondition": "towards",
        "faceOnLeft": true,
        "impliedDirection": 0,
        "testDirection": 0,
        "avgFps": 144,
        "minFps": 141,
        "maxFps": 149,
        "totalFrames": 123,
        "frameRates": 144
      },
      {
        "trial_number": 48,
        "trial_index": 305,
        "rt": 998,
        "correct": true,
        "response": "ArrowLeft",
        "congruent": false,
        "gazeTowards": false,
        "gazeCondition": "away",
        "faceOnLeft": true,
        "impliedDirection": 0,
        "testDirection": 180,
        "avgFps": 144,
        "minFps": 141,
        "maxFps": 238,
        "totalFrames": 144,
        "frameRates": 144
      },
      {
        "trial_number": 49,
        "trial_index": 310,
        "rt": 1012,
        "correct": true,
        "response": "ArrowLeft",
        "congruent": false,
        "gazeTowards": true,
        "gazeCondition": "towards",
        "faceOnLeft": true,
        "impliedDirection": 0,
        "testDirection": 180,
        "avgFps": 144,
        "minFps": 143,
        "maxFps": 147,
        "totalFrames": 146,
        "frameRates": 144
      },
      {
        "trial_number": 50,
        "trial_index": 315,
        "rt": 880,
        "correct": true,
        "response": "ArrowRight",
        "congruent": false,
        "gazeTowards": false,
        "gazeCondition": "away",
        "faceOnLeft": false,
        "impliedDirection": 180,
        "testDirection": 0,
        "avgFps": 144,
        "minFps": 141,
        "maxFps": 233,
        "totalFrames": 127,
        "frameRates": 144
      },
      {
        "trial_number": 51,
        "trial_index": 320,
        "rt": 729,
        "correct": true,
        "response": "ArrowLeft",
        "congruent": false,
        "gazeTowards": true,
        "gazeCondition": "towards",
        "faceOnLeft": true,
        "impliedDirection": 0,
        "testDirection": 180,
        "avgFps": 144,
        "minFps": 143,
        "maxFps": 147,
        "totalFrames": 105,
        "frameRates": 144
      },
      {
        "trial_number": 52,
        "trial_index": 325,
        "rt": 897,
        "correct": true,
        "response": "ArrowLeft",
        "congruent": true,
        "gazeTowards": false,
        "gazeCondition": "away",
        "faceOnLeft": false,
        "impliedDirection": 180,
        "testDirection": 180,
        "avgFps": 145,
        "minFps": 141,
        "maxFps": 347,
        "totalFrames": 129,
        "frameRates": 145
      },
      {
        "trial_number": 53,
        "trial_index": 333,
        "rt": 765,
        "correct": true,
        "response": "ArrowRight",
        "congruent": false,
        "gazeTowards": true,
        "gazeCondition": "towards",
        "faceOnLeft": false,
        "impliedDirection": 180,
        "testDirection": 0,
        "avgFps": 143,
        "minFps": 71,
        "maxFps": 147,
        "totalFrames": 110,
        "frameRates": 143
      },
      {
        "trial_number": 54,
        "trial_index": 341,
        "rt": 753,
        "correct": true,
        "response": "ArrowRight",
        "congruent": false,
        "gazeTowards": false,
        "gazeCondition": "away",
        "faceOnLeft": false,
        "impliedDirection": 180,
        "testDirection": 0,
        "avgFps": 144,
        "minFps": 141,
        "maxFps": 147,
        "totalFrames": 108,
        "frameRates": 144
      },
      {
        "trial_number": 55,
        "trial_index": 346,
        "rt": 850,
        "correct": true,
        "response": "ArrowRight",
        "congruent": false,
        "gazeTowards": true,
        "gazeCondition": "towards",
        "faceOnLeft": false,
        "impliedDirection": 180,
        "testDirection": 0,
        "avgFps": 144,
        "minFps": 101,
        "maxFps": 147,
        "totalFrames": 122,
        "frameRates": 144
      },
      {
        "trial_number": 56,
        "trial_index": 351,
        "rt": 1072,
        "correct": true,
        "response": "ArrowRight",
        "congruent": false,
        "gazeTowards": false,
        "gazeCondition": "away",
        "faceOnLeft": false,
        "impliedDirection": 180,
        "testDirection": 0,
        "avgFps": 143,
        "minFps": 71,
        "maxFps": 147,
        "totalFrames": 154,
        "frameRates": 143
      },
      {
        "trial_number": 57,
        "trial_index": 356,
        "rt": 799,
        "correct": true,
        "response": "ArrowRight",
        "congruent": false,
        "gazeTowards": false,
        "gazeCondition": "away",
        "faceOnLeft": false,
        "impliedDirection": 180,
        "testDirection": 0,
        "avgFps": 144,
        "minFps": 141,
        "maxFps": 147,
        "totalFrames": 115,
        "frameRates": 144
      },
      {
        "trial_number": 58,
        "trial_index": 365,
        "rt": 828,
        "correct": true,
        "response": "ArrowLeft",
        "congruent": false,
        "gazeTowards": false,
        "gazeCondition": "away",
        "faceOnLeft": true,
        "impliedDirection": 0,
        "testDirection": 180,
        "avgFps": 144,
        "minFps": 141,
        "maxFps": 147,
        "totalFrames": 119,
        "frameRates": 144
      },
      {
        "trial_number": 59,
        "trial_index": 370,
        "rt": 961,
        "correct": true,
        "response": "ArrowLeft",
        "congruent": true,
        "gazeTowards": true,
        "gazeCondition": "towards",
        "faceOnLeft": false,
        "impliedDirection": 180,
        "testDirection": 180,
        "avgFps": 144,
        "minFps": 141,
        "maxFps": 147,
        "totalFrames": 138,
        "frameRates": 144
      },
      {
        "trial_number": 60,
        "trial_index": 375,
        "rt": 857,
        "correct": true,
        "response": "ArrowLeft",
        "congruent": true,
        "gazeTowards": true,
        "gazeCondition": "towards",
        "faceOnLeft": false,
        "impliedDirection": 180,
        "testDirection": 180,
        "avgFps": 144,
        "minFps": 141,
        "maxFps": 147,
        "totalFrames": 123,
        "frameRates": 144
      },
      {
        "trial_number": 61,
        "trial_index": 380,
        "rt": 805,
        "correct": true,
        "response": "ArrowLeft",
        "congruent": true,
        "gazeTowards": true,
        "gazeCondition": "towards",
        "faceOnLeft": false,
        "impliedDirection": 180,
        "testDirection": 180,
        "avgFps": 144,
        "minFps": 141,
        "maxFps": 147,
        "totalFrames": 116,
        "frameRates": 144
      },
      {
        "trial_number": 62,
        "trial_index": 385,
        "rt": 727,
        "correct": true,
        "response": "ArrowRight",
        "congruent": true,
        "gazeTowards": true,
        "gazeCondition": "towards",
        "faceOnLeft": true,
        "impliedDirection": 0,
        "testDirection": 0,
        "avgFps": 144,
        "minFps": 141,
        "maxFps": 147,
        "totalFrames": 105,
        "frameRates": 144
      },
      {
        "trial_number": 63,
        "trial_index": 390,
        "rt": 769,
        "correct": true,
        "response": "ArrowLeft",
        "congruent": true,
        "gazeTowards": false,
        "gazeCondition": "away",
        "faceOnLeft": false,
        "impliedDirection": 180,
        "testDirection": 180,
        "avgFps": 144,
        "minFps": 141,
        "maxFps": 147,
        "totalFrames": 111,
        "frameRates": 144
      },
      {
        "trial_number": 64,
        "trial_index": 395,
        "rt": 849,
        "correct": true,
        "response": "ArrowLeft",
        "congruent": true,
        "gazeTowards": false,
        "gazeCondition": "away",
        "faceOnLeft": false,
        "impliedDirection": 180,
        "testDirection": 180,
        "avgFps": 144,
        "minFps": 141,
        "maxFps": 238,
        "totalFrames": 122,
        "frameRates": 144
      },
      {
        "trial_number": 65,
        "trial_index": 400,
        "rt": 980,
        "correct": true,
        "response": "ArrowRight",
        "congruent": false,
        "gazeTowards": true,
        "gazeCondition": "towards",
        "faceOnLeft": false,
        "impliedDirection": 180,
        "testDirection": 0,
        "avgFps": 143,
        "minFps": 70,
        "maxFps": 152,
        "totalFrames": 141,
        "frameRates": 143
      },
      {
        "trial_number": 66,
        "trial_index": 405,
        "rt": 795,
        "correct": true,
        "response": "ArrowRight",
        "congruent": false,
        "gazeTowards": false,
        "gazeCondition": "away",
        "faceOnLeft": false,
        "impliedDirection": 180,
        "testDirection": 0,
        "avgFps": 144,
        "minFps": 141,
        "maxFps": 147,
        "totalFrames": 114,
        "frameRates": 144
      },
      {
        "trial_number": 67,
        "trial_index": 410,
        "rt": 780,
        "correct": true,
        "response": "ArrowLeft",
        "congruent": true,
        "gazeTowards": false,
        "gazeCondition": "away",
        "faceOnLeft": false,
        "impliedDirection": 180,
        "testDirection": 180,
        "avgFps": 144,
        "minFps": 141,
        "maxFps": 147,
        "totalFrames": 113,
        "frameRates": 144
      },
      {
        "trial_number": 68,
        "trial_index": 415,
        "rt": 1171,
        "correct": true,
        "response": "ArrowRight",
        "congruent": true,
        "gazeTowards": false,
        "gazeCondition": "away",
        "faceOnLeft": true,
        "impliedDirection": 0,
        "testDirection": 0,
        "avgFps": 144,
        "minFps": 141,
        "maxFps": 147,
        "totalFrames": 169,
        "frameRates": 144
      },
      {
        "trial_number": 69,
        "trial_index": 420,
        "rt": 712,
        "correct": true,
        "response": "ArrowLeft",
        "congruent": false,
        "gazeTowards": true,
        "gazeCondition": "towards",
        "faceOnLeft": true,
        "impliedDirection": 0,
        "testDirection": 180,
        "avgFps": 145,
        "minFps": 141,
        "maxFps": 230,
        "totalFrames": 103,
        "frameRates": 145
      },
      {
        "trial_number": 70,
        "trial_index": 425,
        "rt": 743,
        "correct": true,
        "response": "ArrowLeft",
        "congruent": false,
        "gazeTowards": true,
        "gazeCondition": "towards",
        "faceOnLeft": true,
        "impliedDirection": 0,
        "testDirection": 180,
        "avgFps": 144,
        "minFps": 141,
        "maxFps": 147,
        "totalFrames": 107,
        "frameRates": 144
      },
      {
        "trial_number": 71,
        "trial_index": 430,
        "rt": 1069,
        "correct": true,
        "response": "ArrowRight",
        "congruent": false,
        "gazeTowards": false,
        "gazeCondition": "away",
        "faceOnLeft": false,
        "impliedDirection": 180,
        "testDirection": 0,
        "avgFps": 143,
        "minFps": 88,
        "maxFps": 147,
        "totalFrames": 153,
        "frameRates": 143
      },
      {
        "trial_number": 72,
        "trial_index": 435,
        "rt": 1145,
        "correct": true,
        "response": "ArrowRight",
        "congruent": true,
        "gazeTowards": false,
        "gazeCondition": "away",
        "faceOnLeft": true,
        "impliedDirection": 0,
        "testDirection": 0,
        "avgFps": 144,
        "minFps": 100,
        "maxFps": 147,
        "totalFrames": 164,
        "frameRates": 144
      },
      {
        "trial_number": 73,
        "trial_index": 440,
        "rt": 689,
        "correct": true,
        "response": "ArrowLeft",
        "congruent": false,
        "gazeTowards": true,
        "gazeCondition": "towards",
        "faceOnLeft": true,
        "impliedDirection": 0,
        "testDirection": 180,
        "avgFps": 144,
        "minFps": 141,
        "maxFps": 147,
        "totalFrames": 99,
        "frameRates": 144
      },
      {
        "trial_number": 74,
        "trial_index": 445,
        "rt": 869,
        "correct": true,
        "response": "ArrowRight",
        "congruent": false,
        "gazeTowards": false,
        "gazeCondition": "away",
        "faceOnLeft": false,
        "impliedDirection": 180,
        "testDirection": 0,
        "avgFps": 144,
        "minFps": 141,
        "maxFps": 233,
        "totalFrames": 125,
        "frameRates": 144
      },
      {
        "trial_number": 75,
        "trial_index": 450,
        "rt": 749,
        "correct": true,
        "response": "ArrowLeft",
        "congruent": true,
        "gazeTowards": false,
        "gazeCondition": "away",
        "faceOnLeft": false,
        "impliedDirection": 180,
        "testDirection": 180,
        "avgFps": 144,
        "minFps": 141,
        "maxFps": 147,
        "totalFrames": 108,
        "frameRates": 144
      },
      {
        "trial_number": 76,
        "trial_index": 455,
        "rt": 686,
        "correct": true,
        "response": "ArrowRight",
        "congruent": true,
        "gazeTowards": false,
        "gazeCondition": "away",
        "faceOnLeft": true,
        "impliedDirection": 0,
        "testDirection": 0,
        "avgFps": 144,
        "minFps": 141,
        "maxFps": 147,
        "totalFrames": 99,
        "frameRates": 144
      },
      {
        "trial_number": 77,
        "trial_index": 460,
        "rt": 707,
        "correct": true,
        "response": "ArrowLeft",
        "congruent": true,
        "gazeTowards": true,
        "gazeCondition": "towards",
        "faceOnLeft": false,
        "impliedDirection": 180,
        "testDirection": 180,
        "avgFps": 144,
        "minFps": 141,
        "maxFps": 147,
        "totalFrames": 102,
        "frameRates": 144
      },
      {
        "trial_number": 78,
        "trial_index": 465,
        "rt": 762,
        "correct": true,
        "response": "ArrowRight",
        "congruent": true,
        "gazeTowards": true,
        "gazeCondition": "towards",
        "faceOnLeft": true,
        "impliedDirection": 0,
        "testDirection": 0,
        "avgFps": 144,
        "minFps": 141,
        "maxFps": 147,
        "totalFrames": 109,
        "frameRates": 144
      },
      {
        "trial_number": 79,
        "trial_index": 470,
        "rt": 704,
        "correct": true,
        "response": "ArrowLeft",
        "congruent": true,
        "gazeTowards": true,
        "gazeCondition": "towards",
        "faceOnLeft": false,
        "impliedDirection": 180,
        "testDirection": 180,
        "avgFps": 144,
        "minFps": 141,
        "maxFps": 147,
        "totalFrames": 101,
        "frameRates": 144
      },
      {
        "trial_number": 80,
        "trial_index": 478,
        "rt": 738,
        "correct": true,
        "response": "ArrowRight",
        "congruent": false,
        "gazeTowards": false,
        "gazeCondition": "away",
        "faceOnLeft": false,
        "impliedDirection": 180,
        "testDirection": 0,
        "avgFps": 144,
        "minFps": 141,
        "maxFps": 147,
        "totalFrames": 106,
        "frameRates": 144
      },
      {
        "trial_number": 81,
        "trial_index": 486,
        "rt": 728,
        "correct": true,
        "response": "ArrowLeft",
        "congruent": false,
        "gazeTowards": false,
        "gazeCondition": "away",
        "faceOnLeft": true,
        "impliedDirection": 0,
        "testDirection": 180,
        "avgFps": 144,
        "minFps": 141,
        "maxFps": 147,
        "totalFrames": 105,
        "frameRates": 144
      },
      {
        "trial_number": 82,
        "trial_index": 491,
        "rt": 739,
        "correct": true,
        "response": "ArrowRight",
        "congruent": true,
        "gazeTowards": false,
        "gazeCondition": "away",
        "faceOnLeft": true,
        "impliedDirection": 0,
        "testDirection": 0,
        "avgFps": 144,
        "minFps": 141,
        "maxFps": 147,
        "totalFrames": 106,
        "frameRates": 144
      },
      {
        "trial_number": 83,
        "trial_index": 496,
        "rt": 620,
        "correct": true,
        "response": "ArrowLeft",
        "congruent": false,
        "gazeTowards": true,
        "gazeCondition": "towards",
        "faceOnLeft": true,
        "impliedDirection": 0,
        "testDirection": 180,
        "avgFps": 145,
        "minFps": 141,
        "maxFps": 228,
        "totalFrames": 89,
        "frameRates": 145
      },
      {
        "trial_number": 84,
        "trial_index": 501,
        "rt": 827,
        "correct": true,
        "response": "ArrowRight",
        "congruent": false,
        "gazeTowards": false,
        "gazeCondition": "away",
        "faceOnLeft": false,
        "impliedDirection": 180,
        "testDirection": 0,
        "avgFps": 144,
        "minFps": 141,
        "maxFps": 147,
        "totalFrames": 119,
        "frameRates": 144
      },
      {
        "trial_number": 85,
        "trial_index": 506,
        "rt": 705,
        "correct": true,
        "response": "ArrowRight",
        "congruent": false,
        "gazeTowards": true,
        "gazeCondition": "towards",
        "faceOnLeft": false,
        "impliedDirection": 180,
        "testDirection": 0,
        "avgFps": 144,
        "minFps": 141,
        "maxFps": 147,
        "totalFrames": 101,
        "frameRates": 144
      },
      {
        "trial_number": 86,
        "trial_index": 511,
        "rt": 637,
        "correct": true,
        "response": "ArrowRight",
        "congruent": false,
        "gazeTowards": false,
        "gazeCondition": "away",
        "faceOnLeft": false,
        "impliedDirection": 180,
        "testDirection": 0,
        "avgFps": 145,
        "minFps": 141,
        "maxFps": 233,
        "totalFrames": 92,
        "frameRates": 145
      },
      {
        "trial_number": 87,
        "trial_index": 519,
        "rt": 744,
        "correct": true,
        "response": "ArrowLeft",
        "congruent": false,
        "gazeTowards": true,
        "gazeCondition": "towards",
        "faceOnLeft": true,
        "impliedDirection": 0,
        "testDirection": 180,
        "avgFps": 144,
        "minFps": 141,
        "maxFps": 147,
        "totalFrames": 107,
        "frameRates": 144
      },
      {
        "trial_number": 88,
        "trial_index": 525,
        "rt": 1033,
        "correct": true,
        "response": "ArrowLeft",
        "congruent": false,
        "gazeTowards": false,
        "gazeCondition": "away",
        "faceOnLeft": true,
        "impliedDirection": 0,
        "testDirection": 180,
        "avgFps": 144,
        "minFps": 141,
        "maxFps": 147,
        "totalFrames": 148,
        "frameRates": 144
      },
      {
        "trial_number": 89,
        "trial_index": 530,
        "rt": 826,
        "correct": true,
        "response": "ArrowRight",
        "congruent": true,
        "gazeTowards": true,
        "gazeCondition": "towards",
        "faceOnLeft": true,
        "impliedDirection": 0,
        "testDirection": 0,
        "avgFps": 144,
        "minFps": 141,
        "maxFps": 147,
        "totalFrames": 119,
        "frameRates": 144
      },
      {
        "trial_number": 90,
        "trial_index": 535,
        "rt": 634,
        "correct": true,
        "response": "ArrowRight",
        "congruent": true,
        "gazeTowards": true,
        "gazeCondition": "towards",
        "faceOnLeft": true,
        "impliedDirection": 0,
        "testDirection": 0,
        "avgFps": 144,
        "minFps": 141,
        "maxFps": 154,
        "totalFrames": 91,
        "frameRates": 144
      },
      {
        "trial_number": 91,
        "trial_index": 540,
        "rt": 683,
        "correct": true,
        "response": "ArrowRight",
        "congruent": true,
        "gazeTowards": true,
        "gazeCondition": "towards",
        "faceOnLeft": true,
        "impliedDirection": 0,
        "testDirection": 0,
        "avgFps": 144,
        "minFps": 139,
        "maxFps": 147,
        "totalFrames": 98,
        "frameRates": 144
      },
      {
        "trial_number": 92,
        "trial_index": 545,
        "rt": 669,
        "correct": true,
        "response": "ArrowLeft",
        "congruent": false,
        "gazeTowards": true,
        "gazeCondition": "towards",
        "faceOnLeft": true,
        "impliedDirection": 0,
        "testDirection": 180,
        "avgFps": 145,
        "minFps": 141,
        "maxFps": 238,
        "totalFrames": 96,
        "frameRates": 145
      },
      {
        "trial_number": 93,
        "trial_index": 550,
        "rt": 732,
        "correct": true,
        "response": "ArrowRight",
        "congruent": true,
        "gazeTowards": false,
        "gazeCondition": "away",
        "faceOnLeft": true,
        "impliedDirection": 0,
        "testDirection": 0,
        "avgFps": 144,
        "minFps": 141,
        "maxFps": 147,
        "totalFrames": 105,
        "frameRates": 144
      },
      {
        "trial_number": 94,
        "trial_index": 555,
        "rt": 897,
        "correct": true,
        "response": "ArrowRight",
        "congruent": true,
        "gazeTowards": true,
        "gazeCondition": "towards",
        "faceOnLeft": true,
        "impliedDirection": 0,
        "testDirection": 0,
        "avgFps": 144,
        "minFps": 141,
        "maxFps": 233,
        "totalFrames": 129,
        "frameRates": 144
      },
      {
        "trial_number": 95,
        "trial_index": 560,
        "rt": 815,
        "correct": true,
        "response": "ArrowRight",
        "congruent": true,
        "gazeTowards": false,
        "gazeCondition": "away",
        "faceOnLeft": true,
        "impliedDirection": 0,
        "testDirection": 0,
        "avgFps": 144,
        "minFps": 141,
        "maxFps": 147,
        "totalFrames": 117,
        "frameRates": 144
      },
      {
        "trial_number": 96,
        "trial_index": 565,
        "rt": 925,
        "correct": true,
        "response": "ArrowRight",
        "congruent": false,
        "gazeTowards": false,
        "gazeCondition": "away",
        "faceOnLeft": false,
        "impliedDirection": 180,
        "testDirection": 0,
        "avgFps": 144,
        "minFps": 141,
        "maxFps": 147,
        "totalFrames": 133,
        "frameRates": 144
      },
      {
        "trial_number": 97,
        "trial_index": 570,
        "rt": 1239,
        "correct": true,
        "response": "ArrowRight",
        "congruent": false,
        "gazeTowards": true,
        "gazeCondition": "towards",
        "faceOnLeft": false,
        "impliedDirection": 180,
        "testDirection": 0,
        "avgFps": 144,
        "minFps": 141,
        "maxFps": 147,
        "totalFrames": 179,
        "frameRates": 144
      },
      {
        "trial_number": 98,
        "trial_index": 575,
        "rt": 742,
        "correct": true,
        "response": "ArrowRight",
        "congruent": true,
        "gazeTowards": true,
        "gazeCondition": "towards",
        "faceOnLeft": true,
        "impliedDirection": 0,
        "testDirection": 0,
        "avgFps": 144,
        "minFps": 141,
        "maxFps": 154,
        "totalFrames": 107,
        "frameRates": 144
      },
      {
        "trial_number": 99,
        "trial_index": 580,
        "rt": 548,
        "correct": true,
        "response": "ArrowLeft",
        "congruent": false,
        "gazeTowards": false,
        "gazeCondition": "away",
        "faceOnLeft": true,
        "impliedDirection": 0,
        "testDirection": 180,
        "avgFps": 144,
        "minFps": 143,
        "maxFps": 147,
        "totalFrames": 79,
        "frameRates": 144
      },
      {
        "trial_number": 100,
        "trial_index": 585,
        "rt": 691,
        "correct": true,
        "response": "ArrowLeft",
        "congruent": true,
        "gazeTowards": false,
        "gazeCondition": "away",
        "faceOnLeft": false,
        "impliedDirection": 180,
        "testDirection": 180,
        "avgFps": 144,
        "minFps": 141,
        "maxFps": 147,
        "totalFrames": 99,
        "frameRates": 144
      },
      {
        "trial_number": 101,
        "trial_index": 590,
        "rt": 989,
        "correct": true,
        "response": "ArrowRight",
        "congruent": true,
        "gazeTowards": true,
        "gazeCondition": "towards",
        "faceOnLeft": true,
        "impliedDirection": 0,
        "testDirection": 0,
        "avgFps": 144,
        "minFps": 141,
        "maxFps": 147,
        "totalFrames": 142,
        "frameRates": 144
      },
      {
        "trial_number": 102,
        "trial_index": 595,
        "rt": 547,
        "correct": true,
        "response": "ArrowLeft",
        "congruent": true,
        "gazeTowards": false,
        "gazeCondition": "away",
        "faceOnLeft": false,
        "impliedDirection": 180,
        "testDirection": 180,
        "avgFps": 145,
        "minFps": 141,
        "maxFps": 233,
        "totalFrames": 79,
        "frameRates": 145
      },
      {
        "trial_number": 103,
        "trial_index": 600,
        "rt": 940,
        "correct": true,
        "response": "ArrowLeft",
        "congruent": true,
        "gazeTowards": true,
        "gazeCondition": "towards",
        "faceOnLeft": false,
        "impliedDirection": 180,
        "testDirection": 180,
        "avgFps": 144,
        "minFps": 141,
        "maxFps": 147,
        "totalFrames": 136,
        "frameRates": 144
      },
      {
        "trial_number": 104,
        "trial_index": 605,
        "rt": 758,
        "correct": true,
        "response": "ArrowRight",
        "congruent": false,
        "gazeTowards": true,
        "gazeCondition": "towards",
        "faceOnLeft": false,
        "impliedDirection": 180,
        "testDirection": 0,
        "avgFps": 144,
        "minFps": 141,
        "maxFps": 147,
        "totalFrames": 109,
        "frameRates": 144
      },
      {
        "trial_number": 105,
        "trial_index": 610,
        "rt": 654,
        "correct": true,
        "response": "ArrowRight",
        "congruent": false,
        "gazeTowards": true,
        "gazeCondition": "towards",
        "faceOnLeft": false,
        "impliedDirection": 180,
        "testDirection": 0,
        "avgFps": 144,
        "minFps": 141,
        "maxFps": 147,
        "totalFrames": 94,
        "frameRates": 144
      },
      {
        "trial_number": 106,
        "trial_index": 615,
        "rt": 832,
        "correct": true,
        "response": "ArrowRight",
        "congruent": true,
        "gazeTowards": true,
        "gazeCondition": "towards",
        "faceOnLeft": true,
        "impliedDirection": 0,
        "testDirection": 0,
        "avgFps": 144,
        "minFps": 141,
        "maxFps": 147,
        "totalFrames": 119,
        "frameRates": 144
      },
      {
        "trial_number": 107,
        "trial_index": 620,
        "rt": 674,
        "correct": true,
        "response": "ArrowRight",
        "congruent": true,
        "gazeTowards": false,
        "gazeCondition": "away",
        "faceOnLeft": true,
        "impliedDirection": 0,
        "testDirection": 0,
        "avgFps": 144,
        "minFps": 141,
        "maxFps": 147,
        "totalFrames": 97,
        "frameRates": 144
      },
      {
        "trial_number": 108,
        "trial_index": 625,
        "rt": 619,
        "correct": true,
        "response": "ArrowLeft",
        "congruent": true,
        "gazeTowards": true,
        "gazeCondition": "towards",
        "faceOnLeft": false,
        "impliedDirection": 180,
        "testDirection": 180,
        "avgFps": 144,
        "minFps": 141,
        "maxFps": 147,
        "totalFrames": 89,
        "frameRates": 144
      },
      {
        "trial_number": 109,
        "trial_index": 630,
        "rt": 685,
        "correct": true,
        "response": "ArrowLeft",
        "congruent": false,
        "gazeTowards": true,
        "gazeCondition": "towards",
        "faceOnLeft": true,
        "impliedDirection": 0,
        "testDirection": 180,
        "avgFps": 144,
        "minFps": 143,
        "maxFps": 147,
        "totalFrames": 98,
        "frameRates": 144
      },
      {
        "trial_number": 110,
        "trial_index": 635,
        "rt": 711,
        "correct": true,
        "response": "ArrowRight",
        "congruent": false,
        "gazeTowards": false,
        "gazeCondition": "away",
        "faceOnLeft": false,
        "impliedDirection": 180,
        "testDirection": 0,
        "avgFps": 144,
        "minFps": 140,
        "maxFps": 147,
        "totalFrames": 103,
        "frameRates": 144
      },
      {
        "trial_number": 111,
        "trial_index": 640,
        "rt": 735,
        "correct": true,
        "response": "ArrowRight",
        "congruent": true,
        "gazeTowards": true,
        "gazeCondition": "towards",
        "faceOnLeft": true,
        "impliedDirection": 0,
        "testDirection": 0,
        "avgFps": 143,
        "minFps": 88,
        "maxFps": 147,
        "totalFrames": 105,
        "frameRates": 143
      },
      {
        "trial_number": 112,
        "trial_index": 645,
        "rt": 1169,
        "correct": true,
        "response": "ArrowRight",
        "congruent": false,
        "gazeTowards": true,
        "gazeCondition": "towards",
        "faceOnLeft": false,
        "impliedDirection": 180,
        "testDirection": 0,
        "avgFps": 144,
        "minFps": 141,
        "maxFps": 147,
        "totalFrames": 168,
        "frameRates": 144
      },
      {
        "trial_number": 113,
        "trial_index": 650,
        "rt": 813,
        "correct": true,
        "response": "ArrowRight",
        "congruent": false,
        "gazeTowards": true,
        "gazeCondition": "towards",
        "faceOnLeft": false,
        "impliedDirection": 180,
        "testDirection": 0,
        "avgFps": 144,
        "minFps": 141,
        "maxFps": 147,
        "totalFrames": 117,
        "frameRates": 144
      },
      {
        "trial_number": 114,
        "trial_index": 655,
        "rt": 582,
        "correct": true,
        "response": "ArrowLeft",
        "congruent": true,
        "gazeTowards": false,
        "gazeCondition": "away",
        "faceOnLeft": false,
        "impliedDirection": 180,
        "testDirection": 180,
        "avgFps": 145,
        "minFps": 141,
        "maxFps": 233,
        "totalFrames": 83,
        "frameRates": 145
      },
      {
        "trial_number": 115,
        "trial_index": 660,
        "rt": 658,
        "correct": true,
        "response": "ArrowLeft",
        "congruent": false,
        "gazeTowards": true,
        "gazeCondition": "towards",
        "faceOnLeft": true,
        "impliedDirection": 0,
        "testDirection": 180,
        "avgFps": 144,
        "minFps": 141,
        "maxFps": 147,
        "totalFrames": 94,
        "frameRates": 144
      },
      {
        "trial_number": 116,
        "trial_index": 665,
        "rt": 636,
        "correct": true,
        "response": "ArrowRight",
        "congruent": true,
        "gazeTowards": true,
        "gazeCondition": "towards",
        "faceOnLeft": true,
        "impliedDirection": 0,
        "testDirection": 0,
        "avgFps": 144,
        "minFps": 143,
        "maxFps": 147,
        "totalFrames": 91,
        "frameRates": 144
      },
      {
        "trial_number": 117,
        "trial_index": 670,
        "rt": 626,
        "correct": true,
        "response": "ArrowLeft",
        "congruent": false,
        "gazeTowards": true,
        "gazeCondition": "towards",
        "faceOnLeft": true,
        "impliedDirection": 0,
        "testDirection": 180,
        "avgFps": 144,
        "minFps": 141,
        "maxFps": 147,
        "totalFrames": 90,
        "frameRates": 144
      },
      {
        "trial_number": 118,
        "trial_index": 678,
        "rt": 736,
        "correct": true,
        "response": "ArrowRight",
        "congruent": false,
        "gazeTowards": false,
        "gazeCondition": "away",
        "faceOnLeft": false,
        "impliedDirection": 180,
        "testDirection": 0,
        "avgFps": 144,
        "minFps": 141,
        "maxFps": 147,
        "totalFrames": 106,
        "frameRates": 144
      },
      {
        "trial_number": 119,
        "trial_index": 683,
        "rt": 690,
        "correct": true,
        "response": "ArrowLeft",
        "congruent": true,
        "gazeTowards": false,
        "gazeCondition": "away",
        "faceOnLeft": false,
        "impliedDirection": 180,
        "testDirection": 180,
        "avgFps": 144,
        "minFps": 141,
        "maxFps": 147,
        "totalFrames": 99,
        "frameRates": 144
      }
    ],
    "catch": {
      "total": 12,
      "correct": 12,
      "accuracy": 100,
      "meanRT": 574,
      "trials": [
        {
          "trial_number": 0,
          "trial_index": 48,
          "rt": 825,
          "correct": true,
          "colorTarget": "face",
          "gazeTowards": true,
          "gazeCondition": "towards",
          "faceOnLeft": true
        },
        {
          "trial_number": 1,
          "trial_index": 56,
          "rt": 621,
          "correct": true,
          "colorTarget": "tree",
          "gazeTowards": true,
          "gazeCondition": "towards",
          "faceOnLeft": true
        },
        {
          "trial_number": 2,
          "trial_index": 99,
          "rt": 480,
          "correct": true,
          "colorTarget": "tree",
          "gazeTowards": true,
          "gazeCondition": "towards",
          "faceOnLeft": true
        },
        {
          "trial_number": 3,
          "trial_index": 132,
          "rt": 435,
          "correct": true,
          "colorTarget": "tree",
          "gazeTowards": true,
          "gazeCondition": "towards",
          "faceOnLeft": true
        },
        {
          "trial_number": 4,
          "trial_index": 281,
          "rt": 780,
          "correct": true,
          "colorTarget": "tree",
          "gazeTowards": false,
          "gazeCondition": "away",
          "faceOnLeft": false
        },
        {
          "trial_number": 5,
          "trial_index": 329,
          "rt": 438,
          "correct": true,
          "colorTarget": "tree",
          "gazeTowards": true,
          "gazeCondition": "towards",
          "faceOnLeft": true
        },
        {
          "trial_number": 6,
          "trial_index": 337,
          "rt": 621,
          "correct": true,
          "colorTarget": "face",
          "gazeTowards": false,
          "gazeCondition": "away",
          "faceOnLeft": true
        },
        {
          "trial_number": 7,
          "trial_index": 360,
          "rt": 567,
          "correct": true,
          "colorTarget": "face",
          "gazeTowards": true,
          "gazeCondition": "towards",
          "faceOnLeft": true
        },
        {
          "trial_number": 8,
          "trial_index": 474,
          "rt": 419,
          "correct": true,
          "colorTarget": "tree",
          "gazeTowards": false,
          "gazeCondition": "away",
          "faceOnLeft": false
        },
        {
          "trial_number": 9,
          "trial_index": 482,
          "rt": 473,
          "correct": true,
          "colorTarget": "face",
          "gazeTowards": false,
          "gazeCondition": "away",
          "faceOnLeft": false
        },
        {
          "trial_number": 10,
          "trial_index": 515,
          "rt": 727,
          "correct": true,
          "colorTarget": "face",
          "gazeTowards": true,
          "gazeCondition": "towards",
          "faceOnLeft": false
        },
        {
          "trial_number": 11,
          "trial_index": 674,
          "rt": 499,
          "correct": true,
          "colorTarget": "face",
          "gazeTowards": true,
          "gazeCondition": "towards",
          "faceOnLeft": true
        }
      ]
    },
    "practice": {
      "trials": [
        {
          "trial_number": 0,
          "rt": null,
          "correct": false,
          "direction": 180
        },
        {
          "trial_number": 1,
          "rt": 901,
          "correct": true,
          "direction": 0
        },
        {
          "trial_number": 2,
          "rt": 1331,
          "correct": true,
          "direction": 0
        },
        {
          "trial_number": 3,
          "rt": 842,
          "correct": true,
          "direction": 180
        },
        {
          "trial_number": 4,
          "rt": 1710,
          "correct": true,
          "direction": 180
        },
        {
          "trial_number": 5,
          "rt": 1531,
          "correct": false,
          "direction": 180
        },
        {
          "trial_number": 6,
          "rt": 1531,
          "correct": true,
          "direction": 0
        },
        {
          "trial_number": 7,
          "rt": 1691,
          "correct": true,
          "direction": 180
        },
        {
          "trial_number": 8,
          "rt": 998,
          "correct": true,
          "direction": 180
        },
        {
          "trial_number": 9,
          "rt": 1056,
          "correct": true,
          "direction": 180
        }
      ],
      "meanRT": 1288,
      "accuracy": 80
    }
  }
}