{
  "experiment": "rdk-face-1",
  "UUID": "c499a116-8e7f-4848-b5f7-f39dd0c66b42",
  "data": {
    "session": {
      "experiment_version": "1.4",
      "treatment": "faces",
      "file_version": "1.4",
      "totalTrials": 48,
      "session_group": "default",
      "browserData": {
        "os": "Windows",
        "browser": "Chrome",
        "screenResolution": "1366x768",
        "browserViewport": "1366x607"
      },
      "calibration": {
        "monitorWidthCm": 38,
        "viewingDistanceCm": 54,
        "pixelsPerDegree": 50
      },
      "parameters": {
        "coherence": 0.4,
        "apertureDeg": 5,
        "dotSpeedDegPerSec": 2.4,
        "lifetimeMs": 200,
        "fixationDurationMs": 1500,
        "faceDurationMs": 1500,
        "testDurationMs": 1000
      },
      "mturk": {
        "assignmentId": "3SB4CE2TJ9TJV82E17SD08UVJHGXAU",
        "workerId": "A1HIDAOJXOMQN",
        "hitId": "38Z7YZ2SCG0B59N61FKWYEQL2YOQI4"
      }
    },
    "trials": [
      {
        "trial_number": 0,
        "trial_index": 47,
        "rt": null,
        "correct": false,
        "response": null,
        "congruent": false,
        "eyesOpen": true,
        "faceOnLeft": true,
        "impliedDirection": 0,
        "testDirection": 180
      },
      {
        "trial_number": 1,
        "trial_index": 52,
        "rt": 872,
        "correct": true,
        "response": "ArrowRight",
        "congruent": false,
        "eyesOpen": false,
        "faceOnLeft": false,
        "impliedDirection": 180,
        "testDirection": 0
      },
      {
        "trial_number": 2,
        "trial_index": 57,
        "rt": 822,
        "correct": true,
        "response": "ArrowRight",
        "congruent": true,
        "eyesOpen": false,
        "faceOnLeft": true,
        "impliedDirection": 0,
        "testDirection": 0
      },
      {
        "trial_number": 3,
        "trial_index": 62,
        "rt": 808,
        "correct": true,
        "response": "ArrowLeft",
        "congruent": true,
        "eyesOpen": true,
        "faceOnLeft": false,
        "impliedDirection": 180,
        "testDirection": 180
      },
      {
        "trial_number": 4,
        "trial_index": 67,
        "rt": 674,
        "correct": true,
        "response": "ArrowRight",
        "congruent": false,
        "eyesOpen": true,
        "faceOnLeft": false,
        "impliedDirection": 180,
        "testDirection": 0
      },
      {
        "trial_number": 5,
        "trial_index": 72,
        "rt": 737,
        "correct": false,
        "response": "ArrowRight",
        "congruent": false,
        "eyesOpen": true,
        "faceOnLeft": true,
        "impliedDirection": 0,
        "testDirection": 180
      },
      {
        "trial_number": 6,
        "trial_index": 77,
        "rt": 813,
        "correct": true,
        "response": "ArrowRight",
        "congruent": false,
        "eyesOpen": false,
        "faceOnLeft": false,
        "impliedDirection": 180,
        "testDirection": 0
      },
      {
        "trial_number": 7,
        "trial_index": 82,
        "rt": 846,
        "correct": true,
        "response": "ArrowRight",
        "congruent": false,
        "eyesOpen": false,
        "faceOnLeft": false,
        "impliedDirection": 180,
        "testDirection": 0
      },
      {
        "trial_number": 8,
        "trial_index": 87,
        "rt": 754,
        "correct": true,
        "response": "ArrowLeft",
        "congruent": false,
        "eyesOpen": false,
        "faceOnLeft": true,
        "impliedDirection": 0,
        "testDirection": 180
      },
      {
        "trial_number": 9,
        "trial_index": 92,
        "rt": null,
        "correct": false,
        "response": null,
        "congruent": false,
        "eyesOpen": true,
        "faceOnLeft": true,
        "impliedDirection": 0,
        "testDirection": 180
      },
      {
        "trial_number": 10,
        "trial_index": 97,
        "rt": null,
        "correct": false,
        "response": null,
        "congruent": true,
        "eyesOpen": false,
        "faceOnLeft": false,
        "impliedDirection": 180,
        "testDirection": 180
      },
      {
        "trial_number": 11,
        "trial_index": 102,
        "rt": 732,
        "correct": true,
        "response": "ArrowRight",
        "congruent": false,
        "eyesOpen": false,
        "faceOnLeft": false,
        "impliedDirection": 180,
        "testDirection": 0
      },
      {
        "trial_number": 12,
        "trial_index": 107,
        "rt": 786,
        "correct": true,
        "response": "ArrowRight",
        "congruent": false,
        "eyesOpen": false,
        "faceOnLeft": false,
        "impliedDirection": 180,
        "testDirection": 0
      },
      {
        "trial_number": 13,
        "trial_index": 112,
        "rt": 786,
        "correct": true,
        "response": "ArrowLeft",
        "congruent": true,
        "eyesOpen": true,
        "faceOnLeft": false,
        "impliedDirection": 180,
        "testDirection": 180
      },
      {
        "trial_number": 14,
        "trial_index": 117,
        "rt": 666,
        "correct": true,
        "response": "ArrowRight",
        "congruent": false,
        "eyesOpen": true,
        "faceOnLeft": false,
        "impliedDirection": 180,
        "testDirection": 0
      },
      {
        "trial_number": 15,
        "trial_index": 122,
        "rt": null,
        "correct": false,
        "response": null,
        "congruent": true,
        "eyesOpen": true,
        "faceOnLeft": false,
        "impliedDirection": 180,
        "testDirection": 180
      },
      {
        "trial_number": 16,
        "trial_index": 127,
        "rt": 770,
        "correct": true,
        "response": "ArrowRight",
        "congruent": false,
        "eyesOpen": true,
        "faceOnLeft": false,
        "impliedDirection": 180,
        "testDirection": 0
      },
      {
        "trial_number": 17,
        "trial_index": 132,
        "rt": 798,
        "correct": true,
        "response": "ArrowRight",
        "congruent": true,
        "eyesOpen": false,
        "faceOnLeft": true,
        "impliedDirection": 0,
        "testDirection": 0
      },
      {
        "trial_number": 18,
        "trial_index": 137,
        "rt": 814,
        "correct": true,
        "response": "ArrowLeft",
        "congruent": false,
        "eyesOpen": true,
        "faceOnLeft": true,
        "impliedDirection": 0,
        "testDirection": 180
      },
      {
        "trial_number": 19,
        "trial_index": 142,
        "rt": 696,
        "correct": true,
        "response": "ArrowRight",
        "congruent": true,
        "eyesOpen": false,
        "faceOnLeft": true,
        "impliedDirection": 0,
        "testDirection": 0
      },
      {
        "trial_number": 20,
        "trial_index": 147,
        "rt": 818,
        "correct": true,
        "response": "ArrowRight",
        "congruent": true,
        "eyesOpen": true,
        "faceOnLeft": true,
        "impliedDirection": 0,
        "testDirection": 0
      },
      {
        "trial_number": 21,
        "trial_index": 152,
        "rt": 799,
        "correct": true,
        "response": "ArrowLeft",
        "congruent": true,
        "eyesOpen": true,
        "faceOnLeft": false,
        "impliedDirection": 180,
        "testDirection": 180
      },
      {
        "trial_number": 22,
        "trial_index": 157,
        "rt": 907,
        "correct": true,
        "response": "ArrowLeft",
        "congruent": true,
        "eyesOpen": false,
        "faceOnLeft": false,
        "impliedDirection": 180,
        "testDirection": 180
      },
      {
        "trial_number": 23,
        "trial_index": 162,
        "rt": 988,
        "correct": false,
        "response": "ArrowRight",
        "congruent": true,
        "eyesOpen": true,
        "faceOnLeft": false,
        "impliedDirection": 180,
        "testDirection": 180
      },
      {
        "trial_number": 24,
        "trial_index": 167,
        "rt": 805,
        "correct": true,
        "response": "ArrowLeft",
        "congruent": false,
        "eyesOpen": true,
        "faceOnLeft": true,
        "impliedDirection": 0,
        "testDirection": 180
      },
      {
        "trial_number": 25,
        "trial_index": 172,
        "rt": 715,
        "correct": true,
        "response": "ArrowLeft",
        "congruent": false,
        "eyesOpen": false,
        "faceOnLeft": true,
        "impliedDirection": 0,
        "testDirection": 180
      },
      {
        "trial_number": 26,
        "trial_index": 177,
        "rt": 772,
        "correct": true,
        "response": "ArrowRight",
        "congruent": true,
        "eyesOpen": false,
        "faceOnLeft": true,
        "impliedDirection": 0,
        "testDirection": 0
      },
      {
        "trial_number": 27,
        "trial_index": 182,
        "rt": 810,
        "correct": true,
        "response": "ArrowLeft",
        "congruent": true,
        "eyesOpen": false,
        "faceOnLeft": false,
        "impliedDirection": 180,
        "testDirection": 180
      },
      {
        "trial_number": 28,
        "trial_index": 187,
        "rt": 827,
        "correct": true,
        "response": "ArrowLeft",
        "congruent": true,
        "eyesOpen": false,
        "faceOnLeft": false,
        "impliedDirection": 180,
        "testDirection": 180
      },
      {
        "trial_number": 29,
        "trial_index": 192,
        "rt": 728,
        "correct": true,
        "response": "ArrowLeft",
        "congruent": false,
        "eyesOpen": true,
        "faceOnLeft": true,
        "impliedDirection": 0,
        "testDirection": 180
      },
      {
        "trial_number": 30,
        "trial_index": 197,
        "rt": 689,
        "correct": true,
        "response": "ArrowRight",
        "congruent": false,
        "eyesOpen": false,
        "faceOnLeft": false,
        "impliedDirection": 180,
        "testDirection": 0
      },
      {
        "trial_number": 31,
        "trial_index": 202,
        "rt": 844,
        "correct": true,
        "response": "ArrowRight",
        "congruent": true,
        "eyesOpen": false,
        "faceOnLeft": true,
        "impliedDirection": 0,
        "testDirection": 0
      },
      {
        "trial_number": 32,
        "trial_index": 207,
        "rt": 747,
        "correct": true,
        "response": "ArrowLeft",
        "congruent": true,
        "eyesOpen": true,
        "faceOnLeft": false,
        "impliedDirection": 180,
        "testDirection": 180
      },
      {
        "trial_number": 33,
        "trial_index": 212,
        "rt": 799,
        "correct": true,
        "response": "ArrowLeft",
        "congruent": false,
        "eyesOpen": false,
        "faceOnLeft": true,
        "impliedDirection": 0,
        "testDirection": 180
      },
      {
        "trial_number": 34,
        "trial_index": 217,
        "rt": 803,
        "correct": true,
        "response": "ArrowLeft",
        "congruent": true,
        "eyesOpen": false,
        "faceOnLeft": false,
        "impliedDirection": 180,
        "testDirection": 180
      },
      {
        "trial_number": 35,
        "trial_index": 222,
        "rt": 841,
        "correct": true,
        "response": "ArrowLeft",
        "congruent": false,
        "eyesOpen": false,
        "faceOnLeft": true,
        "impliedDirection": 0,
        "testDirection": 180
      },
      {
        "trial_number": 36,
        "trial_index": 227,
        "rt": 723,
        "correct": true,
        "response": "ArrowRight",
        "congruent": false,
        "eyesOpen": true,
        "faceOnLeft": false,
        "impliedDirection": 180,
        "testDirection": 0
      },
      {
        "trial_number": 37,
        "trial_index": 232,
        "rt": null,
        "correct": false,
        "response": null,
        "congruent": true,
        "eyesOpen": false,
        "faceOnLeft": true,
        "impliedDirection": 0,
        "testDirection": 0
      },
      {
        "trial_number": 38,
        "trial_index": 237,
        "rt": 731,
        "correct": true,
        "response": "ArrowRight",
        "congruent": false,
        "eyesOpen": false,
        "faceOnLeft": false,
        "impliedDirection": 180,
        "testDirection": 0
      },
      {
        "trial_number": 39,
        "trial_index": 242,
        "rt": 718,
        "correct": true,
        "response": "ArrowLeft",
        "congruent": true,
        "eyesOpen": true,
        "faceOnLeft": false,
        "impliedDirection": 180,
        "testDirection": 180
      },
      {
        "trial_number": 40,
        "trial_index": 247,
        "rt": 750,
        "correct": true,
        "response": "ArrowRight",
        "congruent": true,
        "eyesOpen": false,
        "faceOnLeft": true,
        "impliedDirection": 0,
        "testDirection": 0
      },
      {
        "trial_number": 41,
        "trial_index": 252,
        "rt": 764,
        "correct": true,
        "response": "ArrowLeft",
        "congruent": false,
        "eyesOpen": true,
        "faceOnLeft": true,
        "impliedDirection": 0,
        "testDirection": 180
      },
      {
        "trial_number": 42,
        "trial_index": 257,
        "rt": 681,
        "correct": true,
        "response": "ArrowRight",
        "congruent": true,
        "eyesOpen": true,
        "faceOnLeft": true,
        "impliedDirection": 0,
        "testDirection": 0
      },
      {
        "trial_number": 43,
        "trial_index": 262,
        "rt": 704,
        "correct": true,
        "response": "ArrowLeft",
        "congruent": true,
        "eyesOpen": true,
        "faceOnLeft": false,
        "impliedDirection": 180,
        "testDirection": 180
      },
      {
        "trial_number": 44,
        "trial_index": 267,
        "rt": null,
        "correct": false,
        "response": null,
        "congruent": false,
        "eyesOpen": false,
        "faceOnLeft": true,
        "impliedDirection": 0,
        "testDirection": 180
      },
      {
        "trial_number": 45,
        "trial_index": 272,
        "rt": 782,
        "correct": true,
        "response": "ArrowLeft",
        "congruent": false,
        "eyesOpen": true,
        "faceOnLeft": true,
        "impliedDirection": 0,
        "testDirection": 180
      },
      {
        "trial_number": 46,
        "trial_index": 277,
        "rt": 753,
        "correct": true,
        "response": "ArrowRight",
        "congruent": true,
        "eyesOpen": true,
        "faceOnLeft": true,
        "impliedDirection": 0,
        "testDirection": 0
      },
      {
        "trial_number": 47,
        "trial_index": 282,
        "rt": 763,
        "correct": true,
        "response": "ArrowLeft",
        "congruent": true,
        "eyesOpen": true,
        "faceOnLeft": false,
        "impliedDirection": 180,
        "testDirection": 180
      }
    ],
    "practice": {
      "trials": [
        {
          "trial_number": 0,
          "rt": 953,
          "correct": true,
          "direction": 0
        },
        {
          "trial_number": 1,
          "rt": 819,
          "correct": true,
          "direction": 0
        },
        {
          "trial_number": 2,
          "rt": 821,
          "correct": true,
          "direction": 0
        },
        {
          "trial_number": 3,
          "rt": 818,
          "correct": true,
          "direction": 0
        },
        {
          "trial_number": 4,
          "rt": 881,
          "correct": false,
          "direction": 180
        },
        {
          "trial_number": 5,
          "rt": null,
          "correct": false,
          "direction": 180
        },
        {
          "trial_number": 6,
          "rt": 758,
          "correct": true,
          "direction": 0
        },
        {
          "trial_number": 7,
          "rt": 804,
          "correct": true,
          "direction": 0
        },
        {
          "trial_number": 8,
          "rt": 753,
          "correct": true,
          "direction": 0
        },
        {
          "trial_number": 9,
          "rt": 765,
          "correct": true,
          "direction": 180
        }
      ],
      "meanRT": 819,
      "accuracy": 80
    }
  }
}