{
  "experiment": "rdk-face-1",
  "UUID": "44376c39-4f41-47b9-8162-ebf740b38921",
  "data": {
    "session": {
      "experiment_version": "1.8.6",
      "treatment": "faces_towards_away_catch",
      "file_version": "1.8.6",
      "totalTrials": 120,
      "totalTrialsIncludingCatch": 132,
      "conditions": {
        "gazeTowardsCount": 60,
        "gazeAwayCount": 60,
        "gazeTowardsAccuracy": 63,
        "gazeAwayAccuracy": 75
      },
      "session_group": "default",
      "browserData": {
        "os": "Windows",
        "browser": "Chrome",
        "screenResolution": "1600x900",
        "browserViewport": "1600x900",
        "devicePixelRatio": 1,
        "colorDepth": 32,
        "hardwareConcurrency": 4,
        "deviceMemory": 8,
        "gpuRenderer": "ANGLE (Intel, Intel(R) HD Graphics 4000 (0x00000166) Direct3D11 vs_5_0 ps_5_0, D3D11)",
        "measuredRefreshRateHz": 24
      },
      "attention": {
        "visibilityEvents": []
      },
      "calibration": {
        "monitorWidthCm": 38,
        "viewingDistanceCm": 54,
        "pixelsPerDegree": 50
      },
      "parameters": {
        "coherence": 0.4,
        "apertureDeg": 5,
        "densityDotsPerDeg2": 40,
        "dotDiameterDeg": 0.035,
        "dotSpeedDegPerSec": 3,
        "lifetimeMs": 200,
        "fixationDurationMs": 1500,
        "faceDurationMs": 1500,
        "testDurationMs": 2000,
        "catchResponseMs": 3000
      },
      "prolific": {
        "prolificPid": "698619d6261805d947bdaef1",
        "studyId": "",
        "sessionId": ""
      },
      "timing": {
        "startTime": "2026-03-06T05:12:40.501Z",
        "endTime": "2026-03-06T05:29:01.091Z",
        "totalElapsedTimeMs": 980590
      }
    },
    "trials": [
      {
        "trial_number": 0,
        "trial_index": 90,
        "rt": 627,
        "correct": true,
        "response": "ArrowRight",
        "congruent": false,
        "gazeTowards": false,
        "gazeCondition": "away",
        "faceOnLeft": false,
        "impliedDirection": 180,
        "testDirection": 0,
        "avgFps": 50,
        "minFps": 48,
        "maxFps": 50,
        "totalFrames": 31,
        "frameRates": 50
      },
      {
        "trial_number": 1,
        "trial_index": 95,
        "rt": 795,
        "correct": true,
        "response": "ArrowLeft",
        "congruent": false,
        "gazeTowards": false,
        "gazeCondition": "away",
        "faceOnLeft": true,
        "impliedDirection": 0,
        "testDirection": 180,
        "avgFps": 51,
        "minFps": 50,
        "maxFps": 139,
        "totalFrames": 40,
        "frameRates": 51
      },
      {
        "trial_number": 2,
        "trial_index": 100,
        "rt": 1025,
        "correct": true,
        "response": "ArrowLeft",
        "congruent": true,
        "gazeTowards": false,
        "gazeCondition": "away",
        "faceOnLeft": false,
        "impliedDirection": 180,
        "testDirection": 180,
        "avgFps": 49,
        "minFps": 39,
        "maxFps": 50,
        "totalFrames": 51,
        "frameRates": 49
      },
      {
        "trial_number": 3,
        "trial_index": 105,
        "rt": 1554,
        "correct": false,
        "response": "ArrowLeft",
        "congruent": true,
        "gazeTowards": true,
        "gazeCondition": "towards",
        "faceOnLeft": true,
        "impliedDirection": 0,
        "testDirection": 0,
        "avgFps": 50,
        "minFps": 50,
        "maxFps": 86,
        "totalFrames": 77,
        "frameRates": 50
      },
      {
        "trial_number": 4,
        "trial_index": 110,
        "rt": 641,
        "correct": true,
        "response": "ArrowRight",
        "congruent": true,
        "gazeTowards": false,
        "gazeCondition": "away",
        "faceOnLeft": true,
        "impliedDirection": 0,
        "testDirection": 0,
        "avgFps": 50,
        "minFps": 50,
        "maxFps": 59,
        "totalFrames": 32,
        "frameRates": 50
      },
      {
        "trial_number": 5,
        "trial_index": 115,
        "rt": 822,
        "correct": true,
        "response": "ArrowLeft",
        "congruent": true,
        "gazeTowards": true,
        "gazeCondition": "towards",
        "faceOnLeft": false,
        "impliedDirection": 180,
        "testDirection": 180,
        "avgFps": 50,
        "minFps": 49,
        "maxFps": 58,
        "totalFrames": 41,
        "frameRates": 50
      },
      {
        "trial_number": 6,
        "trial_index": 120,
        "rt": 1179,
        "correct": true,
        "response": "ArrowLeft",
        "congruent": true,
        "gazeTowards": false,
        "gazeCondition": "away",
        "faceOnLeft": false,
        "impliedDirection": 180,
        "testDirection": 180,
        "avgFps": 50,
        "minFps": 50,
        "maxFps": 69,
        "totalFrames": 59,
        "frameRates": 50
      },
      {
        "trial_number": 7,
        "trial_index": 125,
        "rt": 1478,
        "correct": false,
        "response": "ArrowRight",
        "congruent": false,
        "gazeTowards": true,
        "gazeCondition": "towards",
        "faceOnLeft": true,
        "impliedDirection": 0,
        "testDirection": 180,
        "avgFps": 50,
        "minFps": 37,
        "maxFps": 50,
        "totalFrames": 73,
        "frameRates": 50
      },
      {
        "trial_number": 8,
        "trial_index": 133,
        "rt": null,
        "correct": false,
        "response": null,
        "congruent": false,
        "gazeTowards": true,
        "gazeCondition": "towards",
        "faceOnLeft": false,
        "impliedDirection": 180,
        "testDirection": 0,
        "avgFps": 50,
        "minFps": 39,
        "maxFps": 50,
        "totalFrames": 100,
        "frameRates": 50
      },
      {
        "trial_number": 9,
        "trial_index": 138,
        "rt": 1247,
        "correct": false,
        "response": "ArrowLeft",
        "congruent": false,
        "gazeTowards": true,
        "gazeCondition": "towards",
        "faceOnLeft": false,
        "impliedDirection": 180,
        "testDirection": 0,
        "avgFps": 50,
        "minFps": 50,
        "maxFps": 89,
        "totalFrames": 62,
        "frameRates": 50
      },
      {
        "trial_number": 10,
        "trial_index": 143,
        "rt": 1051,
        "correct": true,
        "response": "ArrowRight",
        "congruent": false,
        "gazeTowards": false,
        "gazeCondition": "away",
        "faceOnLeft": false,
        "impliedDirection": 180,
        "testDirection": 0,
        "avgFps": 50,
        "minFps": 49,
        "maxFps": 86,
        "totalFrames": 52,
        "frameRates": 50
      },
      {
        "trial_number": 11,
        "trial_index": 148,
        "rt": 867,
        "correct": true,
        "response": "ArrowLeft",
        "congruent": true,
        "gazeTowards": false,
        "gazeCondition": "away",
        "faceOnLeft": false,
        "impliedDirection": 180,
        "testDirection": 180,
        "avgFps": 50,
        "minFps": 50,
        "maxFps": 50,
        "totalFrames": 43,
        "frameRates": 50
      },
      {
        "trial_number": 12,
        "trial_index": 153,
        "rt": 726,
        "correct": false,
        "response": "ArrowRight",
        "congruent": true,
        "gazeTowards": true,
        "gazeCondition": "towards",
        "faceOnLeft": false,
        "impliedDirection": 180,
        "testDirection": 180,
        "avgFps": 50,
        "minFps": 48,
        "maxFps": 50,
        "totalFrames": 36,
        "frameRates": 50
      },
      {
        "trial_number": 13,
        "trial_index": 158,
        "rt": 924,
        "correct": false,
        "response": "ArrowLeft",
        "congruent": true,
        "gazeTowards": true,
        "gazeCondition": "towards",
        "faceOnLeft": true,
        "impliedDirection": 0,
        "testDirection": 0,
        "avgFps": 50,
        "minFps": 50,
        "maxFps": 75,
        "totalFrames": 46,
        "frameRates": 50
      },
      {
        "trial_number": 14,
        "trial_index": 163,
        "rt": 1335,
        "correct": true,
        "response": "ArrowLeft",
        "congruent": true,
        "gazeTowards": false,
        "gazeCondition": "away",
        "faceOnLeft": false,
        "impliedDirection": 180,
        "testDirection": 180,
        "avgFps": 50,
        "minFps": 50,
        "maxFps": 96,
        "totalFrames": 66,
        "frameRates": 50
      },
      {
        "trial_number": 15,
        "trial_index": 168,
        "rt": 594,
        "correct": true,
        "response": "ArrowRight",
        "congruent": true,
        "gazeTowards": true,
        "gazeCondition": "towards",
        "faceOnLeft": true,
        "impliedDirection": 0,
        "testDirection": 0,
        "avgFps": 49,
        "minFps": 37,
        "maxFps": 50,
        "totalFrames": 29,
        "frameRates": 49
      },
      {
        "trial_number": 16,
        "trial_index": 173,
        "rt": 831,
        "correct": true,
        "response": "ArrowRight",
        "congruent": false,
        "gazeTowards": true,
        "gazeCondition": "towards",
        "faceOnLeft": false,
        "impliedDirection": 180,
        "testDirection": 0,
        "avgFps": 49,
        "minFps": 38,
        "maxFps": 50,
        "totalFrames": 41,
        "frameRates": 49
      },
      {
        "trial_number": 17,
        "trial_index": 181,
        "rt": 1177,
        "correct": true,
        "response": "ArrowLeft",
        "congruent": true,
        "gazeTowards": true,
        "gazeCondition": "towards",
        "faceOnLeft": false,
        "impliedDirection": 180,
        "testDirection": 180,
        "avgFps": 50,
        "minFps": 46,
        "maxFps": 50,
        "totalFrames": 58,
        "frameRates": 50
      },
      {
        "trial_number": 18,
        "trial_index": 186,
        "rt": 1212,
        "correct": true,
        "response": "ArrowLeft",
        "congruent": false,
        "gazeTowards": false,
        "gazeCondition": "away",
        "faceOnLeft": true,
        "impliedDirection": 0,
        "testDirection": 180,
        "avgFps": 50,
        "minFps": 49,
        "maxFps": 59,
        "totalFrames": 60,
        "frameRates": 50
      },
      {
        "trial_number": 19,
        "trial_index": 191,
        "rt": 678,
        "correct": true,
        "response": "ArrowRight",
        "congruent": true,
        "gazeTowards": false,
        "gazeCondition": "away",
        "faceOnLeft": true,
        "impliedDirection": 0,
        "testDirection": 0,
        "avgFps": 49,
        "minFps": 39,
        "maxFps": 50,
        "totalFrames": 34,
        "frameRates": 49
      },
      {
        "trial_number": 20,
        "trial_index": 196,
        "rt": 994,
        "correct": true,
        "response": "ArrowLeft",
        "congruent": true,
        "gazeTowards": false,
        "gazeCondition": "away",
        "faceOnLeft": false,
        "impliedDirection": 180,
        "testDirection": 180,
        "avgFps": 49,
        "minFps": 39,
        "maxFps": 50,
        "totalFrames": 49,
        "frameRates": 49
      },
      {
        "trial_number": 21,
        "trial_index": 201,
        "rt": 1477,
        "correct": true,
        "response": "ArrowRight",
        "congruent": true,
        "gazeTowards": false,
        "gazeCondition": "away",
        "faceOnLeft": true,
        "impliedDirection": 0,
        "testDirection": 0,
        "avgFps": 50,
        "minFps": 49,
        "maxFps": 50,
        "totalFrames": 73,
        "frameRates": 50
      },
      {
        "trial_number": 22,
        "trial_index": 206,
        "rt": 900,
        "correct": true,
        "response": "ArrowRight",
        "congruent": true,
        "gazeTowards": true,
        "gazeCondition": "towards",
        "faceOnLeft": true,
        "impliedDirection": 0,
        "testDirection": 0,
        "avgFps": 50,
        "minFps": 50,
        "maxFps": 59,
        "totalFrames": 45,
        "frameRates": 50
      },
      {
        "trial_number": 23,
        "trial_index": 211,
        "rt": 1024,
        "correct": true,
        "response": "ArrowRight",
        "congruent": false,
        "gazeTowards": true,
        "gazeCondition": "towards",
        "faceOnLeft": false,
        "impliedDirection": 180,
        "testDirection": 0,
        "avgFps": 49,
        "minFps": 39,
        "maxFps": 50,
        "totalFrames": 51,
        "frameRates": 49
      },
      {
        "trial_number": 24,
        "trial_index": 216,
        "rt": 858,
        "correct": false,
        "response": "ArrowLeft",
        "congruent": true,
        "gazeTowards": true,
        "gazeCondition": "towards",
        "faceOnLeft": true,
        "impliedDirection": 0,
        "testDirection": 0,
        "avgFps": 51,
        "minFps": 50,
        "maxFps": 140,
        "totalFrames": 43,
        "frameRates": 51
      },
      {
        "trial_number": 25,
        "trial_index": 221,
        "rt": 997,
        "correct": false,
        "response": "ArrowLeft",
        "congruent": true,
        "gazeTowards": true,
        "gazeCondition": "towards",
        "faceOnLeft": true,
        "impliedDirection": 0,
        "testDirection": 0,
        "avgFps": 50,
        "minFps": 50,
        "maxFps": 83,
        "totalFrames": 49,
        "frameRates": 50
      },
      {
        "trial_number": 26,
        "trial_index": 226,
        "rt": 1050,
        "correct": true,
        "response": "ArrowRight",
        "congruent": false,
        "gazeTowards": false,
        "gazeCondition": "away",
        "faceOnLeft": false,
        "impliedDirection": 180,
        "testDirection": 0,
        "avgFps": 50,
        "minFps": 42,
        "maxFps": 50,
        "totalFrames": 52,
        "frameRates": 50
      },
      {
        "trial_number": 27,
        "trial_index": 231,
        "rt": 876,
        "correct": true,
        "response": "ArrowLeft",
        "congruent": false,
        "gazeTowards": true,
        "gazeCondition": "towards",
        "faceOnLeft": true,
        "impliedDirection": 0,
        "testDirection": 180,
        "avgFps": 51,
        "minFps": 50,
        "maxFps": 161,
        "totalFrames": 44,
        "frameRates": 51
      },
      {
        "trial_number": 28,
        "trial_index": 239,
        "rt": 1104,
        "correct": false,
        "response": "ArrowLeft",
        "congruent": false,
        "gazeTowards": true,
        "gazeCondition": "towards",
        "faceOnLeft": false,
        "impliedDirection": 180,
        "testDirection": 0,
        "avgFps": 50,
        "minFps": 42,
        "maxFps": 50,
        "totalFrames": 54,
        "frameRates": 50
      },
      {
        "trial_number": 29,
        "trial_index": 244,
        "rt": 1339,
        "correct": false,
        "response": "ArrowLeft",
        "congruent": true,
        "gazeTowards": false,
        "gazeCondition": "away",
        "faceOnLeft": true,
        "impliedDirection": 0,
        "testDirection": 0,
        "avgFps": 50,
        "minFps": 40,
        "maxFps": 50,
        "totalFrames": 66,
        "frameRates": 50
      },
      {
        "trial_number": 30,
        "trial_index": 250,
        "rt": 846,
        "correct": true,
        "response": "ArrowLeft",
        "congruent": true,
        "gazeTowards": true,
        "gazeCondition": "towards",
        "faceOnLeft": false,
        "impliedDirection": 180,
        "testDirection": 180,
        "avgFps": 50,
        "minFps": 50,
        "maxFps": 56,
        "totalFrames": 42,
        "frameRates": 50
      },
      {
        "trial_number": 31,
        "trial_index": 255,
        "rt": 879,
        "correct": true,
        "response": "ArrowLeft",
        "congruent": true,
        "gazeTowards": true,
        "gazeCondition": "towards",
        "faceOnLeft": false,
        "impliedDirection": 180,
        "testDirection": 180,
        "avgFps": 50,
        "minFps": 49,
        "maxFps": 77,
        "totalFrames": 44,
        "frameRates": 50
      },
      {
        "trial_number": 32,
        "trial_index": 260,
        "rt": 678,
        "correct": true,
        "response": "ArrowRight",
        "congruent": true,
        "gazeTowards": false,
        "gazeCondition": "away",
        "faceOnLeft": true,
        "impliedDirection": 0,
        "testDirection": 0,
        "avgFps": 50,
        "minFps": 50,
        "maxFps": 50,
        "totalFrames": 34,
        "frameRates": 50
      },
      {
        "trial_number": 33,
        "trial_index": 265,
        "rt": 663,
        "correct": true,
        "response": "ArrowRight",
        "congruent": false,
        "gazeTowards": true,
        "gazeCondition": "towards",
        "faceOnLeft": false,
        "impliedDirection": 180,
        "testDirection": 0,
        "avgFps": 49,
        "minFps": 42,
        "maxFps": 50,
        "totalFrames": 33,
        "frameRates": 49
      },
      {
        "trial_number": 34,
        "trial_index": 270,
        "rt": 731,
        "correct": true,
        "response": "ArrowLeft",
        "congruent": false,
        "gazeTowards": true,
        "gazeCondition": "towards",
        "faceOnLeft": true,
        "impliedDirection": 0,
        "testDirection": 180,
        "avgFps": 51,
        "minFps": 50,
        "maxFps": 154,
        "totalFrames": 37,
        "frameRates": 51
      },
      {
        "trial_number": 35,
        "trial_index": 275,
        "rt": 602,
        "correct": true,
        "response": "ArrowRight",
        "congruent": true,
        "gazeTowards": true,
        "gazeCondition": "towards",
        "faceOnLeft": true,
        "impliedDirection": 0,
        "testDirection": 0,
        "avgFps": 50,
        "minFps": 50,
        "maxFps": 67,
        "totalFrames": 30,
        "frameRates": 50
      },
      {
        "trial_number": 36,
        "trial_index": 280,
        "rt": 1128,
        "correct": true,
        "response": "ArrowLeft",
        "congruent": false,
        "gazeTowards": false,
        "gazeCondition": "away",
        "faceOnLeft": true,
        "impliedDirection": 0,
        "testDirection": 180,
        "avgFps": 50,
        "minFps": 44,
        "maxFps": 50,
        "totalFrames": 56,
        "frameRates": 50
      },
      {
        "trial_number": 37,
        "trial_index": 285,
        "rt": 1330,
        "correct": true,
        "response": "ArrowLeft",
        "congruent": false,
        "gazeTowards": true,
        "gazeCondition": "towards",
        "faceOnLeft": true,
        "impliedDirection": 0,
        "testDirection": 180,
        "avgFps": 50,
        "minFps": 49,
        "maxFps": 55,
        "totalFrames": 66,
        "frameRates": 50
      },
      {
        "trial_number": 38,
        "trial_index": 290,
        "rt": 1374,
        "correct": false,
        "response": "ArrowRight",
        "congruent": false,
        "gazeTowards": true,
        "gazeCondition": "towards",
        "faceOnLeft": true,
        "impliedDirection": 0,
        "testDirection": 180,
        "avgFps": 50,
        "minFps": 39,
        "maxFps": 50,
        "totalFrames": 68,
        "frameRates": 50
      },
      {
        "trial_number": 39,
        "trial_index": 295,
        "rt": 871,
        "correct": true,
        "response": "ArrowRight",
        "congruent": false,
        "gazeTowards": true,
        "gazeCondition": "towards",
        "faceOnLeft": false,
        "impliedDirection": 180,
        "testDirection": 0,
        "avgFps": 50,
        "minFps": 50,
        "maxFps": 139,
        "totalFrames": 44,
        "frameRates": 50
      },
      {
        "trial_number": 40,
        "trial_index": 300,
        "rt": 1491,
        "correct": false,
        "response": "ArrowLeft",
        "congruent": false,
        "gazeTowards": false,
        "gazeCondition": "away",
        "faceOnLeft": false,
        "impliedDirection": 180,
        "testDirection": 0,
        "avgFps": 50,
        "minFps": 49,
        "maxFps": 138,
        "totalFrames": 74,
        "frameRates": 50
      },
      {
        "trial_number": 41,
        "trial_index": 305,
        "rt": 1040,
        "correct": true,
        "response": "ArrowLeft",
        "congruent": true,
        "gazeTowards": true,
        "gazeCondition": "towards",
        "faceOnLeft": false,
        "impliedDirection": 180,
        "testDirection": 180,
        "avgFps": 50,
        "minFps": 43,
        "maxFps": 50,
        "totalFrames": 52,
        "frameRates": 50
      },
      {
        "trial_number": 42,
        "trial_index": 310,
        "rt": 898,
        "correct": false,
        "response": "ArrowRight",
        "congruent": false,
        "gazeTowards": false,
        "gazeCondition": "away",
        "faceOnLeft": true,
        "impliedDirection": 0,
        "testDirection": 180,
        "avgFps": 49,
        "minFps": 39,
        "maxFps": 50,
        "totalFrames": 45,
        "frameRates": 49
      },
      {
        "trial_number": 43,
        "trial_index": 315,
        "rt": 759,
        "correct": true,
        "response": "ArrowRight",
        "congruent": false,
        "gazeTowards": false,
        "gazeCondition": "away",
        "faceOnLeft": false,
        "impliedDirection": 180,
        "testDirection": 0,
        "avgFps": 49,
        "minFps": 40,
        "maxFps": 50,
        "totalFrames": 38,
        "frameRates": 49
      },
      {
        "trial_number": 44,
        "trial_index": 320,
        "rt": 1255,
        "correct": false,
        "response": "ArrowLeft",
        "congruent": true,
        "gazeTowards": false,
        "gazeCondition": "away",
        "faceOnLeft": true,
        "impliedDirection": 0,
        "testDirection": 0,
        "avgFps": 50,
        "minFps": 49,
        "maxFps": 57,
        "totalFrames": 62,
        "frameRates": 50
      },
      {
        "trial_number": 45,
        "trial_index": 325,
        "rt": 1232,
        "correct": false,
        "response": "ArrowRight",
        "congruent": false,
        "gazeTowards": false,
        "gazeCondition": "away",
        "faceOnLeft": true,
        "impliedDirection": 0,
        "testDirection": 180,
        "avgFps": 49,
        "minFps": 38,
        "maxFps": 50,
        "totalFrames": 61,
        "frameRates": 49
      },
      {
        "trial_number": 46,
        "trial_index": 330,
        "rt": 1144,
        "correct": true,
        "response": "ArrowLeft",
        "congruent": true,
        "gazeTowards": true,
        "gazeCondition": "towards",
        "faceOnLeft": false,
        "impliedDirection": 180,
        "testDirection": 180,
        "avgFps": 49,
        "minFps": 37,
        "maxFps": 50,
        "totalFrames": 57,
        "frameRates": 49
      },
      {
        "trial_number": 47,
        "trial_index": 335,
        "rt": 1220,
        "correct": false,
        "response": "ArrowRight",
        "congruent": false,
        "gazeTowards": true,
        "gazeCondition": "towards",
        "faceOnLeft": true,
        "impliedDirection": 0,
        "testDirection": 180,
        "avgFps": 50,
        "minFps": 39,
        "maxFps": 50,
        "totalFrames": 61,
        "frameRates": 50
      },
      {
        "trial_number": 48,
        "trial_index": 340,
        "rt": 1189,
        "correct": false,
        "response": "ArrowRight",
        "congruent": true,
        "gazeTowards": true,
        "gazeCondition": "towards",
        "faceOnLeft": false,
        "impliedDirection": 180,
        "testDirection": 180,
        "avgFps": 50,
        "minFps": 50,
        "maxFps": 88,
        "totalFrames": 59,
        "frameRates": 50
      },
      {
        "trial_number": 49,
        "trial_index": 345,
        "rt": 896,
        "correct": true,
        "response": "ArrowLeft",
        "congruent": true,
        "gazeTowards": false,
        "gazeCondition": "away",
        "faceOnLeft": false,
        "impliedDirection": 180,
        "testDirection": 180,
        "avgFps": 50,
        "minFps": 43,
        "maxFps": 50,
        "totalFrames": 44,
        "frameRates": 50
      },
      {
        "trial_number": 50,
        "trial_index": 350,
        "rt": 1054,
        "correct": false,
        "response": "ArrowRight",
        "congruent": true,
        "gazeTowards": false,
        "gazeCondition": "away",
        "faceOnLeft": false,
        "impliedDirection": 180,
        "testDirection": 180,
        "avgFps": 50,
        "minFps": 42,
        "maxFps": 50,
        "totalFrames": 52,
        "frameRates": 50
      },
      {
        "trial_number": 51,
        "trial_index": 355,
        "rt": 690,
        "correct": true,
        "response": "ArrowLeft",
        "congruent": false,
        "gazeTowards": false,
        "gazeCondition": "away",
        "faceOnLeft": true,
        "impliedDirection": 0,
        "testDirection": 180,
        "avgFps": 49,
        "minFps": 39,
        "maxFps": 50,
        "totalFrames": 34,
        "frameRates": 49
      },
      {
        "trial_number": 52,
        "trial_index": 360,
        "rt": 654,
        "correct": true,
        "response": "ArrowRight",
        "congruent": true,
        "gazeTowards": true,
        "gazeCondition": "towards",
        "faceOnLeft": true,
        "impliedDirection": 0,
        "testDirection": 0,
        "avgFps": 50,
        "minFps": 50,
        "maxFps": 61,
        "totalFrames": 32,
        "frameRates": 50
      },
      {
        "trial_number": 53,
        "trial_index": 365,
        "rt": 991,
        "correct": true,
        "response": "ArrowRight",
        "congruent": false,
        "gazeTowards": true,
        "gazeCondition": "towards",
        "faceOnLeft": false,
        "impliedDirection": 180,
        "testDirection": 0,
        "avgFps": 50,
        "minFps": 42,
        "maxFps": 50,
        "totalFrames": 49,
        "frameRates": 50
      },
      {
        "trial_number": 54,
        "trial_index": 370,
        "rt": 908,
        "correct": true,
        "response": "ArrowLeft",
        "congruent": false,
        "gazeTowards": false,
        "gazeCondition": "away",
        "faceOnLeft": true,
        "impliedDirection": 0,
        "testDirection": 180,
        "avgFps": 50,
        "minFps": 50,
        "maxFps": 56,
        "totalFrames": 45,
        "frameRates": 50
      },
      {
        "trial_number": 55,
        "trial_index": 375,
        "rt": 751,
        "correct": true,
        "response": "ArrowLeft",
        "congruent": false,
        "gazeTowards": true,
        "gazeCondition": "towards",
        "faceOnLeft": true,
        "impliedDirection": 0,
        "testDirection": 180,
        "avgFps": 50,
        "minFps": 42,
        "maxFps": 50,
        "totalFrames": 37,
        "frameRates": 50
      },
      {
        "trial_number": 56,
        "trial_index": 383,
        "rt": 859,
        "correct": true,
        "response": "ArrowRight",
        "congruent": false,
        "gazeTowards": false,
        "gazeCondition": "away",
        "faceOnLeft": false,
        "impliedDirection": 180,
        "testDirection": 0,
        "avgFps": 50,
        "minFps": 50,
        "maxFps": 73,
        "totalFrames": 43,
        "frameRates": 50
      },
      {
        "trial_number": 57,
        "trial_index": 388,
        "rt": 905,
        "correct": false,
        "response": "ArrowLeft",
        "congruent": true,
        "gazeTowards": false,
        "gazeCondition": "away",
        "faceOnLeft": true,
        "impliedDirection": 0,
        "testDirection": 0,
        "avgFps": 50,
        "minFps": 41,
        "maxFps": 50,
        "totalFrames": 45,
        "frameRates": 50
      },
      {
        "trial_number": 58,
        "trial_index": 393,
        "rt": 959,
        "correct": true,
        "response": "ArrowRight",
        "congruent": true,
        "gazeTowards": false,
        "gazeCondition": "away",
        "faceOnLeft": true,
        "impliedDirection": 0,
        "testDirection": 0,
        "avgFps": 49,
        "minFps": 39,
        "maxFps": 50,
        "totalFrames": 48,
        "frameRates": 49
      },
      {
        "trial_number": 59,
        "trial_index": 398,
        "rt": 815,
        "correct": false,
        "response": "ArrowLeft",
        "congruent": true,
        "gazeTowards": true,
        "gazeCondition": "towards",
        "faceOnLeft": true,
        "impliedDirection": 0,
        "testDirection": 0,
        "avgFps": 50,
        "minFps": 44,
        "maxFps": 50,
        "totalFrames": 40,
        "frameRates": 50
      },
      {
        "trial_number": 60,
        "trial_index": 403,
        "rt": 854,
        "correct": true,
        "response": "ArrowLeft",
        "congruent": true,
        "gazeTowards": false,
        "gazeCondition": "away",
        "faceOnLeft": false,
        "impliedDirection": 180,
        "testDirection": 180,
        "avgFps": 50,
        "minFps": 50,
        "maxFps": 60,
        "totalFrames": 42,
        "frameRates": 50
      },
      {
        "trial_number": 61,
        "trial_index": 408,
        "rt": 807,
        "correct": true,
        "response": "ArrowLeft",
        "congruent": true,
        "gazeTowards": false,
        "gazeCondition": "away",
        "faceOnLeft": false,
        "impliedDirection": 180,
        "testDirection": 180,
        "avgFps": 50,
        "minFps": 49,
        "maxFps": 55,
        "totalFrames": 40,
        "frameRates": 50
      },
      {
        "trial_number": 62,
        "trial_index": 414,
        "rt": 868,
        "correct": true,
        "response": "ArrowRight",
        "congruent": true,
        "gazeTowards": false,
        "gazeCondition": "away",
        "faceOnLeft": true,
        "impliedDirection": 0,
        "testDirection": 0,
        "avgFps": 50,
        "minFps": 42,
        "maxFps": 50,
        "totalFrames": 43,
        "frameRates": 50
      },
      {
        "trial_number": 63,
        "trial_index": 419,
        "rt": 740,
        "correct": true,
        "response": "ArrowRight",
        "congruent": true,
        "gazeTowards": true,
        "gazeCondition": "towards",
        "faceOnLeft": true,
        "impliedDirection": 0,
        "testDirection": 0,
        "avgFps": 51,
        "minFps": 50,
        "maxFps": 163,
        "totalFrames": 37,
        "frameRates": 51
      },
      {
        "trial_number": 64,
        "trial_index": 424,
        "rt": 750,
        "correct": true,
        "response": "ArrowLeft",
        "congruent": false,
        "gazeTowards": false,
        "gazeCondition": "away",
        "faceOnLeft": true,
        "impliedDirection": 0,
        "testDirection": 180,
        "avgFps": 49,
        "minFps": 38,
        "maxFps": 50,
        "totalFrames": 37,
        "frameRates": 49
      },
      {
        "trial_number": 65,
        "trial_index": 429,
        "rt": 684,
        "correct": true,
        "response": "ArrowRight",
        "congruent": false,
        "gazeTowards": true,
        "gazeCondition": "towards",
        "faceOnLeft": false,
        "impliedDirection": 180,
        "testDirection": 0,
        "avgFps": 50,
        "minFps": 42,
        "maxFps": 51,
        "totalFrames": 34,
        "frameRates": 50
      },
      {
        "trial_number": 66,
        "trial_index": 434,
        "rt": 988,
        "correct": false,
        "response": "ArrowLeft",
        "congruent": false,
        "gazeTowards": false,
        "gazeCondition": "away",
        "faceOnLeft": false,
        "impliedDirection": 180,
        "testDirection": 0,
        "avgFps": 50,
        "minFps": 49,
        "maxFps": 63,
        "totalFrames": 49,
        "frameRates": 50
      },
      {
        "trial_number": 67,
        "trial_index": 439,
        "rt": 730,
        "correct": true,
        "response": "ArrowRight",
        "congruent": false,
        "gazeTowards": true,
        "gazeCondition": "towards",
        "faceOnLeft": false,
        "impliedDirection": 180,
        "testDirection": 0,
        "avgFps": 50,
        "minFps": 50,
        "maxFps": 56,
        "totalFrames": 36,
        "frameRates": 50
      },
      {
        "trial_number": 68,
        "trial_index": 444,
        "rt": 751,
        "correct": true,
        "response": "ArrowRight",
        "congruent": true,
        "gazeTowards": false,
        "gazeCondition": "away",
        "faceOnLeft": true,
        "impliedDirection": 0,
        "testDirection": 0,
        "avgFps": 50,
        "minFps": 50,
        "maxFps": 59,
        "totalFrames": 37,
        "frameRates": 50
      },
      {
        "trial_number": 69,
        "trial_index": 449,
        "rt": 707,
        "correct": true,
        "response": "ArrowLeft",
        "congruent": false,
        "gazeTowards": true,
        "gazeCondition": "towards",
        "faceOnLeft": true,
        "impliedDirection": 0,
        "testDirection": 180,
        "avgFps": 49,
        "minFps": 41,
        "maxFps": 50,
        "totalFrames": 35,
        "frameRates": 49
      },
      {
        "trial_number": 70,
        "trial_index": 454,
        "rt": 961,
        "correct": false,
        "response": "ArrowRight",
        "congruent": true,
        "gazeTowards": false,
        "gazeCondition": "away",
        "faceOnLeft": false,
        "impliedDirection": 180,
        "testDirection": 180,
        "avgFps": 50,
        "minFps": 50,
        "maxFps": 67,
        "totalFrames": 48,
        "frameRates": 50
      },
      {
        "trial_number": 71,
        "trial_index": 459,
        "rt": 987,
        "correct": true,
        "response": "ArrowLeft",
        "congruent": false,
        "gazeTowards": false,
        "gazeCondition": "away",
        "faceOnLeft": true,
        "impliedDirection": 0,
        "testDirection": 180,
        "avgFps": 50,
        "minFps": 49,
        "maxFps": 77,
        "totalFrames": 49,
        "frameRates": 50
      },
      {
        "trial_number": 72,
        "trial_index": 464,
        "rt": 853,
        "correct": true,
        "response": "ArrowRight",
        "congruent": false,
        "gazeTowards": false,
        "gazeCondition": "away",
        "faceOnLeft": false,
        "impliedDirection": 180,
        "testDirection": 0,
        "avgFps": 50,
        "minFps": 42,
        "maxFps": 50,
        "totalFrames": 42,
        "frameRates": 50
      },
      {
        "trial_number": 73,
        "trial_index": 472,
        "rt": 1403,
        "correct": false,
        "response": "ArrowLeft",
        "congruent": false,
        "gazeTowards": false,
        "gazeCondition": "away",
        "faceOnLeft": false,
        "impliedDirection": 180,
        "testDirection": 0,
        "avgFps": 50,
        "minFps": 50,
        "maxFps": 61,
        "totalFrames": 70,
        "frameRates": 50
      },
      {
        "trial_number": 74,
        "trial_index": 480,
        "rt": 790,
        "correct": true,
        "response": "ArrowRight",
        "congruent": true,
        "gazeTowards": false,
        "gazeCondition": "away",
        "faceOnLeft": true,
        "impliedDirection": 0,
        "testDirection": 0,
        "avgFps": 49,
        "minFps": 41,
        "maxFps": 50,
        "totalFrames": 39,
        "frameRates": 49
      },
      {
        "trial_number": 75,
        "trial_index": 485,
        "rt": 1150,
        "correct": false,
        "response": "ArrowLeft",
        "congruent": false,
        "gazeTowards": false,
        "gazeCondition": "away",
        "faceOnLeft": false,
        "impliedDirection": 180,
        "testDirection": 0,
        "avgFps": 50,
        "minFps": 50,
        "maxFps": 55,
        "totalFrames": 57,
        "frameRates": 50
      },
      {
        "trial_number": 76,
        "trial_index": 490,
        "rt": 759,
        "correct": true,
        "response": "ArrowRight",
        "congruent": true,
        "gazeTowards": false,
        "gazeCondition": "away",
        "faceOnLeft": true,
        "impliedDirection": 0,
        "testDirection": 0,
        "avgFps": 49,
        "minFps": 37,
        "maxFps": 50,
        "totalFrames": 38,
        "frameRates": 49
      },
      {
        "trial_number": 77,
        "trial_index": 495,
        "rt": 726,
        "correct": true,
        "response": "ArrowLeft",
        "congruent": true,
        "gazeTowards": true,
        "gazeCondition": "towards",
        "faceOnLeft": false,
        "impliedDirection": 180,
        "testDirection": 180,
        "avgFps": 50,
        "minFps": 50,
        "maxFps": 55,
        "totalFrames": 36,
        "frameRates": 50
      },
      {
        "trial_number": 78,
        "trial_index": 500,
        "rt": 531,
        "correct": true,
        "response": "ArrowRight",
        "congruent": false,
        "gazeTowards": true,
        "gazeCondition": "towards",
        "faceOnLeft": false,
        "impliedDirection": 180,
        "testDirection": 0,
        "avgFps": 51,
        "minFps": 50,
        "maxFps": 139,
        "totalFrames": 27,
        "frameRates": 51
      },
      {
        "trial_number": 79,
        "trial_index": 505,
        "rt": 797,
        "correct": true,
        "response": "ArrowLeft",
        "congruent": false,
        "gazeTowards": false,
        "gazeCondition": "away",
        "faceOnLeft": true,
        "impliedDirection": 0,
        "testDirection": 180,
        "avgFps": 50,
        "minFps": 50,
        "maxFps": 55,
        "totalFrames": 40,
        "frameRates": 50
      },
      {
        "trial_number": 80,
        "trial_index": 510,
        "rt": 1212,
        "correct": true,
        "response": "ArrowLeft",
        "congruent": false,
        "gazeTowards": false,
        "gazeCondition": "away",
        "faceOnLeft": true,
        "impliedDirection": 0,
        "testDirection": 180,
        "avgFps": 50,
        "minFps": 40,
        "maxFps": 50,
        "totalFrames": 60,
        "frameRates": 50
      },
      {
        "trial_number": 81,
        "trial_index": 515,
        "rt": 1215,
        "correct": true,
        "response": "ArrowRight",
        "congruent": false,
        "gazeTowards": true,
        "gazeCondition": "towards",
        "faceOnLeft": false,
        "impliedDirection": 180,
        "testDirection": 0,
        "avgFps": 50,
        "minFps": 42,
        "maxFps": 50,
        "totalFrames": 60,
        "frameRates": 50
      },
      {
        "trial_number": 82,
        "trial_index": 520,
        "rt": 1054,
        "correct": false,
        "response": "ArrowLeft",
        "congruent": false,
        "gazeTowards": true,
        "gazeCondition": "towards",
        "faceOnLeft": false,
        "impliedDirection": 180,
        "testDirection": 0,
        "avgFps": 50,
        "minFps": 44,
        "maxFps": 50,
        "totalFrames": 52,
        "frameRates": 50
      },
      {
        "trial_number": 83,
        "trial_index": 525,
        "rt": 1071,
        "correct": true,
        "response": "ArrowLeft",
        "congruent": true,
        "gazeTowards": false,
        "gazeCondition": "away",
        "faceOnLeft": false,
        "impliedDirection": 180,
        "testDirection": 180,
        "avgFps": 50,
        "minFps": 49,
        "maxFps": 139,
        "totalFrames": 54,
        "frameRates": 50
      },
      {
        "trial_number": 84,
        "trial_index": 530,
        "rt": 1212,
        "correct": true,
        "response": "ArrowLeft",
        "congruent": false,
        "gazeTowards": true,
        "gazeCondition": "towards",
        "faceOnLeft": true,
        "impliedDirection": 0,
        "testDirection": 180,
        "avgFps": 50,
        "minFps": 40,
        "maxFps": 50,
        "totalFrames": 60,
        "frameRates": 50
      },
      {
        "trial_number": 85,
        "trial_index": 538,
        "rt": 1445,
        "correct": false,
        "response": "ArrowLeft",
        "congruent": false,
        "gazeTowards": true,
        "gazeCondition": "towards",
        "faceOnLeft": false,
        "impliedDirection": 180,
        "testDirection": 0,
        "avgFps": 50,
        "minFps": 50,
        "maxFps": 56,
        "totalFrames": 72,
        "frameRates": 50
      },
      {
        "trial_number": 86,
        "trial_index": 543,
        "rt": 1615,
        "correct": true,
        "response": "ArrowRight",
        "congruent": false,
        "gazeTowards": false,
        "gazeCondition": "away",
        "faceOnLeft": false,
        "impliedDirection": 180,
        "testDirection": 0,
        "avgFps": 50,
        "minFps": 41,
        "maxFps": 50,
        "totalFrames": 80,
        "frameRates": 50
      },
      {
        "trial_number": 87,
        "trial_index": 548,
        "rt": 1029,
        "correct": false,
        "response": "ArrowLeft",
        "congruent": false,
        "gazeTowards": true,
        "gazeCondition": "towards",
        "faceOnLeft": false,
        "impliedDirection": 180,
        "testDirection": 0,
        "avgFps": 50,
        "minFps": 49,
        "maxFps": 50,
        "totalFrames": 51,
        "frameRates": 50
      },
      {
        "trial_number": 88,
        "trial_index": 556,
        "rt": 915,
        "correct": true,
        "response": "ArrowLeft",
        "congruent": true,
        "gazeTowards": true,
        "gazeCondition": "towards",
        "faceOnLeft": false,
        "impliedDirection": 180,
        "testDirection": 180,
        "avgFps": 49,
        "minFps": 37,
        "maxFps": 50,
        "totalFrames": 45,
        "frameRates": 49
      },
      {
        "trial_number": 89,
        "trial_index": 564,
        "rt": 789,
        "correct": true,
        "response": "ArrowRight",
        "congruent": true,
        "gazeTowards": false,
        "gazeCondition": "away",
        "faceOnLeft": true,
        "impliedDirection": 0,
        "testDirection": 0,
        "avgFps": 50,
        "minFps": 49,
        "maxFps": 50,
        "totalFrames": 39,
        "frameRates": 50
      },
      {
        "trial_number": 90,
        "trial_index": 570,
        "rt": 1073,
        "correct": false,
        "response": "ArrowLeft",
        "congruent": false,
        "gazeTowards": false,
        "gazeCondition": "away",
        "faceOnLeft": false,
        "impliedDirection": 180,
        "testDirection": 0,
        "avgFps": 50,
        "minFps": 42,
        "maxFps": 50,
        "totalFrames": 53,
        "frameRates": 50
      },
      {
        "trial_number": 91,
        "trial_index": 575,
        "rt": 1566,
        "correct": true,
        "response": "ArrowRight",
        "congruent": true,
        "gazeTowards": false,
        "gazeCondition": "away",
        "faceOnLeft": true,
        "impliedDirection": 0,
        "testDirection": 0,
        "avgFps": 50,
        "minFps": 49,
        "maxFps": 141,
        "totalFrames": 78,
        "frameRates": 50
      },
      {
        "trial_number": 92,
        "trial_index": 580,
        "rt": 729,
        "correct": true,
        "response": "ArrowLeft",
        "congruent": false,
        "gazeTowards": true,
        "gazeCondition": "towards",
        "faceOnLeft": true,
        "impliedDirection": 0,
        "testDirection": 180,
        "avgFps": 50,
        "minFps": 50,
        "maxFps": 67,
        "totalFrames": 36,
        "frameRates": 50
      },
      {
        "trial_number": 93,
        "trial_index": 585,
        "rt": 1147,
        "correct": false,
        "response": "ArrowLeft",
        "congruent": true,
        "gazeTowards": true,
        "gazeCondition": "towards",
        "faceOnLeft": true,
        "impliedDirection": 0,
        "testDirection": 0,
        "avgFps": 50,
        "minFps": 41,
        "maxFps": 50,
        "totalFrames": 57,
        "frameRates": 50
      },
      {
        "trial_number": 94,
        "trial_index": 590,
        "rt": 785,
        "correct": true,
        "response": "ArrowLeft",
        "congruent": true,
        "gazeTowards": true,
        "gazeCondition": "towards",
        "faceOnLeft": false,
        "impliedDirection": 180,
        "testDirection": 180,
        "avgFps": 50,
        "minFps": 50,
        "maxFps": 67,
        "totalFrames": 39,
        "frameRates": 50
      },
      {
        "trial_number": 95,
        "trial_index": 595,
        "rt": 1586,
        "correct": true,
        "response": "ArrowRight",
        "congruent": false,
        "gazeTowards": false,
        "gazeCondition": "away",
        "faceOnLeft": false,
        "impliedDirection": 180,
        "testDirection": 0,
        "avgFps": 50,
        "minFps": 48,
        "maxFps": 50,
        "totalFrames": 79,
        "frameRates": 50
      },
      {
        "trial_number": 96,
        "trial_index": 600,
        "rt": 960,
        "correct": false,
        "response": "ArrowLeft",
        "congruent": true,
        "gazeTowards": true,
        "gazeCondition": "towards",
        "faceOnLeft": true,
        "impliedDirection": 0,
        "testDirection": 0,
        "avgFps": 49,
        "minFps": 37,
        "maxFps": 50,
        "totalFrames": 48,
        "frameRates": 49
      },
      {
        "trial_number": 97,
        "trial_index": 608,
        "rt": 1211,
        "correct": true,
        "response": "ArrowLeft",
        "congruent": true,
        "gazeTowards": false,
        "gazeCondition": "away",
        "faceOnLeft": false,
        "impliedDirection": 180,
        "testDirection": 180,
        "avgFps": 50,
        "minFps": 40,
        "maxFps": 50,
        "totalFrames": 60,
        "frameRates": 50
      },
      {
        "trial_number": 98,
        "trial_index": 616,
        "rt": 774,
        "correct": true,
        "response": "ArrowRight",
        "congruent": true,
        "gazeTowards": false,
        "gazeCondition": "away",
        "faceOnLeft": true,
        "impliedDirection": 0,
        "testDirection": 0,
        "avgFps": 50,
        "minFps": 50,
        "maxFps": 56,
        "totalFrames": 38,
        "frameRates": 50
      },
      {
        "trial_number": 99,
        "trial_index": 621,
        "rt": 1370,
        "correct": false,
        "response": "ArrowLeft",
        "congruent": false,
        "gazeTowards": true,
        "gazeCondition": "towards",
        "faceOnLeft": false,
        "impliedDirection": 180,
        "testDirection": 0,
        "avgFps": 50,
        "minFps": 50,
        "maxFps": 79,
        "totalFrames": 68,
        "frameRates": 50
      },
      {
        "trial_number": 100,
        "trial_index": 626,
        "rt": 1124,
        "correct": false,
        "response": "ArrowRight",
        "congruent": true,
        "gazeTowards": true,
        "gazeCondition": "towards",
        "faceOnLeft": false,
        "impliedDirection": 180,
        "testDirection": 180,
        "avgFps": 50,
        "minFps": 43,
        "maxFps": 50,
        "totalFrames": 56,
        "frameRates": 50
      },
      {
        "trial_number": 101,
        "trial_index": 631,
        "rt": 767,
        "correct": true,
        "response": "ArrowLeft",
        "congruent": false,
        "gazeTowards": true,
        "gazeCondition": "towards",
        "faceOnLeft": true,
        "impliedDirection": 0,
        "testDirection": 180,
        "avgFps": 50,
        "minFps": 50,
        "maxFps": 74,
        "totalFrames": 38,
        "frameRates": 50
      },
      {
        "trial_number": 102,
        "trial_index": 636,
        "rt": 1122,
        "correct": false,
        "response": "ArrowLeft",
        "congruent": false,
        "gazeTowards": true,
        "gazeCondition": "towards",
        "faceOnLeft": false,
        "impliedDirection": 180,
        "testDirection": 0,
        "avgFps": 50,
        "minFps": 41,
        "maxFps": 50,
        "totalFrames": 56,
        "frameRates": 50
      },
      {
        "trial_number": 103,
        "trial_index": 641,
        "rt": 1438,
        "correct": true,
        "response": "ArrowLeft",
        "congruent": false,
        "gazeTowards": false,
        "gazeCondition": "away",
        "faceOnLeft": true,
        "impliedDirection": 0,
        "testDirection": 180,
        "avgFps": 50,
        "minFps": 50,
        "maxFps": 141,
        "totalFrames": 72,
        "frameRates": 50
      },
      {
        "trial_number": 104,
        "trial_index": 646,
        "rt": 682,
        "correct": true,
        "response": "ArrowRight",
        "congruent": true,
        "gazeTowards": true,
        "gazeCondition": "towards",
        "faceOnLeft": true,
        "impliedDirection": 0,
        "testDirection": 0,
        "avgFps": 51,
        "minFps": 50,
        "maxFps": 138,
        "totalFrames": 34,
        "frameRates": 51
      },
      {
        "trial_number": 105,
        "trial_index": 651,
        "rt": 1198,
        "correct": true,
        "response": "ArrowRight",
        "congruent": false,
        "gazeTowards": true,
        "gazeCondition": "towards",
        "faceOnLeft": false,
        "impliedDirection": 180,
        "testDirection": 0,
        "avgFps": 50,
        "minFps": 50,
        "maxFps": 58,
        "totalFrames": 59,
        "frameRates": 50
      },
      {
        "trial_number": 106,
        "trial_index": 656,
        "rt": 699,
        "correct": true,
        "response": "ArrowLeft",
        "congruent": true,
        "gazeTowards": true,
        "gazeCondition": "towards",
        "faceOnLeft": false,
        "impliedDirection": 180,
        "testDirection": 180,
        "avgFps": 50,
        "minFps": 44,
        "maxFps": 50,
        "totalFrames": 35,
        "frameRates": 50
      },
      {
        "trial_number": 107,
        "trial_index": 661,
        "rt": 1103,
        "correct": true,
        "response": "ArrowLeft",
        "congruent": false,
        "gazeTowards": false,
        "gazeCondition": "away",
        "faceOnLeft": true,
        "impliedDirection": 0,
        "testDirection": 180,
        "avgFps": 50,
        "minFps": 41,
        "maxFps": 50,
        "totalFrames": 55,
        "frameRates": 50
      },
      {
        "trial_number": 108,
        "trial_index": 666,
        "rt": 1344,
        "correct": true,
        "response": "ArrowRight",
        "congruent": false,
        "gazeTowards": false,
        "gazeCondition": "away",
        "faceOnLeft": false,
        "impliedDirection": 180,
        "testDirection": 0,
        "avgFps": 50,
        "minFps": 39,
        "maxFps": 50,
        "totalFrames": 67,
        "frameRates": 50
      },
      {
        "trial_number": 109,
        "trial_index": 671,
        "rt": 1336,
        "correct": true,
        "response": "ArrowRight",
        "congruent": false,
        "gazeTowards": false,
        "gazeCondition": "away",
        "faceOnLeft": false,
        "impliedDirection": 180,
        "testDirection": 0,
        "avgFps": 50,
        "minFps": 50,
        "maxFps": 55,
        "totalFrames": 66,
        "frameRates": 50
      },
      {
        "trial_number": 110,
        "trial_index": 676,
        "rt": 1480,
        "correct": false,
        "response": "ArrowLeft",
        "congruent": true,
        "gazeTowards": false,
        "gazeCondition": "away",
        "faceOnLeft": true,
        "impliedDirection": 0,
        "testDirection": 0,
        "avgFps": 50,
        "minFps": 50,
        "maxFps": 100,
        "totalFrames": 74,
        "frameRates": 50
      },
      {
        "trial_number": 111,
        "trial_index": 684,
        "rt": 1320,
        "correct": true,
        "response": "ArrowLeft",
        "congruent": true,
        "gazeTowards": true,
        "gazeCondition": "towards",
        "faceOnLeft": false,
        "impliedDirection": 180,
        "testDirection": 180,
        "avgFps": 50,
        "minFps": 46,
        "maxFps": 50,
        "totalFrames": 66,
        "frameRates": 50
      },
      {
        "trial_number": 112,
        "trial_index": 689,
        "rt": 1022,
        "correct": true,
        "response": "ArrowLeft",
        "congruent": false,
        "gazeTowards": false,
        "gazeCondition": "away",
        "faceOnLeft": true,
        "impliedDirection": 0,
        "testDirection": 180,
        "avgFps": 50,
        "minFps": 47,
        "maxFps": 50,
        "totalFrames": 51,
        "frameRates": 50
      },
      {
        "trial_number": 113,
        "trial_index": 694,
        "rt": 1140,
        "correct": false,
        "response": "ArrowRight",
        "congruent": false,
        "gazeTowards": false,
        "gazeCondition": "away",
        "faceOnLeft": true,
        "impliedDirection": 0,
        "testDirection": 180,
        "avgFps": 50,
        "minFps": 50,
        "maxFps": 60,
        "totalFrames": 57,
        "frameRates": 50
      },
      {
        "trial_number": 114,
        "trial_index": 699,
        "rt": 1395,
        "correct": true,
        "response": "ArrowRight",
        "congruent": true,
        "gazeTowards": false,
        "gazeCondition": "away",
        "faceOnLeft": true,
        "impliedDirection": 0,
        "testDirection": 0,
        "avgFps": 50,
        "minFps": 50,
        "maxFps": 106,
        "totalFrames": 69,
        "frameRates": 50
      },
      {
        "trial_number": 115,
        "trial_index": 704,
        "rt": 1081,
        "correct": true,
        "response": "ArrowLeft",
        "congruent": true,
        "gazeTowards": true,
        "gazeCondition": "towards",
        "faceOnLeft": false,
        "impliedDirection": 180,
        "testDirection": 180,
        "avgFps": 50,
        "minFps": 50,
        "maxFps": 50,
        "totalFrames": 54,
        "frameRates": 50
      },
      {
        "trial_number": 116,
        "trial_index": 709,
        "rt": 984,
        "correct": true,
        "response": "ArrowLeft",
        "congruent": true,
        "gazeTowards": true,
        "gazeCondition": "towards",
        "faceOnLeft": false,
        "impliedDirection": 180,
        "testDirection": 180,
        "avgFps": 50,
        "minFps": 50,
        "maxFps": 61,
        "totalFrames": 49,
        "frameRates": 50
      },
      {
        "trial_number": 117,
        "trial_index": 714,
        "rt": 1509,
        "correct": false,
        "response": "ArrowRight",
        "congruent": false,
        "gazeTowards": true,
        "gazeCondition": "towards",
        "faceOnLeft": true,
        "impliedDirection": 0,
        "testDirection": 180,
        "avgFps": 50,
        "minFps": 39,
        "maxFps": 50,
        "totalFrames": 75,
        "frameRates": 50
      },
      {
        "trial_number": 118,
        "trial_index": 719,
        "rt": 1655,
        "correct": false,
        "response": "ArrowRight",
        "congruent": true,
        "gazeTowards": false,
        "gazeCondition": "away",
        "faceOnLeft": false,
        "impliedDirection": 180,
        "testDirection": 180,
        "avgFps": 50,
        "minFps": 41,
        "maxFps": 50,
        "totalFrames": 82,
        "frameRates": 50
      },
      {
        "trial_number": 119,
        "trial_index": 724,
        "rt": 670,
        "correct": true,
        "response": "ArrowRight",
        "congruent": true,
        "gazeTowards": true,
        "gazeCondition": "towards",
        "faceOnLeft": true,
        "impliedDirection": 0,
        "testDirection": 0,
        "avgFps": 49,
        "minFps": 38,
        "maxFps": 50,
        "totalFrames": 33,
        "frameRates": 49
      }
    ],
    "catch": {
      "total": 12,
      "correct": 12,
      "accuracy": 100,
      "meanRT": 763,
      "trials": [
        {
          "trial_number": 0,
          "trial_index": 129,
          "rt": 1131,
          "correct": true,
          "colorTarget": "tree",
          "gazeTowards": false,
          "gazeCondition": "away",
          "faceOnLeft": false
        },
        {
          "trial_number": 1,
          "trial_index": 177,
          "rt": 819,
          "correct": true,
          "colorTarget": "face",
          "gazeTowards": true,
          "gazeCondition": "towards",
          "faceOnLeft": true
        },
        {
          "trial_number": 2,
          "trial_index": 235,
          "rt": 801,
          "correct": true,
          "colorTarget": "face",
          "gazeTowards": false,
          "gazeCondition": "away",
          "faceOnLeft": false
        },
        {
          "trial_number": 3,
          "trial_index": 379,
          "rt": 930,
          "correct": true,
          "colorTarget": "tree",
          "gazeTowards": true,
          "gazeCondition": "towards",
          "faceOnLeft": true
        },
        {
          "trial_number": 4,
          "trial_index": 468,
          "rt": 719,
          "correct": true,
          "colorTarget": "tree",
          "gazeTowards": true,
          "gazeCondition": "towards",
          "faceOnLeft": false
        },
        {
          "trial_number": 5,
          "trial_index": 476,
          "rt": 598,
          "correct": true,
          "colorTarget": "tree",
          "gazeTowards": true,
          "gazeCondition": "towards",
          "faceOnLeft": false
        },
        {
          "trial_number": 6,
          "trial_index": 534,
          "rt": 731,
          "correct": true,
          "colorTarget": "tree",
          "gazeTowards": true,
          "gazeCondition": "towards",
          "faceOnLeft": false
        },
        {
          "trial_number": 7,
          "trial_index": 552,
          "rt": 693,
          "correct": true,
          "colorTarget": "tree",
          "gazeTowards": true,
          "gazeCondition": "towards",
          "faceOnLeft": true
        },
        {
          "trial_number": 8,
          "trial_index": 560,
          "rt": 731,
          "correct": true,
          "colorTarget": "face",
          "gazeTowards": true,
          "gazeCondition": "towards",
          "faceOnLeft": true
        },
        {
          "trial_number": 9,
          "trial_index": 604,
          "rt": 699,
          "correct": true,
          "colorTarget": "face",
          "gazeTowards": false,
          "gazeCondition": "away",
          "faceOnLeft": true
        },
        {
          "trial_number": 10,
          "trial_index": 612,
          "rt": 691,
          "correct": true,
          "colorTarget": "face",
          "gazeTowards": false,
          "gazeCondition": "away",
          "faceOnLeft": false
        },
        {
          "trial_number": 11,
          "trial_index": 680,
          "rt": 617,
          "correct": true,
          "colorTarget": "face",
          "gazeTowards": false,
          "gazeCondition": "away",
          "faceOnLeft": false
        }
      ]
    },
    "practice": {
      "trials": [
        {
          "trial_number": 0,
          "rt": null,
          "correct": false,
          "direction": 0
        },
        {
          "trial_number": 1,
          "rt": 973,
          "correct": true,
          "direction": 0
        },
        {
          "trial_number": 2,
          "rt": 569,
          "correct": true,
          "direction": 180
        },
        {
          "trial_number": 3,
          "rt": 896,
          "correct": false,
          "direction": 180
        },
        {
          "trial_number": 4,
          "rt": 1150,
          "correct": false,
          "direction": 0
        },
        {
          "trial_number": 5,
          "rt": 1099,
          "correct": true,
          "direction": 180
        },
        {
          "trial_number": 6,
          "rt": 1483,
          "correct": true,
          "direction": 180
        },
        {
          "trial_number": 7,
          "rt": 950,
          "correct": false,
          "direction": 180
        },
        {
          "trial_number": 8,
          "rt": 733,
          "correct": true,
          "direction": 180
        },
        {
          "trial_number": 9,
          "rt": 790,
          "correct": true,
          "direction": 0
        },
        {
          "trial_number": 10,
          "rt": 700,
          "correct": true,
          "direction": 0
        },
        {
          "trial_number": 11,
          "rt": 618,
          "correct": true,
          "direction": 0
        },
        {
          "trial_number": 12,
          "rt": 553,
          "correct": true,
          "direction": 180
        },
        {
          "trial_number": 13,
          "rt": 734,
          "correct": true,
          "direction": 180
        },
        {
          "trial_number": 14,
          "rt": 698,
          "correct": true,
          "direction": 0
        },
        {
          "trial_number": 15,
          "rt": 700,
          "correct": true,
          "direction": 180
        },
        {
          "trial_number": 16,
          "rt": 1359,
          "correct": true,
          "direction": 180
        },
        {
          "trial_number": 17,
          "rt": null,
          "correct": false,
          "direction": 180
        },
        {
          "trial_number": 18,
          "rt": 937,
          "correct": true,
          "direction": 180
        },
        {
          "trial_number": 19,
          "rt": 504,
          "correct": true,
          "direction": 0
        }
      ],
      "meanRT": 858,
      "accuracy": 75
    }
  }
}