{
  "experiment": "rdk-face-1",
  "UUID": "43f87d42-8525-4486-9ba9-7fd51ce14dbe",
  "data": {
    "session": {
      "experiment_version": "1.8.6",
      "treatment": "faces_towards_away_catch",
      "file_version": "1.8.6",
      "totalTrials": 120,
      "totalTrialsIncludingCatch": 132,
      "conditions": {
        "gazeTowardsCount": 60,
        "gazeAwayCount": 60,
        "gazeTowardsAccuracy": 100,
        "gazeAwayAccuracy": 100
      },
      "session_group": "default",
      "browserData": {
        "os": "Mac",
        "browser": "Chrome",
        "screenResolution": "1440x900",
        "browserViewport": "1440x900",
        "devicePixelRatio": 2,
        "colorDepth": 30,
        "hardwareConcurrency": 8,
        "deviceMemory": 8,
        "gpuRenderer": "ANGLE (Apple, ANGLE Metal Renderer: Apple M1, Unspecified Version)",
        "measuredRefreshRateHz": 58
      },
      "attention": {
        "visibilityEvents": [
          {
            "event": "blur",
            "state": "blurred",
            "timestamp": 1772780493031
          },
          {
            "event": "visibilitychange",
            "state": "hidden",
            "timestamp": 1772780493032
          },
          {
            "event": "visibilitychange",
            "state": "visible",
            "timestamp": 1772780494669
          },
          {
            "event": "focus",
            "state": "focused",
            "timestamp": 1772780494680
          }
        ]
      },
      "calibration": {
        "monitorWidthCm": 38,
        "viewingDistanceCm": 54,
        "pixelsPerDegree": 50
      },
      "parameters": {
        "coherence": 0.4,
        "apertureDeg": 5,
        "densityDotsPerDeg2": 40,
        "dotDiameterDeg": 0.035,
        "dotSpeedDegPerSec": 3,
        "lifetimeMs": 200,
        "fixationDurationMs": 1500,
        "faceDurationMs": 1500,
        "testDurationMs": 2000,
        "catchResponseMs": 3000
      },
      "prolific": {
        "prolificPid": "63f77a5dde1ea03305e119e0",
        "studyId": "",
        "sessionId": ""
      },
      "timing": {
        "startTime": "2026-03-06T07:01:31.444Z",
        "endTime": "2026-03-06T07:17:04.756Z",
        "totalElapsedTimeMs": 933312
      }
    },
    "trials": [
      {
        "trial_number": 0,
        "trial_index": 90,
        "rt": 945,
        "correct": true,
        "response": "ArrowRight",
        "congruent": false,
        "gazeTowards": true,
        "gazeCondition": "towards",
        "faceOnLeft": false,
        "impliedDirection": 180,
        "testDirection": 0,
        "avgFps": 59,
        "minFps": 30,
        "maxFps": 61,
        "totalFrames": 56,
        "frameRates": 59
      },
      {
        "trial_number": 1,
        "trial_index": 95,
        "rt": 799,
        "correct": true,
        "response": "ArrowLeft",
        "congruent": true,
        "gazeTowards": true,
        "gazeCondition": "towards",
        "faceOnLeft": false,
        "impliedDirection": 180,
        "testDirection": 180,
        "avgFps": 59,
        "minFps": 30,
        "maxFps": 63,
        "totalFrames": 47,
        "frameRates": 59
      },
      {
        "trial_number": 2,
        "trial_index": 112,
        "rt": 1029,
        "correct": true,
        "response": "ArrowLeft",
        "congruent": false,
        "gazeTowards": false,
        "gazeCondition": "away",
        "faceOnLeft": true,
        "impliedDirection": 0,
        "testDirection": 180,
        "avgFps": 60,
        "minFps": 58,
        "maxFps": 61,
        "totalFrames": 62,
        "frameRates": 60
      },
      {
        "trial_number": 3,
        "trial_index": 117,
        "rt": 809,
        "correct": true,
        "response": "ArrowLeft",
        "congruent": false,
        "gazeTowards": false,
        "gazeCondition": "away",
        "faceOnLeft": true,
        "impliedDirection": 0,
        "testDirection": 180,
        "avgFps": 59,
        "minFps": 30,
        "maxFps": 64,
        "totalFrames": 48,
        "frameRates": 59
      },
      {
        "trial_number": 4,
        "trial_index": 122,
        "rt": 691,
        "correct": true,
        "response": "ArrowRight",
        "congruent": true,
        "gazeTowards": true,
        "gazeCondition": "towards",
        "faceOnLeft": true,
        "impliedDirection": 0,
        "testDirection": 0,
        "avgFps": 60,
        "minFps": 59,
        "maxFps": 61,
        "totalFrames": 41,
        "frameRates": 60
      },
      {
        "trial_number": 5,
        "trial_index": 127,
        "rt": 577,
        "correct": true,
        "response": "ArrowRight",
        "congruent": true,
        "gazeTowards": true,
        "gazeCondition": "towards",
        "faceOnLeft": true,
        "impliedDirection": 0,
        "testDirection": 0,
        "avgFps": 60,
        "minFps": 58,
        "maxFps": 62,
        "totalFrames": 34,
        "frameRates": 60
      },
      {
        "trial_number": 6,
        "trial_index": 132,
        "rt": 754,
        "correct": true,
        "response": "ArrowLeft",
        "congruent": false,
        "gazeTowards": true,
        "gazeCondition": "towards",
        "faceOnLeft": true,
        "impliedDirection": 0,
        "testDirection": 180,
        "avgFps": 60,
        "minFps": 59,
        "maxFps": 60,
        "totalFrames": 45,
        "frameRates": 60
      },
      {
        "trial_number": 7,
        "trial_index": 137,
        "rt": 747,
        "correct": true,
        "response": "ArrowRight",
        "congruent": false,
        "gazeTowards": false,
        "gazeCondition": "away",
        "faceOnLeft": false,
        "impliedDirection": 180,
        "testDirection": 0,
        "avgFps": 59,
        "minFps": 30,
        "maxFps": 62,
        "totalFrames": 44,
        "frameRates": 59
      },
      {
        "trial_number": 8,
        "trial_index": 142,
        "rt": 654,
        "correct": true,
        "response": "ArrowRight",
        "congruent": true,
        "gazeTowards": true,
        "gazeCondition": "towards",
        "faceOnLeft": true,
        "impliedDirection": 0,
        "testDirection": 0,
        "avgFps": 60,
        "minFps": 60,
        "maxFps": 60,
        "totalFrames": 39,
        "frameRates": 60
      },
      {
        "trial_number": 9,
        "trial_index": 147,
        "rt": 635,
        "correct": true,
        "response": "ArrowLeft",
        "congruent": true,
        "gazeTowards": false,
        "gazeCondition": "away",
        "faceOnLeft": false,
        "impliedDirection": 180,
        "testDirection": 180,
        "avgFps": 58,
        "minFps": 30,
        "maxFps": 63,
        "totalFrames": 37,
        "frameRates": 58
      },
      {
        "trial_number": 10,
        "trial_index": 152,
        "rt": 670,
        "correct": true,
        "response": "ArrowLeft",
        "congruent": true,
        "gazeTowards": true,
        "gazeCondition": "towards",
        "faceOnLeft": false,
        "impliedDirection": 180,
        "testDirection": 180,
        "avgFps": 60,
        "minFps": 58,
        "maxFps": 62,
        "totalFrames": 40,
        "frameRates": 60
      },
      {
        "trial_number": 11,
        "trial_index": 157,
        "rt": 775,
        "correct": true,
        "response": "ArrowLeft",
        "congruent": true,
        "gazeTowards": false,
        "gazeCondition": "away",
        "faceOnLeft": false,
        "impliedDirection": 180,
        "testDirection": 180,
        "avgFps": 59,
        "minFps": 30,
        "maxFps": 60,
        "totalFrames": 46,
        "frameRates": 59
      },
      {
        "trial_number": 12,
        "trial_index": 162,
        "rt": 711,
        "correct": true,
        "response": "ArrowLeft",
        "congruent": true,
        "gazeTowards": false,
        "gazeCondition": "away",
        "faceOnLeft": false,
        "impliedDirection": 180,
        "testDirection": 180,
        "avgFps": 60,
        "minFps": 57,
        "maxFps": 63,
        "totalFrames": 42,
        "frameRates": 60
      },
      {
        "trial_number": 13,
        "trial_index": 167,
        "rt": 646,
        "correct": true,
        "response": "ArrowLeft",
        "congruent": false,
        "gazeTowards": false,
        "gazeCondition": "away",
        "faceOnLeft": true,
        "impliedDirection": 0,
        "testDirection": 180,
        "avgFps": 60,
        "minFps": 57,
        "maxFps": 63,
        "totalFrames": 39,
        "frameRates": 60
      },
      {
        "trial_number": 14,
        "trial_index": 172,
        "rt": 943,
        "correct": true,
        "response": "ArrowLeft",
        "congruent": true,
        "gazeTowards": true,
        "gazeCondition": "towards",
        "faceOnLeft": false,
        "impliedDirection": 180,
        "testDirection": 180,
        "avgFps": 59,
        "minFps": 30,
        "maxFps": 61,
        "totalFrames": 56,
        "frameRates": 59
      },
      {
        "trial_number": 15,
        "trial_index": 177,
        "rt": 791,
        "correct": true,
        "response": "ArrowLeft",
        "congruent": false,
        "gazeTowards": true,
        "gazeCondition": "towards",
        "faceOnLeft": true,
        "impliedDirection": 0,
        "testDirection": 180,
        "avgFps": 60,
        "minFps": 60,
        "maxFps": 61,
        "totalFrames": 47,
        "frameRates": 60
      },
      {
        "trial_number": 16,
        "trial_index": 182,
        "rt": 635,
        "correct": true,
        "response": "ArrowRight",
        "congruent": true,
        "gazeTowards": true,
        "gazeCondition": "towards",
        "faceOnLeft": true,
        "impliedDirection": 0,
        "testDirection": 0,
        "avgFps": 58,
        "minFps": 30,
        "maxFps": 60,
        "totalFrames": 37,
        "frameRates": 58
      },
      {
        "trial_number": 17,
        "trial_index": 187,
        "rt": 731,
        "correct": true,
        "response": "ArrowLeft",
        "congruent": true,
        "gazeTowards": false,
        "gazeCondition": "away",
        "faceOnLeft": false,
        "impliedDirection": 180,
        "testDirection": 180,
        "avgFps": 59,
        "minFps": 30,
        "maxFps": 64,
        "totalFrames": 43,
        "frameRates": 59
      },
      {
        "trial_number": 18,
        "trial_index": 192,
        "rt": 709,
        "correct": true,
        "response": "ArrowLeft",
        "congruent": true,
        "gazeTowards": true,
        "gazeCondition": "towards",
        "faceOnLeft": false,
        "impliedDirection": 180,
        "testDirection": 180,
        "avgFps": 59,
        "minFps": 30,
        "maxFps": 61,
        "totalFrames": 42,
        "frameRates": 59
      },
      {
        "trial_number": 19,
        "trial_index": 200,
        "rt": 809,
        "correct": true,
        "response": "ArrowRight",
        "congruent": false,
        "gazeTowards": true,
        "gazeCondition": "towards",
        "faceOnLeft": false,
        "impliedDirection": 180,
        "testDirection": 0,
        "avgFps": 59,
        "minFps": 30,
        "maxFps": 63,
        "totalFrames": 48,
        "frameRates": 59
      },
      {
        "trial_number": 20,
        "trial_index": 205,
        "rt": 744,
        "correct": true,
        "response": "ArrowLeft",
        "congruent": false,
        "gazeTowards": false,
        "gazeCondition": "away",
        "faceOnLeft": true,
        "impliedDirection": 0,
        "testDirection": 180,
        "avgFps": 60,
        "minFps": 60,
        "maxFps": 61,
        "totalFrames": 45,
        "frameRates": 60
      },
      {
        "trial_number": 21,
        "trial_index": 210,
        "rt": 666,
        "correct": true,
        "response": "ArrowRight",
        "congruent": true,
        "gazeTowards": true,
        "gazeCondition": "towards",
        "faceOnLeft": true,
        "impliedDirection": 0,
        "testDirection": 0,
        "avgFps": 58,
        "minFps": 30,
        "maxFps": 64,
        "totalFrames": 39,
        "frameRates": 58
      },
      {
        "trial_number": 22,
        "trial_index": 218,
        "rt": 638,
        "correct": true,
        "response": "ArrowLeft",
        "congruent": false,
        "gazeTowards": false,
        "gazeCondition": "away",
        "faceOnLeft": true,
        "impliedDirection": 0,
        "testDirection": 180,
        "avgFps": 60,
        "minFps": 56,
        "maxFps": 64,
        "totalFrames": 38,
        "frameRates": 60
      },
      {
        "trial_number": 23,
        "trial_index": 223,
        "rt": 645,
        "correct": true,
        "response": "ArrowLeft",
        "congruent": false,
        "gazeTowards": true,
        "gazeCondition": "towards",
        "faceOnLeft": true,
        "impliedDirection": 0,
        "testDirection": 180,
        "avgFps": 60,
        "minFps": 56,
        "maxFps": 64,
        "totalFrames": 38,
        "frameRates": 60
      },
      {
        "trial_number": 24,
        "trial_index": 228,
        "rt": 792,
        "correct": true,
        "response": "ArrowLeft",
        "congruent": false,
        "gazeTowards": true,
        "gazeCondition": "towards",
        "faceOnLeft": true,
        "impliedDirection": 0,
        "testDirection": 180,
        "avgFps": 59,
        "minFps": 30,
        "maxFps": 64,
        "totalFrames": 47,
        "frameRates": 59
      },
      {
        "trial_number": 25,
        "trial_index": 233,
        "rt": 665,
        "correct": true,
        "response": "ArrowLeft",
        "congruent": true,
        "gazeTowards": true,
        "gazeCondition": "towards",
        "faceOnLeft": false,
        "impliedDirection": 180,
        "testDirection": 180,
        "avgFps": 58,
        "minFps": 30,
        "maxFps": 60,
        "totalFrames": 39,
        "frameRates": 58
      },
      {
        "trial_number": 26,
        "trial_index": 238,
        "rt": 731,
        "correct": true,
        "response": "ArrowRight",
        "congruent": false,
        "gazeTowards": true,
        "gazeCondition": "towards",
        "faceOnLeft": false,
        "impliedDirection": 180,
        "testDirection": 0,
        "avgFps": 59,
        "minFps": 30,
        "maxFps": 61,
        "totalFrames": 43,
        "frameRates": 59
      },
      {
        "trial_number": 27,
        "trial_index": 244,
        "rt": 755,
        "correct": true,
        "response": "ArrowLeft",
        "congruent": true,
        "gazeTowards": false,
        "gazeCondition": "away",
        "faceOnLeft": false,
        "impliedDirection": 180,
        "testDirection": 180,
        "avgFps": 60,
        "minFps": 58,
        "maxFps": 62,
        "totalFrames": 45,
        "frameRates": 60
      },
      {
        "trial_number": 28,
        "trial_index": 249,
        "rt": 826,
        "correct": true,
        "response": "ArrowLeft",
        "congruent": false,
        "gazeTowards": false,
        "gazeCondition": "away",
        "faceOnLeft": true,
        "impliedDirection": 0,
        "testDirection": 180,
        "avgFps": 59,
        "minFps": 30,
        "maxFps": 61,
        "totalFrames": 49,
        "frameRates": 59
      },
      {
        "trial_number": 29,
        "trial_index": 254,
        "rt": 948,
        "correct": true,
        "response": "ArrowLeft",
        "congruent": false,
        "gazeTowards": true,
        "gazeCondition": "towards",
        "faceOnLeft": true,
        "impliedDirection": 0,
        "testDirection": 180,
        "avgFps": 60,
        "minFps": 58,
        "maxFps": 62,
        "totalFrames": 57,
        "frameRates": 60
      },
      {
        "trial_number": 30,
        "trial_index": 259,
        "rt": 759,
        "correct": true,
        "response": "ArrowRight",
        "congruent": true,
        "gazeTowards": false,
        "gazeCondition": "away",
        "faceOnLeft": true,
        "impliedDirection": 0,
        "testDirection": 0,
        "avgFps": 60,
        "minFps": 60,
        "maxFps": 61,
        "totalFrames": 45,
        "frameRates": 60
      },
      {
        "trial_number": 31,
        "trial_index": 264,
        "rt": 807,
        "correct": true,
        "response": "ArrowRight",
        "congruent": true,
        "gazeTowards": true,
        "gazeCondition": "towards",
        "faceOnLeft": true,
        "impliedDirection": 0,
        "testDirection": 0,
        "avgFps": 59,
        "minFps": 30,
        "maxFps": 60,
        "totalFrames": 47,
        "frameRates": 59
      },
      {
        "trial_number": 32,
        "trial_index": 269,
        "rt": 710,
        "correct": true,
        "response": "ArrowRight",
        "congruent": true,
        "gazeTowards": true,
        "gazeCondition": "towards",
        "faceOnLeft": true,
        "impliedDirection": 0,
        "testDirection": 0,
        "avgFps": 59,
        "minFps": 31,
        "maxFps": 63,
        "totalFrames": 42,
        "frameRates": 59
      },
      {
        "trial_number": 33,
        "trial_index": 274,
        "rt": 894,
        "correct": true,
        "response": "ArrowLeft",
        "congruent": false,
        "gazeTowards": false,
        "gazeCondition": "away",
        "faceOnLeft": true,
        "impliedDirection": 0,
        "testDirection": 180,
        "avgFps": 59,
        "minFps": 30,
        "maxFps": 63,
        "totalFrames": 53,
        "frameRates": 59
      },
      {
        "trial_number": 34,
        "trial_index": 279,
        "rt": 759,
        "correct": true,
        "response": "ArrowRight",
        "congruent": false,
        "gazeTowards": true,
        "gazeCondition": "towards",
        "faceOnLeft": false,
        "impliedDirection": 180,
        "testDirection": 0,
        "avgFps": 59,
        "minFps": 30,
        "maxFps": 63,
        "totalFrames": 45,
        "frameRates": 59
      },
      {
        "trial_number": 35,
        "trial_index": 284,
        "rt": 746,
        "correct": true,
        "response": "ArrowRight",
        "congruent": true,
        "gazeTowards": true,
        "gazeCondition": "towards",
        "faceOnLeft": true,
        "impliedDirection": 0,
        "testDirection": 0,
        "avgFps": 60,
        "minFps": 59,
        "maxFps": 61,
        "totalFrames": 45,
        "frameRates": 60
      },
      {
        "trial_number": 36,
        "trial_index": 289,
        "rt": 728,
        "correct": true,
        "response": "ArrowLeft",
        "congruent": false,
        "gazeTowards": false,
        "gazeCondition": "away",
        "faceOnLeft": true,
        "impliedDirection": 0,
        "testDirection": 180,
        "avgFps": 60,
        "minFps": 57,
        "maxFps": 63,
        "totalFrames": 43,
        "frameRates": 60
      },
      {
        "trial_number": 37,
        "trial_index": 294,
        "rt": 592,
        "correct": true,
        "response": "ArrowLeft",
        "congruent": false,
        "gazeTowards": false,
        "gazeCondition": "away",
        "faceOnLeft": true,
        "impliedDirection": 0,
        "testDirection": 180,
        "avgFps": 58,
        "minFps": 30,
        "maxFps": 61,
        "totalFrames": 35,
        "frameRates": 58
      },
      {
        "trial_number": 38,
        "trial_index": 299,
        "rt": 595,
        "correct": true,
        "response": "ArrowLeft",
        "congruent": true,
        "gazeTowards": false,
        "gazeCondition": "away",
        "faceOnLeft": false,
        "impliedDirection": 180,
        "testDirection": 180,
        "avgFps": 58,
        "minFps": 30,
        "maxFps": 60,
        "totalFrames": 35,
        "frameRates": 58
      },
      {
        "trial_number": 39,
        "trial_index": 304,
        "rt": 581,
        "correct": true,
        "response": "ArrowLeft",
        "congruent": true,
        "gazeTowards": true,
        "gazeCondition": "towards",
        "faceOnLeft": false,
        "impliedDirection": 180,
        "testDirection": 180,
        "avgFps": 60,
        "minFps": 58,
        "maxFps": 62,
        "totalFrames": 35,
        "frameRates": 60
      },
      {
        "trial_number": 40,
        "trial_index": 309,
        "rt": 748,
        "correct": true,
        "response": "ArrowLeft",
        "congruent": true,
        "gazeTowards": false,
        "gazeCondition": "away",
        "faceOnLeft": false,
        "impliedDirection": 180,
        "testDirection": 180,
        "avgFps": 59,
        "minFps": 30,
        "maxFps": 64,
        "totalFrames": 44,
        "frameRates": 59
      },
      {
        "trial_number": 41,
        "trial_index": 314,
        "rt": 783,
        "correct": true,
        "response": "ArrowRight",
        "congruent": false,
        "gazeTowards": true,
        "gazeCondition": "towards",
        "faceOnLeft": false,
        "impliedDirection": 180,
        "testDirection": 0,
        "avgFps": 60,
        "minFps": 60,
        "maxFps": 61,
        "totalFrames": 46,
        "frameRates": 60
      },
      {
        "trial_number": 42,
        "trial_index": 322,
        "rt": 534,
        "correct": true,
        "response": "ArrowRight",
        "congruent": true,
        "gazeTowards": false,
        "gazeCondition": "away",
        "faceOnLeft": true,
        "impliedDirection": 0,
        "testDirection": 0,
        "avgFps": 60,
        "minFps": 56,
        "maxFps": 64,
        "totalFrames": 32,
        "frameRates": 60
      },
      {
        "trial_number": 43,
        "trial_index": 327,
        "rt": 624,
        "correct": true,
        "response": "ArrowRight",
        "congruent": true,
        "gazeTowards": true,
        "gazeCondition": "towards",
        "faceOnLeft": true,
        "impliedDirection": 0,
        "testDirection": 0,
        "avgFps": 58,
        "minFps": 31,
        "maxFps": 64,
        "totalFrames": 37,
        "frameRates": 58
      },
      {
        "trial_number": 44,
        "trial_index": 332,
        "rt": 660,
        "correct": true,
        "response": "ArrowRight",
        "congruent": false,
        "gazeTowards": true,
        "gazeCondition": "towards",
        "faceOnLeft": false,
        "impliedDirection": 180,
        "testDirection": 0,
        "avgFps": 60,
        "minFps": 57,
        "maxFps": 64,
        "totalFrames": 39,
        "frameRates": 60
      },
      {
        "trial_number": 45,
        "trial_index": 337,
        "rt": 808,
        "correct": true,
        "response": "ArrowRight",
        "congruent": true,
        "gazeTowards": false,
        "gazeCondition": "away",
        "faceOnLeft": true,
        "impliedDirection": 0,
        "testDirection": 0,
        "avgFps": 59,
        "minFps": 30,
        "maxFps": 62,
        "totalFrames": 48,
        "frameRates": 59
      },
      {
        "trial_number": 46,
        "trial_index": 342,
        "rt": 695,
        "correct": true,
        "response": "ArrowLeft",
        "congruent": true,
        "gazeTowards": false,
        "gazeCondition": "away",
        "faceOnLeft": false,
        "impliedDirection": 180,
        "testDirection": 180,
        "avgFps": 59,
        "minFps": 30,
        "maxFps": 64,
        "totalFrames": 41,
        "frameRates": 59
      },
      {
        "trial_number": 47,
        "trial_index": 347,
        "rt": 853,
        "correct": true,
        "response": "ArrowLeft",
        "congruent": false,
        "gazeTowards": false,
        "gazeCondition": "away",
        "faceOnLeft": true,
        "impliedDirection": 0,
        "testDirection": 180,
        "avgFps": 60,
        "minFps": 58,
        "maxFps": 63,
        "totalFrames": 51,
        "frameRates": 60
      },
      {
        "trial_number": 48,
        "trial_index": 352,
        "rt": 599,
        "correct": true,
        "response": "ArrowRight",
        "congruent": false,
        "gazeTowards": true,
        "gazeCondition": "towards",
        "faceOnLeft": false,
        "impliedDirection": 180,
        "testDirection": 0,
        "avgFps": 58,
        "minFps": 30,
        "maxFps": 63,
        "totalFrames": 35,
        "frameRates": 58
      },
      {
        "trial_number": 49,
        "trial_index": 357,
        "rt": 689,
        "correct": true,
        "response": "ArrowRight",
        "congruent": false,
        "gazeTowards": true,
        "gazeCondition": "towards",
        "faceOnLeft": false,
        "impliedDirection": 180,
        "testDirection": 0,
        "avgFps": 60,
        "minFps": 59,
        "maxFps": 62,
        "totalFrames": 41,
        "frameRates": 60
      },
      {
        "trial_number": 50,
        "trial_index": 362,
        "rt": 633,
        "correct": true,
        "response": "ArrowRight",
        "congruent": false,
        "gazeTowards": false,
        "gazeCondition": "away",
        "faceOnLeft": false,
        "impliedDirection": 180,
        "testDirection": 0,
        "avgFps": 60,
        "minFps": 58,
        "maxFps": 62,
        "totalFrames": 38,
        "frameRates": 60
      },
      {
        "trial_number": 51,
        "trial_index": 367,
        "rt": 790,
        "correct": true,
        "response": "ArrowLeft",
        "congruent": false,
        "gazeTowards": false,
        "gazeCondition": "away",
        "faceOnLeft": true,
        "impliedDirection": 0,
        "testDirection": 180,
        "avgFps": 59,
        "minFps": 30,
        "maxFps": 60,
        "totalFrames": 47,
        "frameRates": 59
      },
      {
        "trial_number": 52,
        "trial_index": 372,
        "rt": 752,
        "correct": true,
        "response": "ArrowRight",
        "congruent": true,
        "gazeTowards": false,
        "gazeCondition": "away",
        "faceOnLeft": true,
        "impliedDirection": 0,
        "testDirection": 0,
        "avgFps": 60,
        "minFps": 58,
        "maxFps": 63,
        "totalFrames": 45,
        "frameRates": 60
      },
      {
        "trial_number": 53,
        "trial_index": 380,
        "rt": 781,
        "correct": true,
        "response": "ArrowLeft",
        "congruent": true,
        "gazeTowards": false,
        "gazeCondition": "away",
        "faceOnLeft": false,
        "impliedDirection": 180,
        "testDirection": 180,
        "avgFps": 60,
        "minFps": 59,
        "maxFps": 61,
        "totalFrames": 47,
        "frameRates": 60
      },
      {
        "trial_number": 54,
        "trial_index": 385,
        "rt": 679,
        "correct": true,
        "response": "ArrowRight",
        "congruent": true,
        "gazeTowards": false,
        "gazeCondition": "away",
        "faceOnLeft": true,
        "impliedDirection": 0,
        "testDirection": 0,
        "avgFps": 59,
        "minFps": 30,
        "maxFps": 60,
        "totalFrames": 40,
        "frameRates": 59
      },
      {
        "trial_number": 55,
        "trial_index": 390,
        "rt": 804,
        "correct": true,
        "response": "ArrowLeft",
        "congruent": true,
        "gazeTowards": false,
        "gazeCondition": "away",
        "faceOnLeft": false,
        "impliedDirection": 180,
        "testDirection": 180,
        "avgFps": 60,
        "minFps": 60,
        "maxFps": 62,
        "totalFrames": 48,
        "frameRates": 60
      },
      {
        "trial_number": 56,
        "trial_index": 395,
        "rt": 898,
        "correct": true,
        "response": "ArrowRight",
        "congruent": true,
        "gazeTowards": false,
        "gazeCondition": "away",
        "faceOnLeft": true,
        "impliedDirection": 0,
        "testDirection": 0,
        "avgFps": 60,
        "minFps": 59,
        "maxFps": 61,
        "totalFrames": 54,
        "frameRates": 60
      },
      {
        "trial_number": 57,
        "trial_index": 400,
        "rt": 628,
        "correct": true,
        "response": "ArrowRight",
        "congruent": false,
        "gazeTowards": false,
        "gazeCondition": "away",
        "faceOnLeft": false,
        "impliedDirection": 180,
        "testDirection": 0,
        "avgFps": 60,
        "minFps": 60,
        "maxFps": 60,
        "totalFrames": 37,
        "frameRates": 60
      },
      {
        "trial_number": 58,
        "trial_index": 406,
        "rt": 665,
        "correct": true,
        "response": "ArrowRight",
        "congruent": true,
        "gazeTowards": true,
        "gazeCondition": "towards",
        "faceOnLeft": true,
        "impliedDirection": 0,
        "testDirection": 0,
        "avgFps": 60,
        "minFps": 58,
        "maxFps": 61,
        "totalFrames": 40,
        "frameRates": 60
      },
      {
        "trial_number": 59,
        "trial_index": 411,
        "rt": 814,
        "correct": true,
        "response": "ArrowRight",
        "congruent": true,
        "gazeTowards": true,
        "gazeCondition": "towards",
        "faceOnLeft": true,
        "impliedDirection": 0,
        "testDirection": 0,
        "avgFps": 59,
        "minFps": 30,
        "maxFps": 64,
        "totalFrames": 48,
        "frameRates": 59
      },
      {
        "trial_number": 60,
        "trial_index": 416,
        "rt": 721,
        "correct": true,
        "response": "ArrowRight",
        "congruent": false,
        "gazeTowards": true,
        "gazeCondition": "towards",
        "faceOnLeft": false,
        "impliedDirection": 180,
        "testDirection": 0,
        "avgFps": 60,
        "minFps": 56,
        "maxFps": 64,
        "totalFrames": 43,
        "frameRates": 60
      },
      {
        "trial_number": 61,
        "trial_index": 421,
        "rt": 672,
        "correct": true,
        "response": "ArrowLeft",
        "congruent": false,
        "gazeTowards": true,
        "gazeCondition": "towards",
        "faceOnLeft": true,
        "impliedDirection": 0,
        "testDirection": 180,
        "avgFps": 60,
        "minFps": 56,
        "maxFps": 64,
        "totalFrames": 40,
        "frameRates": 60
      },
      {
        "trial_number": 62,
        "trial_index": 426,
        "rt": 771,
        "correct": true,
        "response": "ArrowLeft",
        "congruent": false,
        "gazeTowards": false,
        "gazeCondition": "away",
        "faceOnLeft": true,
        "impliedDirection": 0,
        "testDirection": 180,
        "avgFps": 60,
        "minFps": 56,
        "maxFps": 64,
        "totalFrames": 46,
        "frameRates": 60
      },
      {
        "trial_number": 63,
        "trial_index": 434,
        "rt": 718,
        "correct": true,
        "response": "ArrowRight",
        "congruent": false,
        "gazeTowards": true,
        "gazeCondition": "towards",
        "faceOnLeft": false,
        "impliedDirection": 180,
        "testDirection": 0,
        "avgFps": 60,
        "minFps": 57,
        "maxFps": 63,
        "totalFrames": 43,
        "frameRates": 60
      },
      {
        "trial_number": 64,
        "trial_index": 439,
        "rt": 598,
        "correct": true,
        "response": "ArrowLeft",
        "congruent": false,
        "gazeTowards": true,
        "gazeCondition": "towards",
        "faceOnLeft": true,
        "impliedDirection": 0,
        "testDirection": 180,
        "avgFps": 58,
        "minFps": 30,
        "maxFps": 64,
        "totalFrames": 35,
        "frameRates": 58
      },
      {
        "trial_number": 65,
        "trial_index": 444,
        "rt": 675,
        "correct": true,
        "response": "ArrowRight",
        "congruent": false,
        "gazeTowards": false,
        "gazeCondition": "away",
        "faceOnLeft": false,
        "impliedDirection": 180,
        "testDirection": 0,
        "avgFps": 59,
        "minFps": 30,
        "maxFps": 60,
        "totalFrames": 40,
        "frameRates": 59
      },
      {
        "trial_number": 66,
        "trial_index": 449,
        "rt": 636,
        "correct": true,
        "response": "ArrowRight",
        "congruent": true,
        "gazeTowards": false,
        "gazeCondition": "away",
        "faceOnLeft": true,
        "impliedDirection": 0,
        "testDirection": 0,
        "avgFps": 58,
        "minFps": 30,
        "maxFps": 61,
        "totalFrames": 38,
        "frameRates": 58
      },
      {
        "trial_number": 67,
        "trial_index": 457,
        "rt": 554,
        "correct": true,
        "response": "ArrowLeft",
        "congruent": false,
        "gazeTowards": false,
        "gazeCondition": "away",
        "faceOnLeft": true,
        "impliedDirection": 0,
        "testDirection": 180,
        "avgFps": 58,
        "minFps": 30,
        "maxFps": 63,
        "totalFrames": 32,
        "frameRates": 58
      },
      {
        "trial_number": 68,
        "trial_index": 462,
        "rt": 847,
        "correct": true,
        "response": "ArrowLeft",
        "congruent": true,
        "gazeTowards": true,
        "gazeCondition": "towards",
        "faceOnLeft": false,
        "impliedDirection": 180,
        "testDirection": 180,
        "avgFps": 59,
        "minFps": 30,
        "maxFps": 61,
        "totalFrames": 50,
        "frameRates": 59
      },
      {
        "trial_number": 69,
        "trial_index": 467,
        "rt": 644,
        "correct": true,
        "response": "ArrowLeft",
        "congruent": false,
        "gazeTowards": true,
        "gazeCondition": "towards",
        "faceOnLeft": true,
        "impliedDirection": 0,
        "testDirection": 180,
        "avgFps": 60,
        "minFps": 60,
        "maxFps": 60,
        "totalFrames": 39,
        "frameRates": 60
      },
      {
        "trial_number": 70,
        "trial_index": 472,
        "rt": 847,
        "correct": true,
        "response": "ArrowLeft",
        "congruent": true,
        "gazeTowards": false,
        "gazeCondition": "away",
        "faceOnLeft": false,
        "impliedDirection": 180,
        "testDirection": 180,
        "avgFps": 59,
        "minFps": 30,
        "maxFps": 62,
        "totalFrames": 50,
        "frameRates": 59
      },
      {
        "trial_number": 71,
        "trial_index": 477,
        "rt": 873,
        "correct": true,
        "response": "ArrowLeft",
        "congruent": false,
        "gazeTowards": true,
        "gazeCondition": "towards",
        "faceOnLeft": true,
        "impliedDirection": 0,
        "testDirection": 180,
        "avgFps": 60,
        "minFps": 59,
        "maxFps": 61,
        "totalFrames": 52,
        "frameRates": 60
      },
      {
        "trial_number": 72,
        "trial_index": 482,
        "rt": 934,
        "correct": true,
        "response": "ArrowRight",
        "congruent": false,
        "gazeTowards": false,
        "gazeCondition": "away",
        "faceOnLeft": false,
        "impliedDirection": 180,
        "testDirection": 0,
        "avgFps": 60,
        "minFps": 58,
        "maxFps": 62,
        "totalFrames": 56,
        "frameRates": 60
      },
      {
        "trial_number": 73,
        "trial_index": 490,
        "rt": 710,
        "correct": true,
        "response": "ArrowLeft",
        "congruent": true,
        "gazeTowards": false,
        "gazeCondition": "away",
        "faceOnLeft": false,
        "impliedDirection": 180,
        "testDirection": 180,
        "avgFps": 60,
        "minFps": 60,
        "maxFps": 60,
        "totalFrames": 42,
        "frameRates": 60
      },
      {
        "trial_number": 74,
        "trial_index": 495,
        "rt": 761,
        "correct": true,
        "response": "ArrowRight",
        "congruent": true,
        "gazeTowards": false,
        "gazeCondition": "away",
        "faceOnLeft": true,
        "impliedDirection": 0,
        "testDirection": 0,
        "avgFps": 59,
        "minFps": 30,
        "maxFps": 61,
        "totalFrames": 45,
        "frameRates": 59
      },
      {
        "trial_number": 75,
        "trial_index": 500,
        "rt": 630,
        "correct": true,
        "response": "ArrowRight",
        "congruent": true,
        "gazeTowards": false,
        "gazeCondition": "away",
        "faceOnLeft": true,
        "impliedDirection": 0,
        "testDirection": 0,
        "avgFps": 58,
        "minFps": 30,
        "maxFps": 63,
        "totalFrames": 37,
        "frameRates": 58
      },
      {
        "trial_number": 76,
        "trial_index": 505,
        "rt": 859,
        "correct": true,
        "response": "ArrowLeft",
        "congruent": true,
        "gazeTowards": true,
        "gazeCondition": "towards",
        "faceOnLeft": false,
        "impliedDirection": 180,
        "testDirection": 180,
        "avgFps": 59,
        "minFps": 30,
        "maxFps": 61,
        "totalFrames": 51,
        "frameRates": 59
      },
      {
        "trial_number": 77,
        "trial_index": 510,
        "rt": 832,
        "correct": true,
        "response": "ArrowRight",
        "congruent": true,
        "gazeTowards": true,
        "gazeCondition": "towards",
        "faceOnLeft": true,
        "impliedDirection": 0,
        "testDirection": 0,
        "avgFps": 59,
        "minFps": 30,
        "maxFps": 64,
        "totalFrames": 49,
        "frameRates": 59
      },
      {
        "trial_number": 78,
        "trial_index": 515,
        "rt": 708,
        "correct": true,
        "response": "ArrowRight",
        "congruent": false,
        "gazeTowards": false,
        "gazeCondition": "away",
        "faceOnLeft": false,
        "impliedDirection": 180,
        "testDirection": 0,
        "avgFps": 60,
        "minFps": 56,
        "maxFps": 64,
        "totalFrames": 42,
        "frameRates": 60
      },
      {
        "trial_number": 79,
        "trial_index": 520,
        "rt": 790,
        "correct": true,
        "response": "ArrowLeft",
        "congruent": true,
        "gazeTowards": true,
        "gazeCondition": "towards",
        "faceOnLeft": false,
        "impliedDirection": 180,
        "testDirection": 180,
        "avgFps": 59,
        "minFps": 30,
        "maxFps": 64,
        "totalFrames": 47,
        "frameRates": 59
      },
      {
        "trial_number": 80,
        "trial_index": 525,
        "rt": 929,
        "correct": true,
        "response": "ArrowLeft",
        "congruent": false,
        "gazeTowards": true,
        "gazeCondition": "towards",
        "faceOnLeft": true,
        "impliedDirection": 0,
        "testDirection": 180,
        "avgFps": 60,
        "minFps": 57,
        "maxFps": 63,
        "totalFrames": 56,
        "frameRates": 60
      },
      {
        "trial_number": 81,
        "trial_index": 530,
        "rt": 898,
        "correct": true,
        "response": "ArrowLeft",
        "congruent": true,
        "gazeTowards": false,
        "gazeCondition": "away",
        "faceOnLeft": false,
        "impliedDirection": 180,
        "testDirection": 180,
        "avgFps": 60,
        "minFps": 60,
        "maxFps": 61,
        "totalFrames": 54,
        "frameRates": 60
      },
      {
        "trial_number": 82,
        "trial_index": 535,
        "rt": 934,
        "correct": true,
        "response": "ArrowLeft",
        "congruent": false,
        "gazeTowards": false,
        "gazeCondition": "away",
        "faceOnLeft": true,
        "impliedDirection": 0,
        "testDirection": 180,
        "avgFps": 59,
        "minFps": 30,
        "maxFps": 61,
        "totalFrames": 55,
        "frameRates": 59
      },
      {
        "trial_number": 83,
        "trial_index": 540,
        "rt": 1029,
        "correct": true,
        "response": "ArrowLeft",
        "congruent": false,
        "gazeTowards": true,
        "gazeCondition": "towards",
        "faceOnLeft": true,
        "impliedDirection": 0,
        "testDirection": 180,
        "avgFps": 59,
        "minFps": 30,
        "maxFps": 60,
        "totalFrames": 61,
        "frameRates": 59
      },
      {
        "trial_number": 84,
        "trial_index": 545,
        "rt": 763,
        "correct": true,
        "response": "ArrowLeft",
        "congruent": true,
        "gazeTowards": true,
        "gazeCondition": "towards",
        "faceOnLeft": false,
        "impliedDirection": 180,
        "testDirection": 180,
        "avgFps": 59,
        "minFps": 30,
        "maxFps": 60,
        "totalFrames": 45,
        "frameRates": 59
      },
      {
        "trial_number": 85,
        "trial_index": 550,
        "rt": 946,
        "correct": true,
        "response": "ArrowLeft",
        "congruent": false,
        "gazeTowards": true,
        "gazeCondition": "towards",
        "faceOnLeft": true,
        "impliedDirection": 0,
        "testDirection": 180,
        "avgFps": 59,
        "minFps": 30,
        "maxFps": 63,
        "totalFrames": 56,
        "frameRates": 59
      },
      {
        "trial_number": 86,
        "trial_index": 555,
        "rt": 913,
        "correct": true,
        "response": "ArrowRight",
        "congruent": true,
        "gazeTowards": false,
        "gazeCondition": "away",
        "faceOnLeft": true,
        "impliedDirection": 0,
        "testDirection": 0,
        "avgFps": 59,
        "minFps": 30,
        "maxFps": 61,
        "totalFrames": 54,
        "frameRates": 59
      },
      {
        "trial_number": 87,
        "trial_index": 560,
        "rt": 928,
        "correct": true,
        "response": "ArrowLeft",
        "congruent": true,
        "gazeTowards": false,
        "gazeCondition": "away",
        "faceOnLeft": false,
        "impliedDirection": 180,
        "testDirection": 180,
        "avgFps": 59,
        "minFps": 30,
        "maxFps": 64,
        "totalFrames": 55,
        "frameRates": 59
      },
      {
        "trial_number": 88,
        "trial_index": 566,
        "rt": 856,
        "correct": true,
        "response": "ArrowLeft",
        "congruent": false,
        "gazeTowards": true,
        "gazeCondition": "towards",
        "faceOnLeft": true,
        "impliedDirection": 0,
        "testDirection": 180,
        "avgFps": 60,
        "minFps": 59,
        "maxFps": 61,
        "totalFrames": 51,
        "frameRates": 60
      },
      {
        "trial_number": 89,
        "trial_index": 571,
        "rt": 879,
        "correct": true,
        "response": "ArrowLeft",
        "congruent": true,
        "gazeTowards": true,
        "gazeCondition": "towards",
        "faceOnLeft": false,
        "impliedDirection": 180,
        "testDirection": 180,
        "avgFps": 59,
        "minFps": 30,
        "maxFps": 61,
        "totalFrames": 52,
        "frameRates": 59
      },
      {
        "trial_number": 90,
        "trial_index": 576,
        "rt": 951,
        "correct": true,
        "response": "ArrowLeft",
        "congruent": false,
        "gazeTowards": true,
        "gazeCondition": "towards",
        "faceOnLeft": true,
        "impliedDirection": 0,
        "testDirection": 180,
        "avgFps": 59,
        "minFps": 30,
        "maxFps": 61,
        "totalFrames": 56,
        "frameRates": 59
      },
      {
        "trial_number": 91,
        "trial_index": 581,
        "rt": 640,
        "correct": true,
        "response": "ArrowRight",
        "congruent": false,
        "gazeTowards": true,
        "gazeCondition": "towards",
        "faceOnLeft": false,
        "impliedDirection": 180,
        "testDirection": 0,
        "avgFps": 58,
        "minFps": 30,
        "maxFps": 61,
        "totalFrames": 38,
        "frameRates": 58
      },
      {
        "trial_number": 92,
        "trial_index": 586,
        "rt": 833,
        "correct": true,
        "response": "ArrowRight",
        "congruent": true,
        "gazeTowards": false,
        "gazeCondition": "away",
        "faceOnLeft": true,
        "impliedDirection": 0,
        "testDirection": 0,
        "avgFps": 60,
        "minFps": 57,
        "maxFps": 63,
        "totalFrames": 49,
        "frameRates": 60
      },
      {
        "trial_number": 93,
        "trial_index": 591,
        "rt": 948,
        "correct": true,
        "response": "ArrowRight",
        "congruent": true,
        "gazeTowards": true,
        "gazeCondition": "towards",
        "faceOnLeft": true,
        "impliedDirection": 0,
        "testDirection": 0,
        "avgFps": 59,
        "minFps": 30,
        "maxFps": 64,
        "totalFrames": 56,
        "frameRates": 59
      },
      {
        "trial_number": 94,
        "trial_index": 596,
        "rt": 1114,
        "correct": true,
        "response": "ArrowLeft",
        "congruent": false,
        "gazeTowards": false,
        "gazeCondition": "away",
        "faceOnLeft": true,
        "impliedDirection": 0,
        "testDirection": 180,
        "avgFps": 59,
        "minFps": 30,
        "maxFps": 64,
        "totalFrames": 66,
        "frameRates": 59
      },
      {
        "trial_number": 95,
        "trial_index": 601,
        "rt": 972,
        "correct": true,
        "response": "ArrowRight",
        "congruent": false,
        "gazeTowards": true,
        "gazeCondition": "towards",
        "faceOnLeft": false,
        "impliedDirection": 180,
        "testDirection": 0,
        "avgFps": 60,
        "minFps": 56,
        "maxFps": 64,
        "totalFrames": 58,
        "frameRates": 60
      },
      {
        "trial_number": 96,
        "trial_index": 609,
        "rt": 894,
        "correct": true,
        "response": "ArrowRight",
        "congruent": true,
        "gazeTowards": true,
        "gazeCondition": "towards",
        "faceOnLeft": true,
        "impliedDirection": 0,
        "testDirection": 0,
        "avgFps": 59,
        "minFps": 30,
        "maxFps": 62,
        "totalFrames": 53,
        "frameRates": 59
      },
      {
        "trial_number": 97,
        "trial_index": 614,
        "rt": 629,
        "correct": true,
        "response": "ArrowRight",
        "congruent": false,
        "gazeTowards": true,
        "gazeCondition": "towards",
        "faceOnLeft": false,
        "impliedDirection": 180,
        "testDirection": 0,
        "avgFps": 58,
        "minFps": 31,
        "maxFps": 64,
        "totalFrames": 37,
        "frameRates": 58
      },
      {
        "trial_number": 98,
        "trial_index": 619,
        "rt": 774,
        "correct": true,
        "response": "ArrowLeft",
        "congruent": false,
        "gazeTowards": true,
        "gazeCondition": "towards",
        "faceOnLeft": true,
        "impliedDirection": 0,
        "testDirection": 180,
        "avgFps": 60,
        "minFps": 58,
        "maxFps": 62,
        "totalFrames": 46,
        "frameRates": 60
      },
      {
        "trial_number": 99,
        "trial_index": 624,
        "rt": 775,
        "correct": true,
        "response": "ArrowLeft",
        "congruent": false,
        "gazeTowards": false,
        "gazeCondition": "away",
        "faceOnLeft": true,
        "impliedDirection": 0,
        "testDirection": 180,
        "avgFps": 59,
        "minFps": 30,
        "maxFps": 60,
        "totalFrames": 46,
        "frameRates": 59
      },
      {
        "trial_number": 100,
        "trial_index": 629,
        "rt": 746,
        "correct": true,
        "response": "ArrowRight",
        "congruent": false,
        "gazeTowards": false,
        "gazeCondition": "away",
        "faceOnLeft": false,
        "impliedDirection": 180,
        "testDirection": 0,
        "avgFps": 60,
        "minFps": 57,
        "maxFps": 63,
        "totalFrames": 44,
        "frameRates": 60
      },
      {
        "trial_number": 101,
        "trial_index": 634,
        "rt": 888,
        "correct": true,
        "response": "ArrowLeft",
        "congruent": false,
        "gazeTowards": false,
        "gazeCondition": "away",
        "faceOnLeft": true,
        "impliedDirection": 0,
        "testDirection": 180,
        "avgFps": 60,
        "minFps": 57,
        "maxFps": 64,
        "totalFrames": 53,
        "frameRates": 60
      },
      {
        "trial_number": 102,
        "trial_index": 639,
        "rt": 992,
        "correct": true,
        "response": "ArrowLeft",
        "congruent": false,
        "gazeTowards": true,
        "gazeCondition": "towards",
        "faceOnLeft": true,
        "impliedDirection": 0,
        "testDirection": 180,
        "avgFps": 60,
        "minFps": 57,
        "maxFps": 63,
        "totalFrames": 59,
        "frameRates": 60
      },
      {
        "trial_number": 103,
        "trial_index": 644,
        "rt": 896,
        "correct": true,
        "response": "ArrowLeft",
        "congruent": true,
        "gazeTowards": false,
        "gazeCondition": "away",
        "faceOnLeft": false,
        "impliedDirection": 180,
        "testDirection": 180,
        "avgFps": 60,
        "minFps": 58,
        "maxFps": 62,
        "totalFrames": 54,
        "frameRates": 60
      },
      {
        "trial_number": 104,
        "trial_index": 649,
        "rt": 814,
        "correct": true,
        "response": "ArrowLeft",
        "congruent": true,
        "gazeTowards": false,
        "gazeCondition": "away",
        "faceOnLeft": false,
        "impliedDirection": 180,
        "testDirection": 180,
        "avgFps": 60,
        "minFps": 58,
        "maxFps": 62,
        "totalFrames": 48,
        "frameRates": 60
      },
      {
        "trial_number": 105,
        "trial_index": 654,
        "rt": 1191,
        "correct": true,
        "response": "ArrowLeft",
        "congruent": true,
        "gazeTowards": true,
        "gazeCondition": "towards",
        "faceOnLeft": false,
        "impliedDirection": 180,
        "testDirection": 180,
        "avgFps": 60,
        "minFps": 57,
        "maxFps": 63,
        "totalFrames": 71,
        "frameRates": 60
      },
      {
        "trial_number": 106,
        "trial_index": 659,
        "rt": 1070,
        "correct": true,
        "response": "ArrowLeft",
        "congruent": false,
        "gazeTowards": false,
        "gazeCondition": "away",
        "faceOnLeft": true,
        "impliedDirection": 0,
        "testDirection": 180,
        "avgFps": 60,
        "minFps": 57,
        "maxFps": 63,
        "totalFrames": 64,
        "frameRates": 60
      },
      {
        "trial_number": 107,
        "trial_index": 664,
        "rt": 1174,
        "correct": true,
        "response": "ArrowLeft",
        "congruent": false,
        "gazeTowards": false,
        "gazeCondition": "away",
        "faceOnLeft": true,
        "impliedDirection": 0,
        "testDirection": 180,
        "avgFps": 60,
        "minFps": 57,
        "maxFps": 64,
        "totalFrames": 70,
        "frameRates": 60
      },
      {
        "trial_number": 108,
        "trial_index": 669,
        "rt": 1041,
        "correct": true,
        "response": "ArrowLeft",
        "congruent": false,
        "gazeTowards": false,
        "gazeCondition": "away",
        "faceOnLeft": true,
        "impliedDirection": 0,
        "testDirection": 180,
        "avgFps": 59,
        "minFps": 30,
        "maxFps": 62,
        "totalFrames": 62,
        "frameRates": 59
      },
      {
        "trial_number": 109,
        "trial_index": 674,
        "rt": 693,
        "correct": true,
        "response": "ArrowRight",
        "congruent": false,
        "gazeTowards": true,
        "gazeCondition": "towards",
        "faceOnLeft": false,
        "impliedDirection": 180,
        "testDirection": 0,
        "avgFps": 59,
        "minFps": 30,
        "maxFps": 60,
        "totalFrames": 41,
        "frameRates": 59
      },
      {
        "trial_number": 110,
        "trial_index": 679,
        "rt": 663,
        "correct": true,
        "response": "ArrowLeft",
        "congruent": true,
        "gazeTowards": false,
        "gazeCondition": "away",
        "faceOnLeft": false,
        "impliedDirection": 180,
        "testDirection": 180,
        "avgFps": 60,
        "minFps": 58,
        "maxFps": 62,
        "totalFrames": 40,
        "frameRates": 60
      },
      {
        "trial_number": 111,
        "trial_index": 684,
        "rt": 836,
        "correct": true,
        "response": "ArrowRight",
        "congruent": true,
        "gazeTowards": true,
        "gazeCondition": "towards",
        "faceOnLeft": true,
        "impliedDirection": 0,
        "testDirection": 0,
        "avgFps": 60,
        "minFps": 56,
        "maxFps": 64,
        "totalFrames": 50,
        "frameRates": 60
      },
      {
        "trial_number": 112,
        "trial_index": 689,
        "rt": 802,
        "correct": true,
        "response": "ArrowRight",
        "congruent": true,
        "gazeTowards": true,
        "gazeCondition": "towards",
        "faceOnLeft": true,
        "impliedDirection": 0,
        "testDirection": 0,
        "avgFps": 59,
        "minFps": 30,
        "maxFps": 63,
        "totalFrames": 47,
        "frameRates": 59
      },
      {
        "trial_number": 113,
        "trial_index": 694,
        "rt": 896,
        "correct": true,
        "response": "ArrowLeft",
        "congruent": true,
        "gazeTowards": false,
        "gazeCondition": "away",
        "faceOnLeft": false,
        "impliedDirection": 180,
        "testDirection": 180,
        "avgFps": 59,
        "minFps": 30,
        "maxFps": 62,
        "totalFrames": 53,
        "frameRates": 59
      },
      {
        "trial_number": 114,
        "trial_index": 699,
        "rt": 823,
        "correct": true,
        "response": "ArrowRight",
        "congruent": true,
        "gazeTowards": true,
        "gazeCondition": "towards",
        "faceOnLeft": true,
        "impliedDirection": 0,
        "testDirection": 0,
        "avgFps": 59,
        "minFps": 30,
        "maxFps": 63,
        "totalFrames": 49,
        "frameRates": 59
      },
      {
        "trial_number": 115,
        "trial_index": 704,
        "rt": 690,
        "correct": true,
        "response": "ArrowLeft",
        "congruent": true,
        "gazeTowards": true,
        "gazeCondition": "towards",
        "faceOnLeft": false,
        "impliedDirection": 180,
        "testDirection": 180,
        "avgFps": 59,
        "minFps": 30,
        "maxFps": 64,
        "totalFrames": 40,
        "frameRates": 59
      },
      {
        "trial_number": 116,
        "trial_index": 709,
        "rt": 885,
        "correct": true,
        "response": "ArrowLeft",
        "congruent": false,
        "gazeTowards": false,
        "gazeCondition": "away",
        "faceOnLeft": true,
        "impliedDirection": 0,
        "testDirection": 180,
        "avgFps": 59,
        "minFps": 30,
        "maxFps": 63,
        "totalFrames": 52,
        "frameRates": 59
      },
      {
        "trial_number": 117,
        "trial_index": 714,
        "rt": 924,
        "correct": true,
        "response": "ArrowLeft",
        "congruent": false,
        "gazeTowards": false,
        "gazeCondition": "away",
        "faceOnLeft": true,
        "impliedDirection": 0,
        "testDirection": 180,
        "avgFps": 60,
        "minFps": 58,
        "maxFps": 63,
        "totalFrames": 55,
        "frameRates": 60
      },
      {
        "trial_number": 118,
        "trial_index": 719,
        "rt": 1001,
        "correct": true,
        "response": "ArrowRight",
        "congruent": false,
        "gazeTowards": false,
        "gazeCondition": "away",
        "faceOnLeft": false,
        "impliedDirection": 180,
        "testDirection": 0,
        "avgFps": 60,
        "minFps": 58,
        "maxFps": 63,
        "totalFrames": 60,
        "frameRates": 60
      },
      {
        "trial_number": 119,
        "trial_index": 724,
        "rt": 754,
        "correct": true,
        "response": "ArrowLeft",
        "congruent": true,
        "gazeTowards": false,
        "gazeCondition": "away",
        "faceOnLeft": false,
        "impliedDirection": 180,
        "testDirection": 180,
        "avgFps": 60,
        "minFps": 57,
        "maxFps": 63,
        "totalFrames": 45,
        "frameRates": 60
      }
    ],
    "catch": {
      "total": 12,
      "correct": 12,
      "accuracy": 100,
      "meanRT": 604,
      "trials": [
        {
          "trial_number": 0,
          "trial_index": 99,
          "rt": 695,
          "correct": true,
          "colorTarget": "tree",
          "gazeTowards": false,
          "gazeCondition": "away",
          "faceOnLeft": false
        },
        {
          "trial_number": 1,
          "trial_index": 102,
          "rt": 668,
          "correct": true,
          "colorTarget": "face",
          "gazeTowards": true,
          "gazeCondition": "towards",
          "faceOnLeft": true
        },
        {
          "trial_number": 2,
          "trial_index": 105,
          "rt": 560,
          "correct": true,
          "colorTarget": "tree",
          "gazeTowards": true,
          "gazeCondition": "towards",
          "faceOnLeft": true
        },
        {
          "trial_number": 3,
          "trial_index": 108,
          "rt": 520,
          "correct": true,
          "colorTarget": "tree",
          "gazeTowards": false,
          "gazeCondition": "away",
          "faceOnLeft": false
        },
        {
          "trial_number": 4,
          "trial_index": 196,
          "rt": 736,
          "correct": true,
          "colorTarget": "face",
          "gazeTowards": false,
          "gazeCondition": "away",
          "faceOnLeft": false
        },
        {
          "trial_number": 5,
          "trial_index": 214,
          "rt": 575,
          "correct": true,
          "colorTarget": "face",
          "gazeTowards": false,
          "gazeCondition": "away",
          "faceOnLeft": false
        },
        {
          "trial_number": 6,
          "trial_index": 318,
          "rt": 629,
          "correct": true,
          "colorTarget": "tree",
          "gazeTowards": true,
          "gazeCondition": "towards",
          "faceOnLeft": true
        },
        {
          "trial_number": 7,
          "trial_index": 376,
          "rt": 564,
          "correct": true,
          "colorTarget": "tree",
          "gazeTowards": true,
          "gazeCondition": "towards",
          "faceOnLeft": false
        },
        {
          "trial_number": 8,
          "trial_index": 430,
          "rt": 606,
          "correct": true,
          "colorTarget": "face",
          "gazeTowards": true,
          "gazeCondition": "towards",
          "faceOnLeft": false
        },
        {
          "trial_number": 9,
          "trial_index": 453,
          "rt": 503,
          "correct": true,
          "colorTarget": "face",
          "gazeTowards": false,
          "gazeCondition": "away",
          "faceOnLeft": true
        },
        {
          "trial_number": 10,
          "trial_index": 486,
          "rt": 549,
          "correct": true,
          "colorTarget": "tree",
          "gazeTowards": false,
          "gazeCondition": "away",
          "faceOnLeft": false
        },
        {
          "trial_number": 11,
          "trial_index": 605,
          "rt": 643,
          "correct": true,
          "colorTarget": "face",
          "gazeTowards": true,
          "gazeCondition": "towards",
          "faceOnLeft": true
        }
      ]
    },
    "practice": {
      "trials": [
        {
          "trial_number": 0,
          "rt": null,
          "correct": false,
          "direction": 0
        },
        {
          "trial_number": 1,
          "rt": 1051,
          "correct": true,
          "direction": 0
        },
        {
          "trial_number": 2,
          "rt": 1218,
          "correct": false,
          "direction": 0
        },
        {
          "trial_number": 3,
          "rt": 1090,
          "correct": false,
          "direction": 0
        },
        {
          "trial_number": 4,
          "rt": 1402,
          "correct": true,
          "direction": 180
        },
        {
          "trial_number": 5,
          "rt": 1253,
          "correct": true,
          "direction": 180
        },
        {
          "trial_number": 6,
          "rt": 848,
          "correct": true,
          "direction": 0
        },
        {
          "trial_number": 7,
          "rt": 760,
          "correct": true,
          "direction": 180
        },
        {
          "trial_number": 8,
          "rt": 607,
          "correct": true,
          "direction": 0
        },
        {
          "trial_number": 9,
          "rt": 739,
          "correct": true,
          "direction": 180
        },
        {
          "trial_number": 10,
          "rt": 510,
          "correct": true,
          "direction": 0
        },
        {
          "trial_number": 11,
          "rt": 820,
          "correct": false,
          "direction": 0
        },
        {
          "trial_number": 12,
          "rt": 732,
          "correct": true,
          "direction": 0
        },
        {
          "trial_number": 13,
          "rt": 778,
          "correct": true,
          "direction": 0
        },
        {
          "trial_number": 14,
          "rt": 652,
          "correct": true,
          "direction": 180
        },
        {
          "trial_number": 15,
          "rt": 756,
          "correct": true,
          "direction": 180
        },
        {
          "trial_number": 16,
          "rt": 669,
          "correct": true,
          "direction": 0
        },
        {
          "trial_number": 17,
          "rt": 593,
          "correct": true,
          "direction": 180
        },
        {
          "trial_number": 18,
          "rt": 582,
          "correct": true,
          "direction": 0
        },
        {
          "trial_number": 19,
          "rt": 698,
          "correct": true,
          "direction": 180
        }
      ],
      "meanRT": 829,
      "accuracy": 80
    }
  }
}