{
  "experiment": "rdk-face-1",
  "UUID": "d28d5ebd-2024-4233-9dc3-040f1e334641",
  "data": {
    "session": {
      "experiment_version": "1.8.6",
      "treatment": "faces_towards_away_catch",
      "file_version": "1.8.6",
      "totalTrials": 120,
      "totalTrialsIncludingCatch": 132,
      "conditions": {
        "gazeTowardsCount": 60,
        "gazeAwayCount": 60,
        "gazeTowardsAccuracy": 95,
        "gazeAwayAccuracy": 95
      },
      "session_group": "default",
      "browserData": {
        "os": "Mac",
        "browser": "Chrome",
        "screenResolution": "1512x982",
        "browserViewport": "1512x945",
        "devicePixelRatio": 2,
        "colorDepth": 30,
        "hardwareConcurrency": 10,
        "deviceMemory": 8,
        "gpuRenderer": "ANGLE (Apple, ANGLE Metal Renderer: Apple M2 Pro, Unspecified Version)",
        "measuredRefreshRateHz": 111
      },
      "attention": {
        "visibilityEvents": [
          {
            "event": "blur",
            "state": "blurred",
            "timestamp": 1772766330713
          },
          {
            "event": "visibilitychange",
            "state": "hidden",
            "timestamp": 1772766330714
          },
          {
            "event": "visibilitychange",
            "state": "visible",
            "timestamp": 1772766332110
          },
          {
            "event": "focus",
            "state": "focused",
            "timestamp": 1772766332121
          },
          {
            "event": "blur",
            "state": "blurred",
            "timestamp": 1772766603476
          },
          {
            "event": "focus",
            "state": "focused",
            "timestamp": 1772766622247
          },
          {
            "event": "blur",
            "state": "blurred",
            "timestamp": 1772766794989
          },
          {
            "event": "visibilitychange",
            "state": "hidden",
            "timestamp": 1772766830427
          },
          {
            "event": "focus",
            "state": "focused",
            "timestamp": 1772767000172
          },
          {
            "event": "blur",
            "state": "blurred",
            "timestamp": 1772767000301
          },
          {
            "event": "visibilitychange",
            "state": "visible",
            "timestamp": 1772767000334
          },
          {
            "event": "focus",
            "state": "focused",
            "timestamp": 1772767000583
          },
          {
            "event": "blur",
            "state": "blurred",
            "timestamp": 1772767004600
          },
          {
            "event": "focus",
            "state": "focused",
            "timestamp": 1772767011553
          },
          {
            "event": "blur",
            "state": "blurred",
            "timestamp": 1772767181584
          },
          {
            "event": "focus",
            "state": "focused",
            "timestamp": 1772767247126
          }
        ]
      },
      "calibration": {
        "monitorWidthCm": 38,
        "viewingDistanceCm": 54,
        "pixelsPerDegree": 50
      },
      "parameters": {
        "coherence": 0.4,
        "apertureDeg": 5,
        "densityDotsPerDeg2": 40,
        "dotDiameterDeg": 0.035,
        "dotSpeedDegPerSec": 3,
        "lifetimeMs": 200,
        "fixationDurationMs": 1500,
        "faceDurationMs": 1500,
        "testDurationMs": 2000,
        "catchResponseMs": 3000
      },
      "prolific": {
        "prolificPid": "5ffd320153c98625a7d9fe35",
        "studyId": "",
        "sessionId": ""
      },
      "timing": {
        "startTime": "2026-03-06T03:05:28.711Z",
        "endTime": "2026-03-06T03:23:45.564Z",
        "totalElapsedTimeMs": 1096853
      }
    },
    "trials": [
      {
        "trial_number": 0,
        "trial_index": 49,
        "rt": 927,
        "correct": true,
        "response": "ArrowLeft",
        "congruent": false,
        "gazeTowards": false,
        "gazeCondition": "away",
        "faceOnLeft": true,
        "impliedDirection": 0,
        "testDirection": 180,
        "avgFps": 119,
        "minFps": 60,
        "maxFps": 137,
        "totalFrames": 110,
        "frameRates": 119
      },
      {
        "trial_number": 1,
        "trial_index": 54,
        "rt": 913,
        "correct": true,
        "response": "ArrowLeft",
        "congruent": true,
        "gazeTowards": false,
        "gazeCondition": "away",
        "faceOnLeft": false,
        "impliedDirection": 180,
        "testDirection": 180,
        "avgFps": 119,
        "minFps": 61,
        "maxFps": 133,
        "totalFrames": 109,
        "frameRates": 119
      },
      {
        "trial_number": 2,
        "trial_index": 59,
        "rt": 763,
        "correct": true,
        "response": "ArrowLeft",
        "congruent": true,
        "gazeTowards": false,
        "gazeCondition": "away",
        "faceOnLeft": false,
        "impliedDirection": 180,
        "testDirection": 180,
        "avgFps": 120,
        "minFps": 106,
        "maxFps": 135,
        "totalFrames": 91,
        "frameRates": 120
      },
      {
        "trial_number": 3,
        "trial_index": 64,
        "rt": 1118,
        "correct": true,
        "response": "ArrowLeft",
        "congruent": true,
        "gazeTowards": true,
        "gazeCondition": "towards",
        "faceOnLeft": false,
        "impliedDirection": 180,
        "testDirection": 180,
        "avgFps": 120,
        "minFps": 108,
        "maxFps": 133,
        "totalFrames": 134,
        "frameRates": 120
      },
      {
        "trial_number": 4,
        "trial_index": 69,
        "rt": 866,
        "correct": true,
        "response": "ArrowLeft",
        "congruent": true,
        "gazeTowards": true,
        "gazeCondition": "towards",
        "faceOnLeft": false,
        "impliedDirection": 180,
        "testDirection": 180,
        "avgFps": 120,
        "minFps": 108,
        "maxFps": 135,
        "totalFrames": 103,
        "frameRates": 120
      },
      {
        "trial_number": 5,
        "trial_index": 74,
        "rt": 895,
        "correct": true,
        "response": "ArrowRight",
        "congruent": true,
        "gazeTowards": false,
        "gazeCondition": "away",
        "faceOnLeft": true,
        "impliedDirection": 0,
        "testDirection": 0,
        "avgFps": 120,
        "minFps": 108,
        "maxFps": 137,
        "totalFrames": 107,
        "frameRates": 120
      },
      {
        "trial_number": 6,
        "trial_index": 79,
        "rt": 661,
        "correct": true,
        "response": "ArrowRight",
        "congruent": true,
        "gazeTowards": false,
        "gazeCondition": "away",
        "faceOnLeft": true,
        "impliedDirection": 0,
        "testDirection": 0,
        "avgFps": 119,
        "minFps": 60,
        "maxFps": 139,
        "totalFrames": 79,
        "frameRates": 119
      },
      {
        "trial_number": 7,
        "trial_index": 84,
        "rt": 662,
        "correct": true,
        "response": "ArrowRight",
        "congruent": false,
        "gazeTowards": false,
        "gazeCondition": "away",
        "faceOnLeft": false,
        "impliedDirection": 180,
        "testDirection": 0,
        "avgFps": 118,
        "minFps": 61,
        "maxFps": 137,
        "totalFrames": 78,
        "frameRates": 118
      },
      {
        "trial_number": 8,
        "trial_index": 89,
        "rt": 757,
        "correct": true,
        "response": "ArrowRight",
        "congruent": true,
        "gazeTowards": false,
        "gazeCondition": "away",
        "faceOnLeft": true,
        "impliedDirection": 0,
        "testDirection": 0,
        "avgFps": 119,
        "minFps": 61,
        "maxFps": 137,
        "totalFrames": 90,
        "frameRates": 119
      },
      {
        "trial_number": 9,
        "trial_index": 94,
        "rt": 557,
        "correct": true,
        "response": "ArrowLeft",
        "congruent": true,
        "gazeTowards": true,
        "gazeCondition": "towards",
        "faceOnLeft": false,
        "impliedDirection": 180,
        "testDirection": 180,
        "avgFps": 118,
        "minFps": 63,
        "maxFps": 135,
        "totalFrames": 66,
        "frameRates": 118
      },
      {
        "trial_number": 10,
        "trial_index": 99,
        "rt": 623,
        "correct": true,
        "response": "ArrowLeft",
        "congruent": false,
        "gazeTowards": false,
        "gazeCondition": "away",
        "faceOnLeft": true,
        "impliedDirection": 0,
        "testDirection": 180,
        "avgFps": 120,
        "minFps": 106,
        "maxFps": 133,
        "totalFrames": 75,
        "frameRates": 120
      },
      {
        "trial_number": 11,
        "trial_index": 107,
        "rt": 728,
        "correct": true,
        "response": "ArrowLeft",
        "congruent": true,
        "gazeTowards": true,
        "gazeCondition": "towards",
        "faceOnLeft": false,
        "impliedDirection": 180,
        "testDirection": 180,
        "avgFps": 119,
        "minFps": 61,
        "maxFps": 135,
        "totalFrames": 86,
        "frameRates": 119
      },
      {
        "trial_number": 12,
        "trial_index": 112,
        "rt": 577,
        "correct": true,
        "response": "ArrowLeft",
        "congruent": false,
        "gazeTowards": true,
        "gazeCondition": "towards",
        "faceOnLeft": true,
        "impliedDirection": 0,
        "testDirection": 180,
        "avgFps": 118,
        "minFps": 60,
        "maxFps": 135,
        "totalFrames": 69,
        "frameRates": 118
      },
      {
        "trial_number": 13,
        "trial_index": 117,
        "rt": 572,
        "correct": true,
        "response": "ArrowRight",
        "congruent": false,
        "gazeTowards": true,
        "gazeCondition": "towards",
        "faceOnLeft": false,
        "impliedDirection": 180,
        "testDirection": 0,
        "avgFps": 120,
        "minFps": 109,
        "maxFps": 135,
        "totalFrames": 68,
        "frameRates": 120
      },
      {
        "trial_number": 14,
        "trial_index": 122,
        "rt": 532,
        "correct": true,
        "response": "ArrowLeft",
        "congruent": false,
        "gazeTowards": true,
        "gazeCondition": "towards",
        "faceOnLeft": true,
        "impliedDirection": 0,
        "testDirection": 180,
        "avgFps": 118,
        "minFps": 60,
        "maxFps": 133,
        "totalFrames": 63,
        "frameRates": 118
      },
      {
        "trial_number": 15,
        "trial_index": 127,
        "rt": 582,
        "correct": true,
        "response": "ArrowRight",
        "congruent": false,
        "gazeTowards": false,
        "gazeCondition": "away",
        "faceOnLeft": false,
        "impliedDirection": 180,
        "testDirection": 0,
        "avgFps": 118,
        "minFps": 61,
        "maxFps": 135,
        "totalFrames": 69,
        "frameRates": 118
      },
      {
        "trial_number": 16,
        "trial_index": 132,
        "rt": 632,
        "correct": true,
        "response": "ArrowLeft",
        "congruent": true,
        "gazeTowards": false,
        "gazeCondition": "away",
        "faceOnLeft": false,
        "impliedDirection": 180,
        "testDirection": 180,
        "avgFps": 118,
        "minFps": 60,
        "maxFps": 133,
        "totalFrames": 75,
        "frameRates": 118
      },
      {
        "trial_number": 17,
        "trial_index": 140,
        "rt": 613,
        "correct": true,
        "response": "ArrowRight",
        "congruent": false,
        "gazeTowards": false,
        "gazeCondition": "away",
        "faceOnLeft": false,
        "impliedDirection": 180,
        "testDirection": 0,
        "avgFps": 120,
        "minFps": 109,
        "maxFps": 133,
        "totalFrames": 73,
        "frameRates": 120
      },
      {
        "trial_number": 18,
        "trial_index": 145,
        "rt": 569,
        "correct": true,
        "response": "ArrowRight",
        "congruent": true,
        "gazeTowards": true,
        "gazeCondition": "towards",
        "faceOnLeft": true,
        "impliedDirection": 0,
        "testDirection": 0,
        "avgFps": 120,
        "minFps": 108,
        "maxFps": 135,
        "totalFrames": 68,
        "frameRates": 120
      },
      {
        "trial_number": 19,
        "trial_index": 150,
        "rt": 663,
        "correct": true,
        "response": "ArrowRight",
        "congruent": true,
        "gazeTowards": true,
        "gazeCondition": "towards",
        "faceOnLeft": true,
        "impliedDirection": 0,
        "testDirection": 0,
        "avgFps": 120,
        "minFps": 108,
        "maxFps": 133,
        "totalFrames": 79,
        "frameRates": 120
      },
      {
        "trial_number": 20,
        "trial_index": 155,
        "rt": 861,
        "correct": true,
        "response": "ArrowLeft",
        "congruent": false,
        "gazeTowards": false,
        "gazeCondition": "away",
        "faceOnLeft": true,
        "impliedDirection": 0,
        "testDirection": 180,
        "avgFps": 120,
        "minFps": 106,
        "maxFps": 135,
        "totalFrames": 103,
        "frameRates": 120
      },
      {
        "trial_number": 21,
        "trial_index": 160,
        "rt": 512,
        "correct": true,
        "response": "ArrowRight",
        "congruent": false,
        "gazeTowards": true,
        "gazeCondition": "towards",
        "faceOnLeft": false,
        "impliedDirection": 180,
        "testDirection": 0,
        "avgFps": 120,
        "minFps": 108,
        "maxFps": 137,
        "totalFrames": 61,
        "frameRates": 120
      },
      {
        "trial_number": 22,
        "trial_index": 165,
        "rt": 589,
        "correct": true,
        "response": "ArrowRight",
        "congruent": true,
        "gazeTowards": false,
        "gazeCondition": "away",
        "faceOnLeft": true,
        "impliedDirection": 0,
        "testDirection": 0,
        "avgFps": 120,
        "minFps": 109,
        "maxFps": 135,
        "totalFrames": 71,
        "frameRates": 120
      },
      {
        "trial_number": 23,
        "trial_index": 173,
        "rt": 611,
        "correct": true,
        "response": "ArrowLeft",
        "congruent": true,
        "gazeTowards": true,
        "gazeCondition": "towards",
        "faceOnLeft": false,
        "impliedDirection": 180,
        "testDirection": 180,
        "avgFps": 120,
        "minFps": 109,
        "maxFps": 135,
        "totalFrames": 73,
        "frameRates": 120
      },
      {
        "trial_number": 24,
        "trial_index": 178,
        "rt": 593,
        "correct": true,
        "response": "ArrowRight",
        "congruent": true,
        "gazeTowards": true,
        "gazeCondition": "towards",
        "faceOnLeft": true,
        "impliedDirection": 0,
        "testDirection": 0,
        "avgFps": 120,
        "minFps": 109,
        "maxFps": 133,
        "totalFrames": 71,
        "frameRates": 120
      },
      {
        "trial_number": 25,
        "trial_index": 183,
        "rt": 596,
        "correct": true,
        "response": "ArrowLeft",
        "congruent": false,
        "gazeTowards": false,
        "gazeCondition": "away",
        "faceOnLeft": true,
        "impliedDirection": 0,
        "testDirection": 180,
        "avgFps": 120,
        "minFps": 108,
        "maxFps": 133,
        "totalFrames": 71,
        "frameRates": 120
      },
      {
        "trial_number": 26,
        "trial_index": 188,
        "rt": 556,
        "correct": true,
        "response": "ArrowRight",
        "congruent": true,
        "gazeTowards": true,
        "gazeCondition": "towards",
        "faceOnLeft": true,
        "impliedDirection": 0,
        "testDirection": 0,
        "avgFps": 118,
        "minFps": 62,
        "maxFps": 137,
        "totalFrames": 66,
        "frameRates": 118
      },
      {
        "trial_number": 27,
        "trial_index": 193,
        "rt": 580,
        "correct": true,
        "response": "ArrowLeft",
        "congruent": false,
        "gazeTowards": true,
        "gazeCondition": "towards",
        "faceOnLeft": true,
        "impliedDirection": 0,
        "testDirection": 180,
        "avgFps": 118,
        "minFps": 62,
        "maxFps": 137,
        "totalFrames": 69,
        "frameRates": 118
      },
      {
        "trial_number": 28,
        "trial_index": 198,
        "rt": 621,
        "correct": true,
        "response": "ArrowLeft",
        "congruent": false,
        "gazeTowards": true,
        "gazeCondition": "towards",
        "faceOnLeft": true,
        "impliedDirection": 0,
        "testDirection": 180,
        "avgFps": 118,
        "minFps": 60,
        "maxFps": 135,
        "totalFrames": 74,
        "frameRates": 118
      },
      {
        "trial_number": 29,
        "trial_index": 203,
        "rt": 705,
        "correct": true,
        "response": "ArrowLeft",
        "congruent": true,
        "gazeTowards": false,
        "gazeCondition": "away",
        "faceOnLeft": false,
        "impliedDirection": 180,
        "testDirection": 180,
        "avgFps": 119,
        "minFps": 60,
        "maxFps": 137,
        "totalFrames": 84,
        "frameRates": 119
      },
      {
        "trial_number": 30,
        "trial_index": 209,
        "rt": 1358,
        "correct": true,
        "response": "ArrowRight",
        "congruent": false,
        "gazeTowards": false,
        "gazeCondition": "away",
        "faceOnLeft": false,
        "impliedDirection": 180,
        "testDirection": 0,
        "avgFps": 120,
        "minFps": 106,
        "maxFps": 137,
        "totalFrames": 163,
        "frameRates": 120
      },
      {
        "trial_number": 31,
        "trial_index": 214,
        "rt": 927,
        "correct": true,
        "response": "ArrowRight",
        "congruent": true,
        "gazeTowards": true,
        "gazeCondition": "towards",
        "faceOnLeft": true,
        "impliedDirection": 0,
        "testDirection": 0,
        "avgFps": 120,
        "minFps": 103,
        "maxFps": 135,
        "totalFrames": 111,
        "frameRates": 120
      },
      {
        "trial_number": 32,
        "trial_index": 219,
        "rt": 584,
        "correct": true,
        "response": "ArrowLeft",
        "congruent": true,
        "gazeTowards": false,
        "gazeCondition": "away",
        "faceOnLeft": false,
        "impliedDirection": 180,
        "testDirection": 180,
        "avgFps": 118,
        "minFps": 59,
        "maxFps": 135,
        "totalFrames": 69,
        "frameRates": 118
      },
      {
        "trial_number": 33,
        "trial_index": 224,
        "rt": 706,
        "correct": true,
        "response": "ArrowRight",
        "congruent": true,
        "gazeTowards": true,
        "gazeCondition": "towards",
        "faceOnLeft": true,
        "impliedDirection": 0,
        "testDirection": 0,
        "avgFps": 120,
        "minFps": 108,
        "maxFps": 133,
        "totalFrames": 85,
        "frameRates": 120
      },
      {
        "trial_number": 34,
        "trial_index": 229,
        "rt": 793,
        "correct": true,
        "response": "ArrowRight",
        "congruent": false,
        "gazeTowards": true,
        "gazeCondition": "towards",
        "faceOnLeft": false,
        "impliedDirection": 180,
        "testDirection": 0,
        "avgFps": 119,
        "minFps": 63,
        "maxFps": 137,
        "totalFrames": 94,
        "frameRates": 119
      },
      {
        "trial_number": 35,
        "trial_index": 234,
        "rt": 601,
        "correct": true,
        "response": "ArrowLeft",
        "congruent": true,
        "gazeTowards": false,
        "gazeCondition": "away",
        "faceOnLeft": false,
        "impliedDirection": 180,
        "testDirection": 180,
        "avgFps": 120,
        "minFps": 106,
        "maxFps": 137,
        "totalFrames": 72,
        "frameRates": 120
      },
      {
        "trial_number": 36,
        "trial_index": 239,
        "rt": 608,
        "correct": true,
        "response": "ArrowLeft",
        "congruent": true,
        "gazeTowards": true,
        "gazeCondition": "towards",
        "faceOnLeft": false,
        "impliedDirection": 180,
        "testDirection": 180,
        "avgFps": 118,
        "minFps": 60,
        "maxFps": 133,
        "totalFrames": 72,
        "frameRates": 118
      },
      {
        "trial_number": 37,
        "trial_index": 244,
        "rt": 577,
        "correct": true,
        "response": "ArrowRight",
        "congruent": true,
        "gazeTowards": false,
        "gazeCondition": "away",
        "faceOnLeft": true,
        "impliedDirection": 0,
        "testDirection": 0,
        "avgFps": 118,
        "minFps": 60,
        "maxFps": 135,
        "totalFrames": 69,
        "frameRates": 118
      },
      {
        "trial_number": 38,
        "trial_index": 249,
        "rt": 612,
        "correct": true,
        "response": "ArrowRight",
        "congruent": false,
        "gazeTowards": true,
        "gazeCondition": "towards",
        "faceOnLeft": false,
        "impliedDirection": 180,
        "testDirection": 0,
        "avgFps": 118,
        "minFps": 60,
        "maxFps": 133,
        "totalFrames": 73,
        "frameRates": 118
      },
      {
        "trial_number": 39,
        "trial_index": 254,
        "rt": 646,
        "correct": true,
        "response": "ArrowRight",
        "congruent": true,
        "gazeTowards": false,
        "gazeCondition": "away",
        "faceOnLeft": true,
        "impliedDirection": 0,
        "testDirection": 0,
        "avgFps": 120,
        "minFps": 108,
        "maxFps": 137,
        "totalFrames": 77,
        "frameRates": 120
      },
      {
        "trial_number": 40,
        "trial_index": 259,
        "rt": 645,
        "correct": true,
        "response": "ArrowRight",
        "congruent": false,
        "gazeTowards": false,
        "gazeCondition": "away",
        "faceOnLeft": false,
        "impliedDirection": 180,
        "testDirection": 0,
        "avgFps": 120,
        "minFps": 106,
        "maxFps": 137,
        "totalFrames": 77,
        "frameRates": 120
      },
      {
        "trial_number": 41,
        "trial_index": 264,
        "rt": 494,
        "correct": true,
        "response": "ArrowRight",
        "congruent": true,
        "gazeTowards": true,
        "gazeCondition": "towards",
        "faceOnLeft": true,
        "impliedDirection": 0,
        "testDirection": 0,
        "avgFps": 120,
        "minFps": 106,
        "maxFps": 135,
        "totalFrames": 59,
        "frameRates": 120
      },
      {
        "trial_number": 42,
        "trial_index": 269,
        "rt": 567,
        "correct": true,
        "response": "ArrowRight",
        "congruent": false,
        "gazeTowards": false,
        "gazeCondition": "away",
        "faceOnLeft": false,
        "impliedDirection": 180,
        "testDirection": 0,
        "avgFps": 118,
        "minFps": 61,
        "maxFps": 135,
        "totalFrames": 68,
        "frameRates": 118
      },
      {
        "trial_number": 43,
        "trial_index": 274,
        "rt": 538,
        "correct": true,
        "response": "ArrowLeft",
        "congruent": false,
        "gazeTowards": true,
        "gazeCondition": "towards",
        "faceOnLeft": true,
        "impliedDirection": 0,
        "testDirection": 180,
        "avgFps": 120,
        "minFps": 108,
        "maxFps": 135,
        "totalFrames": 64,
        "frameRates": 120
      },
      {
        "trial_number": 44,
        "trial_index": 279,
        "rt": 574,
        "correct": true,
        "response": "ArrowRight",
        "congruent": true,
        "gazeTowards": true,
        "gazeCondition": "towards",
        "faceOnLeft": true,
        "impliedDirection": 0,
        "testDirection": 0,
        "avgFps": 120,
        "minFps": 106,
        "maxFps": 137,
        "totalFrames": 69,
        "frameRates": 120
      },
      {
        "trial_number": 45,
        "trial_index": 284,
        "rt": 659,
        "correct": true,
        "response": "ArrowRight",
        "congruent": false,
        "gazeTowards": false,
        "gazeCondition": "away",
        "faceOnLeft": false,
        "impliedDirection": 180,
        "testDirection": 0,
        "avgFps": 118,
        "minFps": 60,
        "maxFps": 135,
        "totalFrames": 78,
        "frameRates": 118
      },
      {
        "trial_number": 46,
        "trial_index": 289,
        "rt": 547,
        "correct": true,
        "response": "ArrowLeft",
        "congruent": true,
        "gazeTowards": false,
        "gazeCondition": "away",
        "faceOnLeft": false,
        "impliedDirection": 180,
        "testDirection": 180,
        "avgFps": 118,
        "minFps": 60,
        "maxFps": 137,
        "totalFrames": 65,
        "frameRates": 118
      },
      {
        "trial_number": 47,
        "trial_index": 294,
        "rt": 531,
        "correct": true,
        "response": "ArrowRight",
        "congruent": true,
        "gazeTowards": false,
        "gazeCondition": "away",
        "faceOnLeft": true,
        "impliedDirection": 0,
        "testDirection": 0,
        "avgFps": 118,
        "minFps": 60,
        "maxFps": 135,
        "totalFrames": 63,
        "frameRates": 118
      },
      {
        "trial_number": 48,
        "trial_index": 299,
        "rt": 483,
        "correct": true,
        "response": "ArrowLeft",
        "congruent": true,
        "gazeTowards": true,
        "gazeCondition": "towards",
        "faceOnLeft": false,
        "impliedDirection": 180,
        "testDirection": 180,
        "avgFps": 118,
        "minFps": 60,
        "maxFps": 135,
        "totalFrames": 57,
        "frameRates": 118
      },
      {
        "trial_number": 49,
        "trial_index": 304,
        "rt": 518,
        "correct": true,
        "response": "ArrowLeft",
        "congruent": true,
        "gazeTowards": false,
        "gazeCondition": "away",
        "faceOnLeft": false,
        "impliedDirection": 180,
        "testDirection": 180,
        "avgFps": 120,
        "minFps": 109,
        "maxFps": 133,
        "totalFrames": 62,
        "frameRates": 120
      },
      {
        "trial_number": 50,
        "trial_index": 309,
        "rt": 539,
        "correct": true,
        "response": "ArrowLeft",
        "congruent": true,
        "gazeTowards": false,
        "gazeCondition": "away",
        "faceOnLeft": false,
        "impliedDirection": 180,
        "testDirection": 180,
        "avgFps": 118,
        "minFps": 63,
        "maxFps": 132,
        "totalFrames": 64,
        "frameRates": 118
      },
      {
        "trial_number": 51,
        "trial_index": 314,
        "rt": 527,
        "correct": true,
        "response": "ArrowLeft",
        "congruent": true,
        "gazeTowards": false,
        "gazeCondition": "away",
        "faceOnLeft": false,
        "impliedDirection": 180,
        "testDirection": 180,
        "avgFps": 118,
        "minFps": 60,
        "maxFps": 135,
        "totalFrames": 63,
        "frameRates": 118
      },
      {
        "trial_number": 52,
        "trial_index": 319,
        "rt": 717,
        "correct": true,
        "response": "ArrowRight",
        "congruent": true,
        "gazeTowards": false,
        "gazeCondition": "away",
        "faceOnLeft": true,
        "impliedDirection": 0,
        "testDirection": 0,
        "avgFps": 119,
        "minFps": 63,
        "maxFps": 135,
        "totalFrames": 85,
        "frameRates": 119
      },
      {
        "trial_number": 53,
        "trial_index": 327,
        "rt": 547,
        "correct": true,
        "response": "ArrowLeft",
        "congruent": false,
        "gazeTowards": false,
        "gazeCondition": "away",
        "faceOnLeft": true,
        "impliedDirection": 0,
        "testDirection": 180,
        "avgFps": 118,
        "minFps": 61,
        "maxFps": 133,
        "totalFrames": 65,
        "frameRates": 118
      },
      {
        "trial_number": 54,
        "trial_index": 332,
        "rt": 498,
        "correct": true,
        "response": "ArrowLeft",
        "congruent": false,
        "gazeTowards": true,
        "gazeCondition": "towards",
        "faceOnLeft": true,
        "impliedDirection": 0,
        "testDirection": 180,
        "avgFps": 120,
        "minFps": 106,
        "maxFps": 135,
        "totalFrames": 60,
        "frameRates": 120
      },
      {
        "trial_number": 55,
        "trial_index": 337,
        "rt": 567,
        "correct": true,
        "response": "ArrowLeft",
        "congruent": true,
        "gazeTowards": true,
        "gazeCondition": "towards",
        "faceOnLeft": false,
        "impliedDirection": 180,
        "testDirection": 180,
        "avgFps": 120,
        "minFps": 109,
        "maxFps": 132,
        "totalFrames": 68,
        "frameRates": 120
      },
      {
        "trial_number": 56,
        "trial_index": 342,
        "rt": 539,
        "correct": true,
        "response": "ArrowLeft",
        "congruent": false,
        "gazeTowards": true,
        "gazeCondition": "towards",
        "faceOnLeft": true,
        "impliedDirection": 0,
        "testDirection": 180,
        "avgFps": 118,
        "minFps": 63,
        "maxFps": 137,
        "totalFrames": 64,
        "frameRates": 118
      },
      {
        "trial_number": 57,
        "trial_index": 350,
        "rt": 573,
        "correct": true,
        "response": "ArrowLeft",
        "congruent": true,
        "gazeTowards": false,
        "gazeCondition": "away",
        "faceOnLeft": false,
        "impliedDirection": 180,
        "testDirection": 180,
        "avgFps": 118,
        "minFps": 62,
        "maxFps": 135,
        "totalFrames": 68,
        "frameRates": 118
      },
      {
        "trial_number": 58,
        "trial_index": 355,
        "rt": 681,
        "correct": true,
        "response": "ArrowRight",
        "congruent": true,
        "gazeTowards": true,
        "gazeCondition": "towards",
        "faceOnLeft": true,
        "impliedDirection": 0,
        "testDirection": 0,
        "avgFps": 119,
        "minFps": 60,
        "maxFps": 137,
        "totalFrames": 81,
        "frameRates": 119
      },
      {
        "trial_number": 59,
        "trial_index": 360,
        "rt": 540,
        "correct": true,
        "response": "ArrowLeft",
        "congruent": false,
        "gazeTowards": true,
        "gazeCondition": "towards",
        "faceOnLeft": true,
        "impliedDirection": 0,
        "testDirection": 180,
        "avgFps": 120,
        "minFps": 114,
        "maxFps": 127,
        "totalFrames": 65,
        "frameRates": 120
      },
      {
        "trial_number": 60,
        "trial_index": 365,
        "rt": 612,
        "correct": true,
        "response": "ArrowRight",
        "congruent": true,
        "gazeTowards": false,
        "gazeCondition": "away",
        "faceOnLeft": true,
        "impliedDirection": 0,
        "testDirection": 0,
        "avgFps": 120,
        "minFps": 109,
        "maxFps": 133,
        "totalFrames": 73,
        "frameRates": 120
      },
      {
        "trial_number": 61,
        "trial_index": 371,
        "rt": null,
        "correct": false,
        "response": null,
        "congruent": false,
        "gazeTowards": true,
        "gazeCondition": "towards",
        "faceOnLeft": false,
        "impliedDirection": 180,
        "testDirection": 0,
        "avgFps": 120,
        "minFps": 106,
        "maxFps": 137,
        "totalFrames": 240,
        "frameRates": 120
      },
      {
        "trial_number": 62,
        "trial_index": 376,
        "rt": 1454,
        "correct": true,
        "response": "ArrowLeft",
        "congruent": false,
        "gazeTowards": true,
        "gazeCondition": "towards",
        "faceOnLeft": true,
        "impliedDirection": 0,
        "testDirection": 180,
        "avgFps": 120,
        "minFps": 106,
        "maxFps": 137,
        "totalFrames": 174,
        "frameRates": 120
      },
      {
        "trial_number": 63,
        "trial_index": 384,
        "rt": 1024,
        "correct": true,
        "response": "ArrowRight",
        "congruent": true,
        "gazeTowards": true,
        "gazeCondition": "towards",
        "faceOnLeft": true,
        "impliedDirection": 0,
        "testDirection": 0,
        "avgFps": 119,
        "minFps": 60,
        "maxFps": 135,
        "totalFrames": 122,
        "frameRates": 119
      },
      {
        "trial_number": 64,
        "trial_index": 389,
        "rt": 948,
        "correct": true,
        "response": "ArrowRight",
        "congruent": false,
        "gazeTowards": true,
        "gazeCondition": "towards",
        "faceOnLeft": false,
        "impliedDirection": 180,
        "testDirection": 0,
        "avgFps": 119,
        "minFps": 62,
        "maxFps": 137,
        "totalFrames": 113,
        "frameRates": 119
      },
      {
        "trial_number": 65,
        "trial_index": 394,
        "rt": 735,
        "correct": true,
        "response": "ArrowRight",
        "congruent": false,
        "gazeTowards": false,
        "gazeCondition": "away",
        "faceOnLeft": false,
        "impliedDirection": 180,
        "testDirection": 0,
        "avgFps": 120,
        "minFps": 106,
        "maxFps": 137,
        "totalFrames": 87,
        "frameRates": 120
      },
      {
        "trial_number": 66,
        "trial_index": 399,
        "rt": 1791,
        "correct": true,
        "response": "ArrowLeft",
        "congruent": false,
        "gazeTowards": false,
        "gazeCondition": "away",
        "faceOnLeft": true,
        "impliedDirection": 0,
        "testDirection": 180,
        "avgFps": 119,
        "minFps": 59,
        "maxFps": 135,
        "totalFrames": 214,
        "frameRates": 119
      },
      {
        "trial_number": 67,
        "trial_index": 404,
        "rt": 1090,
        "correct": true,
        "response": "ArrowRight",
        "congruent": false,
        "gazeTowards": true,
        "gazeCondition": "towards",
        "faceOnLeft": false,
        "impliedDirection": 180,
        "testDirection": 0,
        "avgFps": 120,
        "minFps": 106,
        "maxFps": 137,
        "totalFrames": 131,
        "frameRates": 120
      },
      {
        "trial_number": 68,
        "trial_index": 409,
        "rt": 1168,
        "correct": true,
        "response": "ArrowRight",
        "congruent": false,
        "gazeTowards": true,
        "gazeCondition": "towards",
        "faceOnLeft": false,
        "impliedDirection": 180,
        "testDirection": 0,
        "avgFps": 120,
        "minFps": 108,
        "maxFps": 133,
        "totalFrames": 140,
        "frameRates": 120
      },
      {
        "trial_number": 69,
        "trial_index": 414,
        "rt": 742,
        "correct": true,
        "response": "ArrowLeft",
        "congruent": true,
        "gazeTowards": false,
        "gazeCondition": "away",
        "faceOnLeft": false,
        "impliedDirection": 180,
        "testDirection": 180,
        "avgFps": 120,
        "minFps": 108,
        "maxFps": 135,
        "totalFrames": 89,
        "frameRates": 120
      },
      {
        "trial_number": 70,
        "trial_index": 419,
        "rt": 849,
        "correct": true,
        "response": "ArrowLeft",
        "congruent": false,
        "gazeTowards": false,
        "gazeCondition": "away",
        "faceOnLeft": true,
        "impliedDirection": 0,
        "testDirection": 180,
        "avgFps": 119,
        "minFps": 60,
        "maxFps": 135,
        "totalFrames": 101,
        "frameRates": 119
      },
      {
        "trial_number": 71,
        "trial_index": 427,
        "rt": 744,
        "correct": true,
        "response": "ArrowLeft",
        "congruent": false,
        "gazeTowards": true,
        "gazeCondition": "towards",
        "faceOnLeft": true,
        "impliedDirection": 0,
        "testDirection": 180,
        "avgFps": 120,
        "minFps": 108,
        "maxFps": 133,
        "totalFrames": 89,
        "frameRates": 120
      },
      {
        "trial_number": 72,
        "trial_index": 432,
        "rt": 1094,
        "correct": true,
        "response": "ArrowRight",
        "congruent": true,
        "gazeTowards": true,
        "gazeCondition": "towards",
        "faceOnLeft": true,
        "impliedDirection": 0,
        "testDirection": 0,
        "avgFps": 120,
        "minFps": 108,
        "maxFps": 135,
        "totalFrames": 131,
        "frameRates": 120
      },
      {
        "trial_number": 73,
        "trial_index": 437,
        "rt": 623,
        "correct": true,
        "response": "ArrowRight",
        "congruent": true,
        "gazeTowards": true,
        "gazeCondition": "towards",
        "faceOnLeft": true,
        "impliedDirection": 0,
        "testDirection": 0,
        "avgFps": 117,
        "minFps": 60,
        "maxFps": 137,
        "totalFrames": 73,
        "frameRates": 117
      },
      {
        "trial_number": 74,
        "trial_index": 442,
        "rt": 657,
        "correct": true,
        "response": "ArrowRight",
        "congruent": false,
        "gazeTowards": false,
        "gazeCondition": "away",
        "faceOnLeft": false,
        "impliedDirection": 180,
        "testDirection": 0,
        "avgFps": 118,
        "minFps": 61,
        "maxFps": 133,
        "totalFrames": 78,
        "frameRates": 118
      },
      {
        "trial_number": 75,
        "trial_index": 447,
        "rt": 663,
        "correct": true,
        "response": "ArrowRight",
        "congruent": true,
        "gazeTowards": false,
        "gazeCondition": "away",
        "faceOnLeft": true,
        "impliedDirection": 0,
        "testDirection": 0,
        "avgFps": 118,
        "minFps": 63,
        "maxFps": 137,
        "totalFrames": 79,
        "frameRates": 118
      },
      {
        "trial_number": 76,
        "trial_index": 452,
        "rt": 695,
        "correct": true,
        "response": "ArrowRight",
        "congruent": true,
        "gazeTowards": true,
        "gazeCondition": "towards",
        "faceOnLeft": true,
        "impliedDirection": 0,
        "testDirection": 0,
        "avgFps": 119,
        "minFps": 60,
        "maxFps": 133,
        "totalFrames": 83,
        "frameRates": 119
      },
      {
        "trial_number": 77,
        "trial_index": 457,
        "rt": 638,
        "correct": true,
        "response": "ArrowRight",
        "congruent": false,
        "gazeTowards": false,
        "gazeCondition": "away",
        "faceOnLeft": false,
        "impliedDirection": 180,
        "testDirection": 0,
        "avgFps": 120,
        "minFps": 108,
        "maxFps": 135,
        "totalFrames": 76,
        "frameRates": 120
      },
      {
        "trial_number": 78,
        "trial_index": 462,
        "rt": 593,
        "correct": true,
        "response": "ArrowLeft",
        "congruent": true,
        "gazeTowards": false,
        "gazeCondition": "away",
        "faceOnLeft": false,
        "impliedDirection": 180,
        "testDirection": 180,
        "avgFps": 120,
        "minFps": 108,
        "maxFps": 135,
        "totalFrames": 71,
        "frameRates": 120
      },
      {
        "trial_number": 79,
        "trial_index": 467,
        "rt": 874,
        "correct": true,
        "response": "ArrowLeft",
        "congruent": true,
        "gazeTowards": true,
        "gazeCondition": "towards",
        "faceOnLeft": false,
        "impliedDirection": 180,
        "testDirection": 180,
        "avgFps": 119,
        "minFps": 62,
        "maxFps": 133,
        "totalFrames": 104,
        "frameRates": 119
      },
      {
        "trial_number": 80,
        "trial_index": 472,
        "rt": 769,
        "correct": true,
        "response": "ArrowLeft",
        "congruent": true,
        "gazeTowards": true,
        "gazeCondition": "towards",
        "faceOnLeft": false,
        "impliedDirection": 180,
        "testDirection": 180,
        "avgFps": 120,
        "minFps": 108,
        "maxFps": 135,
        "totalFrames": 92,
        "frameRates": 120
      },
      {
        "trial_number": 81,
        "trial_index": 480,
        "rt": 709,
        "correct": true,
        "response": "ArrowLeft",
        "congruent": true,
        "gazeTowards": true,
        "gazeCondition": "towards",
        "faceOnLeft": false,
        "impliedDirection": 180,
        "testDirection": 180,
        "avgFps": 119,
        "minFps": 60,
        "maxFps": 133,
        "totalFrames": 84,
        "frameRates": 119
      },
      {
        "trial_number": 82,
        "trial_index": 488,
        "rt": 640,
        "correct": true,
        "response": "ArrowRight",
        "congruent": false,
        "gazeTowards": false,
        "gazeCondition": "away",
        "faceOnLeft": false,
        "impliedDirection": 180,
        "testDirection": 0,
        "avgFps": 120,
        "minFps": 108,
        "maxFps": 133,
        "totalFrames": 75,
        "frameRates": 120
      },
      {
        "trial_number": 83,
        "trial_index": 493,
        "rt": 610,
        "correct": true,
        "response": "ArrowLeft",
        "congruent": false,
        "gazeTowards": true,
        "gazeCondition": "towards",
        "faceOnLeft": true,
        "impliedDirection": 0,
        "testDirection": 180,
        "avgFps": 118,
        "minFps": 60,
        "maxFps": 135,
        "totalFrames": 72,
        "frameRates": 118
      },
      {
        "trial_number": 84,
        "trial_index": 498,
        "rt": 859,
        "correct": true,
        "response": "ArrowRight",
        "congruent": false,
        "gazeTowards": true,
        "gazeCondition": "towards",
        "faceOnLeft": false,
        "impliedDirection": 180,
        "testDirection": 0,
        "avgFps": 120,
        "minFps": 108,
        "maxFps": 135,
        "totalFrames": 103,
        "frameRates": 120
      },
      {
        "trial_number": 85,
        "trial_index": 503,
        "rt": 538,
        "correct": true,
        "response": "ArrowLeft",
        "congruent": false,
        "gazeTowards": true,
        "gazeCondition": "towards",
        "faceOnLeft": true,
        "impliedDirection": 0,
        "testDirection": 180,
        "avgFps": 118,
        "minFps": 60,
        "maxFps": 135,
        "totalFrames": 64,
        "frameRates": 118
      },
      {
        "trial_number": 86,
        "trial_index": 508,
        "rt": 652,
        "correct": true,
        "response": "ArrowRight",
        "congruent": true,
        "gazeTowards": true,
        "gazeCondition": "towards",
        "faceOnLeft": true,
        "impliedDirection": 0,
        "testDirection": 0,
        "avgFps": 118,
        "minFps": 60,
        "maxFps": 135,
        "totalFrames": 78,
        "frameRates": 118
      },
      {
        "trial_number": 87,
        "trial_index": 513,
        "rt": 757,
        "correct": true,
        "response": "ArrowLeft",
        "congruent": false,
        "gazeTowards": false,
        "gazeCondition": "away",
        "faceOnLeft": true,
        "impliedDirection": 0,
        "testDirection": 180,
        "avgFps": 120,
        "minFps": 98,
        "maxFps": 139,
        "totalFrames": 90,
        "frameRates": 120
      },
      {
        "trial_number": 88,
        "trial_index": 521,
        "rt": 1184,
        "correct": true,
        "response": "ArrowLeft",
        "congruent": false,
        "gazeTowards": true,
        "gazeCondition": "towards",
        "faceOnLeft": true,
        "impliedDirection": 0,
        "testDirection": 180,
        "avgFps": 120,
        "minFps": 106,
        "maxFps": 137,
        "totalFrames": 142,
        "frameRates": 120
      },
      {
        "trial_number": 89,
        "trial_index": 527,
        "rt": 1043,
        "correct": true,
        "response": "ArrowRight",
        "congruent": true,
        "gazeTowards": true,
        "gazeCondition": "towards",
        "faceOnLeft": true,
        "impliedDirection": 0,
        "testDirection": 0,
        "avgFps": 120,
        "minFps": 106,
        "maxFps": 135,
        "totalFrames": 125,
        "frameRates": 120
      },
      {
        "trial_number": 90,
        "trial_index": 532,
        "rt": 917,
        "correct": true,
        "response": "ArrowRight",
        "congruent": false,
        "gazeTowards": false,
        "gazeCondition": "away",
        "faceOnLeft": false,
        "impliedDirection": 180,
        "testDirection": 0,
        "avgFps": 119,
        "minFps": 59,
        "maxFps": 137,
        "totalFrames": 109,
        "frameRates": 119
      },
      {
        "trial_number": 91,
        "trial_index": 537,
        "rt": 732,
        "correct": true,
        "response": "ArrowRight",
        "congruent": true,
        "gazeTowards": false,
        "gazeCondition": "away",
        "faceOnLeft": true,
        "impliedDirection": 0,
        "testDirection": 0,
        "avgFps": 120,
        "minFps": 106,
        "maxFps": 135,
        "totalFrames": 88,
        "frameRates": 120
      },
      {
        "trial_number": 92,
        "trial_index": 542,
        "rt": 838,
        "correct": true,
        "response": "ArrowRight",
        "congruent": false,
        "gazeTowards": true,
        "gazeCondition": "towards",
        "faceOnLeft": false,
        "impliedDirection": 180,
        "testDirection": 0,
        "avgFps": 120,
        "minFps": 108,
        "maxFps": 135,
        "totalFrames": 100,
        "frameRates": 120
      },
      {
        "trial_number": 93,
        "trial_index": 547,
        "rt": 1623,
        "correct": false,
        "response": "ArrowRight",
        "congruent": false,
        "gazeTowards": true,
        "gazeCondition": "towards",
        "faceOnLeft": true,
        "impliedDirection": 0,
        "testDirection": 180,
        "avgFps": 119,
        "minFps": 59,
        "maxFps": 135,
        "totalFrames": 194,
        "frameRates": 119
      },
      {
        "trial_number": 94,
        "trial_index": 552,
        "rt": 1523,
        "correct": true,
        "response": "ArrowLeft",
        "congruent": true,
        "gazeTowards": true,
        "gazeCondition": "towards",
        "faceOnLeft": false,
        "impliedDirection": 180,
        "testDirection": 180,
        "avgFps": 119,
        "minFps": 62,
        "maxFps": 135,
        "totalFrames": 182,
        "frameRates": 119
      },
      {
        "trial_number": 95,
        "trial_index": 557,
        "rt": 901,
        "correct": true,
        "response": "ArrowLeft",
        "congruent": false,
        "gazeTowards": true,
        "gazeCondition": "towards",
        "faceOnLeft": true,
        "impliedDirection": 0,
        "testDirection": 180,
        "avgFps": 119,
        "minFps": 60,
        "maxFps": 135,
        "totalFrames": 107,
        "frameRates": 119
      },
      {
        "trial_number": 96,
        "trial_index": 562,
        "rt": 763,
        "correct": true,
        "response": "ArrowRight",
        "congruent": true,
        "gazeTowards": false,
        "gazeCondition": "away",
        "faceOnLeft": true,
        "impliedDirection": 0,
        "testDirection": 0,
        "avgFps": 120,
        "minFps": 108,
        "maxFps": 137,
        "totalFrames": 91,
        "frameRates": 120
      },
      {
        "trial_number": 97,
        "trial_index": 567,
        "rt": 1486,
        "correct": false,
        "response": "ArrowRight",
        "congruent": false,
        "gazeTowards": true,
        "gazeCondition": "towards",
        "faceOnLeft": true,
        "impliedDirection": 0,
        "testDirection": 180,
        "avgFps": 119,
        "minFps": 60,
        "maxFps": 135,
        "totalFrames": 178,
        "frameRates": 119
      },
      {
        "trial_number": 98,
        "trial_index": 572,
        "rt": 1265,
        "correct": true,
        "response": "ArrowLeft",
        "congruent": false,
        "gazeTowards": false,
        "gazeCondition": "away",
        "faceOnLeft": true,
        "impliedDirection": 0,
        "testDirection": 180,
        "avgFps": 119,
        "minFps": 60,
        "maxFps": 135,
        "totalFrames": 151,
        "frameRates": 119
      },
      {
        "trial_number": 99,
        "trial_index": 577,
        "rt": 843,
        "correct": true,
        "response": "ArrowRight",
        "congruent": true,
        "gazeTowards": false,
        "gazeCondition": "away",
        "faceOnLeft": true,
        "impliedDirection": 0,
        "testDirection": 0,
        "avgFps": 120,
        "minFps": 106,
        "maxFps": 133,
        "totalFrames": 101,
        "frameRates": 120
      },
      {
        "trial_number": 100,
        "trial_index": 582,
        "rt": 867,
        "correct": true,
        "response": "ArrowLeft",
        "congruent": true,
        "gazeTowards": true,
        "gazeCondition": "towards",
        "faceOnLeft": false,
        "impliedDirection": 180,
        "testDirection": 180,
        "avgFps": 120,
        "minFps": 105,
        "maxFps": 135,
        "totalFrames": 104,
        "frameRates": 120
      },
      {
        "trial_number": 101,
        "trial_index": 587,
        "rt": 844,
        "correct": true,
        "response": "ArrowLeft",
        "congruent": false,
        "gazeTowards": false,
        "gazeCondition": "away",
        "faceOnLeft": true,
        "impliedDirection": 0,
        "testDirection": 180,
        "avgFps": 119,
        "minFps": 60,
        "maxFps": 135,
        "totalFrames": 101,
        "frameRates": 119
      },
      {
        "trial_number": 102,
        "trial_index": 592,
        "rt": 898,
        "correct": true,
        "response": "ArrowLeft",
        "congruent": false,
        "gazeTowards": true,
        "gazeCondition": "towards",
        "faceOnLeft": true,
        "impliedDirection": 0,
        "testDirection": 180,
        "avgFps": 119,
        "minFps": 62,
        "maxFps": 135,
        "totalFrames": 107,
        "frameRates": 119
      },
      {
        "trial_number": 103,
        "trial_index": 597,
        "rt": 1500,
        "correct": false,
        "response": "ArrowRight",
        "congruent": false,
        "gazeTowards": false,
        "gazeCondition": "away",
        "faceOnLeft": true,
        "impliedDirection": 0,
        "testDirection": 180,
        "avgFps": 119,
        "minFps": 60,
        "maxFps": 135,
        "totalFrames": 179,
        "frameRates": 119
      },
      {
        "trial_number": 104,
        "trial_index": 602,
        "rt": 619,
        "correct": true,
        "response": "ArrowLeft",
        "congruent": false,
        "gazeTowards": true,
        "gazeCondition": "towards",
        "faceOnLeft": true,
        "impliedDirection": 0,
        "testDirection": 180,
        "avgFps": 120,
        "minFps": 108,
        "maxFps": 133,
        "totalFrames": 74,
        "frameRates": 120
      },
      {
        "trial_number": 105,
        "trial_index": 610,
        "rt": 707,
        "correct": true,
        "response": "ArrowRight",
        "congruent": true,
        "gazeTowards": false,
        "gazeCondition": "away",
        "faceOnLeft": true,
        "impliedDirection": 0,
        "testDirection": 0,
        "avgFps": 120,
        "minFps": 110,
        "maxFps": 130,
        "totalFrames": 85,
        "frameRates": 120
      },
      {
        "trial_number": 106,
        "trial_index": 615,
        "rt": 866,
        "correct": true,
        "response": "ArrowRight",
        "congruent": false,
        "gazeTowards": false,
        "gazeCondition": "away",
        "faceOnLeft": false,
        "impliedDirection": 180,
        "testDirection": 0,
        "avgFps": 119,
        "minFps": 58,
        "maxFps": 135,
        "totalFrames": 103,
        "frameRates": 119
      },
      {
        "trial_number": 107,
        "trial_index": 623,
        "rt": 555,
        "correct": true,
        "response": "ArrowLeft",
        "congruent": true,
        "gazeTowards": false,
        "gazeCondition": "away",
        "faceOnLeft": false,
        "impliedDirection": 180,
        "testDirection": 180,
        "avgFps": 120,
        "minFps": 110,
        "maxFps": 133,
        "totalFrames": 66,
        "frameRates": 120
      },
      {
        "trial_number": 108,
        "trial_index": 628,
        "rt": 1166,
        "correct": true,
        "response": "ArrowRight",
        "congruent": false,
        "gazeTowards": false,
        "gazeCondition": "away",
        "faceOnLeft": false,
        "impliedDirection": 180,
        "testDirection": 0,
        "avgFps": 119,
        "minFps": 59,
        "maxFps": 133,
        "totalFrames": 139,
        "frameRates": 119
      },
      {
        "trial_number": 109,
        "trial_index": 633,
        "rt": 755,
        "correct": true,
        "response": "ArrowRight",
        "congruent": false,
        "gazeTowards": false,
        "gazeCondition": "away",
        "faceOnLeft": false,
        "impliedDirection": 180,
        "testDirection": 0,
        "avgFps": 120,
        "minFps": 108,
        "maxFps": 135,
        "totalFrames": 90,
        "frameRates": 120
      },
      {
        "trial_number": 110,
        "trial_index": 638,
        "rt": 670,
        "correct": true,
        "response": "ArrowRight",
        "congruent": false,
        "gazeTowards": true,
        "gazeCondition": "towards",
        "faceOnLeft": false,
        "impliedDirection": 180,
        "testDirection": 0,
        "avgFps": 120,
        "minFps": 110,
        "maxFps": 132,
        "totalFrames": 80,
        "frameRates": 120
      },
      {
        "trial_number": 111,
        "trial_index": 643,
        "rt": 798,
        "correct": true,
        "response": "ArrowRight",
        "congruent": false,
        "gazeTowards": false,
        "gazeCondition": "away",
        "faceOnLeft": false,
        "impliedDirection": 180,
        "testDirection": 0,
        "avgFps": 120,
        "minFps": 106,
        "maxFps": 135,
        "totalFrames": 95,
        "frameRates": 120
      },
      {
        "trial_number": 112,
        "trial_index": 648,
        "rt": 624,
        "correct": true,
        "response": "ArrowLeft",
        "congruent": true,
        "gazeTowards": false,
        "gazeCondition": "away",
        "faceOnLeft": false,
        "impliedDirection": 180,
        "testDirection": 180,
        "avgFps": 120,
        "minFps": 106,
        "maxFps": 133,
        "totalFrames": 75,
        "frameRates": 120
      },
      {
        "trial_number": 113,
        "trial_index": 653,
        "rt": 1668,
        "correct": false,
        "response": "ArrowRight",
        "congruent": false,
        "gazeTowards": false,
        "gazeCondition": "away",
        "faceOnLeft": true,
        "impliedDirection": 0,
        "testDirection": 180,
        "avgFps": 120,
        "minFps": 106,
        "maxFps": 135,
        "totalFrames": 200,
        "frameRates": 120
      },
      {
        "trial_number": 114,
        "trial_index": 658,
        "rt": 933,
        "correct": true,
        "response": "ArrowLeft",
        "congruent": false,
        "gazeTowards": false,
        "gazeCondition": "away",
        "faceOnLeft": true,
        "impliedDirection": 0,
        "testDirection": 180,
        "avgFps": 120,
        "minFps": 106,
        "maxFps": 135,
        "totalFrames": 112,
        "frameRates": 120
      },
      {
        "trial_number": 115,
        "trial_index": 663,
        "rt": 1751,
        "correct": true,
        "response": "ArrowLeft",
        "congruent": true,
        "gazeTowards": true,
        "gazeCondition": "towards",
        "faceOnLeft": false,
        "impliedDirection": 180,
        "testDirection": 180,
        "avgFps": 119,
        "minFps": 63,
        "maxFps": 135,
        "totalFrames": 209,
        "frameRates": 119
      },
      {
        "trial_number": 116,
        "trial_index": 668,
        "rt": 1368,
        "correct": false,
        "response": "ArrowRight",
        "congruent": false,
        "gazeTowards": false,
        "gazeCondition": "away",
        "faceOnLeft": true,
        "impliedDirection": 0,
        "testDirection": 180,
        "avgFps": 120,
        "minFps": 106,
        "maxFps": 135,
        "totalFrames": 164,
        "frameRates": 120
      },
      {
        "trial_number": 117,
        "trial_index": 673,
        "rt": 1295,
        "correct": true,
        "response": "ArrowRight",
        "congruent": true,
        "gazeTowards": true,
        "gazeCondition": "towards",
        "faceOnLeft": true,
        "impliedDirection": 0,
        "testDirection": 0,
        "avgFps": 120,
        "minFps": 109,
        "maxFps": 133,
        "totalFrames": 155,
        "frameRates": 120
      },
      {
        "trial_number": 118,
        "trial_index": 678,
        "rt": 980,
        "correct": true,
        "response": "ArrowLeft",
        "congruent": true,
        "gazeTowards": false,
        "gazeCondition": "away",
        "faceOnLeft": false,
        "impliedDirection": 180,
        "testDirection": 180,
        "avgFps": 120,
        "minFps": 106,
        "maxFps": 135,
        "totalFrames": 117,
        "frameRates": 120
      },
      {
        "trial_number": 119,
        "trial_index": 683,
        "rt": 919,
        "correct": true,
        "response": "ArrowRight",
        "congruent": false,
        "gazeTowards": true,
        "gazeCondition": "towards",
        "faceOnLeft": false,
        "impliedDirection": 180,
        "testDirection": 0,
        "avgFps": 119,
        "minFps": 60,
        "maxFps": 133,
        "totalFrames": 109,
        "frameRates": 119
      }
    ],
    "catch": {
      "total": 12,
      "correct": 12,
      "accuracy": 100,
      "meanRT": 671,
      "trials": [
        {
          "trial_number": 0,
          "trial_index": 103,
          "rt": 541,
          "correct": true,
          "colorTarget": "tree",
          "gazeTowards": false,
          "gazeCondition": "away",
          "faceOnLeft": false
        },
        {
          "trial_number": 1,
          "trial_index": 136,
          "rt": 551,
          "correct": true,
          "colorTarget": "face",
          "gazeTowards": true,
          "gazeCondition": "towards",
          "faceOnLeft": true
        },
        {
          "trial_number": 2,
          "trial_index": 169,
          "rt": 606,
          "correct": true,
          "colorTarget": "face",
          "gazeTowards": false,
          "gazeCondition": "away",
          "faceOnLeft": true
        },
        {
          "trial_number": 3,
          "trial_index": 323,
          "rt": 919,
          "correct": true,
          "colorTarget": "tree",
          "gazeTowards": false,
          "gazeCondition": "away",
          "faceOnLeft": true
        },
        {
          "trial_number": 4,
          "trial_index": 346,
          "rt": 559,
          "correct": true,
          "colorTarget": "tree",
          "gazeTowards": true,
          "gazeCondition": "towards",
          "faceOnLeft": false
        },
        {
          "trial_number": 5,
          "trial_index": 380,
          "rt": 844,
          "correct": true,
          "colorTarget": "face",
          "gazeTowards": true,
          "gazeCondition": "towards",
          "faceOnLeft": false
        },
        {
          "trial_number": 6,
          "trial_index": 423,
          "rt": 893,
          "correct": true,
          "colorTarget": "tree",
          "gazeTowards": false,
          "gazeCondition": "away",
          "faceOnLeft": false
        },
        {
          "trial_number": 7,
          "trial_index": 476,
          "rt": 481,
          "correct": true,
          "colorTarget": "tree",
          "gazeTowards": true,
          "gazeCondition": "towards",
          "faceOnLeft": false
        },
        {
          "trial_number": 8,
          "trial_index": 484,
          "rt": 546,
          "correct": true,
          "colorTarget": "face",
          "gazeTowards": true,
          "gazeCondition": "towards",
          "faceOnLeft": false
        },
        {
          "trial_number": 9,
          "trial_index": 517,
          "rt": 685,
          "correct": true,
          "colorTarget": "tree",
          "gazeTowards": true,
          "gazeCondition": "towards",
          "faceOnLeft": false
        },
        {
          "trial_number": 10,
          "trial_index": 606,
          "rt": 836,
          "correct": true,
          "colorTarget": "face",
          "gazeTowards": false,
          "gazeCondition": "away",
          "faceOnLeft": false
        },
        {
          "trial_number": 11,
          "trial_index": 619,
          "rt": 591,
          "correct": true,
          "colorTarget": "face",
          "gazeTowards": false,
          "gazeCondition": "away",
          "faceOnLeft": false
        }
      ]
    },
    "practice": {
      "trials": [
        {
          "trial_number": 0,
          "rt": null,
          "correct": false,
          "direction": 180
        },
        {
          "trial_number": 1,
          "rt": 833,
          "correct": true,
          "direction": 180
        },
        {
          "trial_number": 2,
          "rt": 887,
          "correct": true,
          "direction": 0
        },
        {
          "trial_number": 3,
          "rt": 1163,
          "correct": false,
          "direction": 180
        },
        {
          "trial_number": 4,
          "rt": 1372,
          "correct": true,
          "direction": 180
        },
        {
          "trial_number": 5,
          "rt": 1720,
          "correct": true,
          "direction": 180
        },
        {
          "trial_number": 6,
          "rt": 1117,
          "correct": true,
          "direction": 180
        },
        {
          "trial_number": 7,
          "rt": 712,
          "correct": true,
          "direction": 0
        },
        {
          "trial_number": 8,
          "rt": 1052,
          "correct": true,
          "direction": 0
        },
        {
          "trial_number": 9,
          "rt": 778,
          "correct": true,
          "direction": 0
        }
      ],
      "meanRT": 1070,
      "accuracy": 80
    }
  }
}