{
  "experiment": "rdk-face-1",
  "UUID": "5fe2fb53-3651-4205-8986-8d56d9905b06",
  "data": {
    "session": {
      "experiment_version": "1.8.6",
      "treatment": "faces_towards_away_catch",
      "file_version": "1.8.6",
      "totalTrials": 120,
      "totalTrialsIncludingCatch": 132,
      "conditions": {
        "gazeTowardsCount": 60,
        "gazeAwayCount": 60,
        "gazeTowardsAccuracy": 78,
        "gazeAwayAccuracy": 75
      },
      "session_group": "default",
      "browserData": {
        "os": "Windows",
        "browser": "Edge",
        "screenResolution": "1275x797",
        "browserViewport": "1275x797",
        "devicePixelRatio": 2.259999990463257,
        "colorDepth": 32,
        "hardwareConcurrency": 12,
        "deviceMemory": 8,
        "gpuRenderer": "ANGLE (Intel, Intel(R) Iris(R) Xe Graphics (0x0000A7A1) Direct3D11 vs_5_0 ps_5_0, D3D11)",
        "measuredRefreshRateHz": 41
      },
      "attention": {
        "visibilityEvents": [
          {
            "event": "blur",
            "state": "blurred",
            "timestamp": 1772766318761
          },
          {
            "event": "visibilitychange",
            "state": "hidden",
            "timestamp": 1772766318777
          },
          {
            "event": "visibilitychange",
            "state": "visible",
            "timestamp": 1772766321252
          },
          {
            "event": "focus",
            "state": "focused",
            "timestamp": 1772766321258
          }
        ]
      },
      "calibration": {
        "monitorWidthCm": 38,
        "viewingDistanceCm": 54,
        "pixelsPerDegree": 50
      },
      "parameters": {
        "coherence": 0.4,
        "apertureDeg": 5,
        "densityDotsPerDeg2": 40,
        "dotDiameterDeg": 0.035,
        "dotSpeedDegPerSec": 3,
        "lifetimeMs": 200,
        "fixationDurationMs": 1500,
        "faceDurationMs": 1500,
        "testDurationMs": 2000,
        "catchResponseMs": 3000
      },
      "prolific": {
        "prolificPid": "663fd3b839df6ec6f060ef55",
        "studyId": "",
        "sessionId": ""
      },
      "timing": {
        "startTime": "2026-03-06T03:05:15.601Z",
        "endTime": "2026-03-06T03:22:41.691Z",
        "totalElapsedTimeMs": 1046090
      }
    },
    "trials": [
      {
        "trial_number": 0,
        "trial_index": 90,
        "rt": 1299,
        "correct": false,
        "response": "ArrowLeft",
        "congruent": true,
        "gazeTowards": false,
        "gazeCondition": "away",
        "faceOnLeft": true,
        "impliedDirection": 0,
        "testDirection": 0,
        "avgFps": 59,
        "minFps": 28,
        "maxFps": 71,
        "totalFrames": 77,
        "frameRates": 59
      },
      {
        "trial_number": 1,
        "trial_index": 95,
        "rt": 1226,
        "correct": true,
        "response": "ArrowRight",
        "congruent": false,
        "gazeTowards": true,
        "gazeCondition": "towards",
        "faceOnLeft": false,
        "impliedDirection": 180,
        "testDirection": 0,
        "avgFps": 59,
        "minFps": 25,
        "maxFps": 115,
        "totalFrames": 72,
        "frameRates": 59
      },
      {
        "trial_number": 2,
        "trial_index": 100,
        "rt": 1308,
        "correct": true,
        "response": "ArrowRight",
        "congruent": true,
        "gazeTowards": false,
        "gazeCondition": "away",
        "faceOnLeft": true,
        "impliedDirection": 0,
        "testDirection": 0,
        "avgFps": 60,
        "minFps": 56,
        "maxFps": 64,
        "totalFrames": 78,
        "frameRates": 60
      },
      {
        "trial_number": 3,
        "trial_index": 108,
        "rt": 1996,
        "correct": false,
        "response": "ArrowRight",
        "congruent": true,
        "gazeTowards": true,
        "gazeCondition": "towards",
        "faceOnLeft": false,
        "impliedDirection": 180,
        "testDirection": 180,
        "avgFps": 60,
        "minFps": 28,
        "maxFps": 77,
        "totalFrames": 118,
        "frameRates": 60
      },
      {
        "trial_number": 4,
        "trial_index": 113,
        "rt": 1458,
        "correct": true,
        "response": "ArrowLeft",
        "congruent": false,
        "gazeTowards": false,
        "gazeCondition": "away",
        "faceOnLeft": true,
        "impliedDirection": 0,
        "testDirection": 180,
        "avgFps": 59,
        "minFps": 26,
        "maxFps": 92,
        "totalFrames": 87,
        "frameRates": 59
      },
      {
        "trial_number": 5,
        "trial_index": 118,
        "rt": 931,
        "correct": true,
        "response": "ArrowRight",
        "congruent": false,
        "gazeTowards": true,
        "gazeCondition": "towards",
        "faceOnLeft": false,
        "impliedDirection": 180,
        "testDirection": 0,
        "avgFps": 59,
        "minFps": 29,
        "maxFps": 70,
        "totalFrames": 54,
        "frameRates": 59
      },
      {
        "trial_number": 6,
        "trial_index": 123,
        "rt": 1323,
        "correct": true,
        "response": "ArrowRight",
        "congruent": false,
        "gazeTowards": false,
        "gazeCondition": "away",
        "faceOnLeft": false,
        "impliedDirection": 180,
        "testDirection": 0,
        "avgFps": 60,
        "minFps": 57,
        "maxFps": 66,
        "totalFrames": 79,
        "frameRates": 60
      },
      {
        "trial_number": 7,
        "trial_index": 128,
        "rt": 1753,
        "correct": true,
        "response": "ArrowLeft",
        "congruent": false,
        "gazeTowards": true,
        "gazeCondition": "towards",
        "faceOnLeft": true,
        "impliedDirection": 0,
        "testDirection": 180,
        "avgFps": 60,
        "minFps": 28,
        "maxFps": 117,
        "totalFrames": 104,
        "frameRates": 60
      },
      {
        "trial_number": 8,
        "trial_index": 133,
        "rt": 1863,
        "correct": false,
        "response": "ArrowRight",
        "congruent": true,
        "gazeTowards": true,
        "gazeCondition": "towards",
        "faceOnLeft": false,
        "impliedDirection": 180,
        "testDirection": 180,
        "avgFps": 60,
        "minFps": 57,
        "maxFps": 64,
        "totalFrames": 111,
        "frameRates": 60
      },
      {
        "trial_number": 9,
        "trial_index": 138,
        "rt": 1233,
        "correct": true,
        "response": "ArrowLeft",
        "congruent": true,
        "gazeTowards": true,
        "gazeCondition": "towards",
        "faceOnLeft": false,
        "impliedDirection": 180,
        "testDirection": 180,
        "avgFps": 60,
        "minFps": 33,
        "maxFps": 500,
        "totalFrames": 73,
        "frameRates": 60
      },
      {
        "trial_number": 10,
        "trial_index": 143,
        "rt": 939,
        "correct": true,
        "response": "ArrowRight",
        "congruent": true,
        "gazeTowards": true,
        "gazeCondition": "towards",
        "faceOnLeft": true,
        "impliedDirection": 0,
        "testDirection": 0,
        "avgFps": 60,
        "minFps": 49,
        "maxFps": 95,
        "totalFrames": 56,
        "frameRates": 60
      },
      {
        "trial_number": 11,
        "trial_index": 148,
        "rt": 973,
        "correct": true,
        "response": "ArrowRight",
        "congruent": true,
        "gazeTowards": true,
        "gazeCondition": "towards",
        "faceOnLeft": true,
        "impliedDirection": 0,
        "testDirection": 0,
        "avgFps": 60,
        "minFps": 54,
        "maxFps": 75,
        "totalFrames": 58,
        "frameRates": 60
      },
      {
        "trial_number": 12,
        "trial_index": 153,
        "rt": 1214,
        "correct": true,
        "response": "ArrowLeft",
        "congruent": true,
        "gazeTowards": false,
        "gazeCondition": "away",
        "faceOnLeft": false,
        "impliedDirection": 180,
        "testDirection": 180,
        "avgFps": 59,
        "minFps": 31,
        "maxFps": 65,
        "totalFrames": 72,
        "frameRates": 59
      },
      {
        "trial_number": 13,
        "trial_index": 158,
        "rt": 1042,
        "correct": true,
        "response": "ArrowRight",
        "congruent": false,
        "gazeTowards": true,
        "gazeCondition": "towards",
        "faceOnLeft": false,
        "impliedDirection": 180,
        "testDirection": 0,
        "avgFps": 60,
        "minFps": 58,
        "maxFps": 65,
        "totalFrames": 62,
        "frameRates": 60
      },
      {
        "trial_number": 14,
        "trial_index": 163,
        "rt": 794,
        "correct": true,
        "response": "ArrowLeft",
        "congruent": false,
        "gazeTowards": false,
        "gazeCondition": "away",
        "faceOnLeft": true,
        "impliedDirection": 0,
        "testDirection": 180,
        "avgFps": 60,
        "minFps": 50,
        "maxFps": 76,
        "totalFrames": 47,
        "frameRates": 60
      },
      {
        "trial_number": 15,
        "trial_index": 168,
        "rt": 951,
        "correct": true,
        "response": "ArrowLeft",
        "congruent": true,
        "gazeTowards": false,
        "gazeCondition": "away",
        "faceOnLeft": false,
        "impliedDirection": 180,
        "testDirection": 180,
        "avgFps": 59,
        "minFps": 30,
        "maxFps": 67,
        "totalFrames": 56,
        "frameRates": 59
      },
      {
        "trial_number": 16,
        "trial_index": 173,
        "rt": 845,
        "correct": true,
        "response": "ArrowLeft",
        "congruent": false,
        "gazeTowards": false,
        "gazeCondition": "away",
        "faceOnLeft": true,
        "impliedDirection": 0,
        "testDirection": 180,
        "avgFps": 59,
        "minFps": 27,
        "maxFps": 78,
        "totalFrames": 50,
        "frameRates": 59
      },
      {
        "trial_number": 17,
        "trial_index": 178,
        "rt": 1091,
        "correct": true,
        "response": "ArrowRight",
        "congruent": false,
        "gazeTowards": true,
        "gazeCondition": "towards",
        "faceOnLeft": false,
        "impliedDirection": 180,
        "testDirection": 0,
        "avgFps": 60,
        "minFps": 57,
        "maxFps": 67,
        "totalFrames": 65,
        "frameRates": 60
      },
      {
        "trial_number": 18,
        "trial_index": 183,
        "rt": 984,
        "correct": true,
        "response": "ArrowLeft",
        "congruent": true,
        "gazeTowards": false,
        "gazeCondition": "away",
        "faceOnLeft": false,
        "impliedDirection": 180,
        "testDirection": 180,
        "avgFps": 59,
        "minFps": 25,
        "maxFps": 109,
        "totalFrames": 58,
        "frameRates": 59
      },
      {
        "trial_number": 19,
        "trial_index": 188,
        "rt": 1027,
        "correct": true,
        "response": "ArrowLeft",
        "congruent": true,
        "gazeTowards": true,
        "gazeCondition": "towards",
        "faceOnLeft": false,
        "impliedDirection": 180,
        "testDirection": 180,
        "avgFps": 60,
        "minFps": 55,
        "maxFps": 68,
        "totalFrames": 62,
        "frameRates": 60
      },
      {
        "trial_number": 20,
        "trial_index": 193,
        "rt": 985,
        "correct": true,
        "response": "ArrowRight",
        "congruent": true,
        "gazeTowards": true,
        "gazeCondition": "towards",
        "faceOnLeft": true,
        "impliedDirection": 0,
        "testDirection": 0,
        "avgFps": 60,
        "minFps": 56,
        "maxFps": 66,
        "totalFrames": 58,
        "frameRates": 60
      },
      {
        "trial_number": 21,
        "trial_index": 198,
        "rt": 942,
        "correct": true,
        "response": "ArrowRight",
        "congruent": false,
        "gazeTowards": true,
        "gazeCondition": "towards",
        "faceOnLeft": false,
        "impliedDirection": 180,
        "testDirection": 0,
        "avgFps": 60,
        "minFps": 38,
        "maxFps": 133,
        "totalFrames": 56,
        "frameRates": 60
      },
      {
        "trial_number": 22,
        "trial_index": 203,
        "rt": 695,
        "correct": true,
        "response": "ArrowLeft",
        "congruent": true,
        "gazeTowards": true,
        "gazeCondition": "towards",
        "faceOnLeft": false,
        "impliedDirection": 180,
        "testDirection": 180,
        "avgFps": 60,
        "minFps": 58,
        "maxFps": 64,
        "totalFrames": 42,
        "frameRates": 60
      },
      {
        "trial_number": 23,
        "trial_index": 208,
        "rt": 944,
        "correct": true,
        "response": "ArrowLeft",
        "congruent": false,
        "gazeTowards": true,
        "gazeCondition": "towards",
        "faceOnLeft": true,
        "impliedDirection": 0,
        "testDirection": 180,
        "avgFps": 59,
        "minFps": 29,
        "maxFps": 78,
        "totalFrames": 55,
        "frameRates": 59
      },
      {
        "trial_number": 24,
        "trial_index": 213,
        "rt": 1393,
        "correct": true,
        "response": "ArrowRight",
        "congruent": false,
        "gazeTowards": true,
        "gazeCondition": "towards",
        "faceOnLeft": false,
        "impliedDirection": 180,
        "testDirection": 0,
        "avgFps": 61,
        "minFps": 56,
        "maxFps": null,
        "totalFrames": 84,
        "frameRates": 61
      },
      {
        "trial_number": 25,
        "trial_index": 218,
        "rt": 1022,
        "correct": true,
        "response": "ArrowRight",
        "congruent": true,
        "gazeTowards": false,
        "gazeCondition": "away",
        "faceOnLeft": true,
        "impliedDirection": 0,
        "testDirection": 0,
        "avgFps": 61,
        "minFps": 56,
        "maxFps": 131,
        "totalFrames": 61,
        "frameRates": 61
      },
      {
        "trial_number": 26,
        "trial_index": 223,
        "rt": 812,
        "correct": true,
        "response": "ArrowLeft",
        "congruent": true,
        "gazeTowards": true,
        "gazeCondition": "towards",
        "faceOnLeft": false,
        "impliedDirection": 180,
        "testDirection": 180,
        "avgFps": 59,
        "minFps": 24,
        "maxFps": 167,
        "totalFrames": 47,
        "frameRates": 59
      },
      {
        "trial_number": 27,
        "trial_index": 228,
        "rt": 679,
        "correct": true,
        "response": "ArrowRight",
        "congruent": false,
        "gazeTowards": false,
        "gazeCondition": "away",
        "faceOnLeft": false,
        "impliedDirection": 180,
        "testDirection": 0,
        "avgFps": 60,
        "minFps": 52,
        "maxFps": 72,
        "totalFrames": 40,
        "frameRates": 60
      },
      {
        "trial_number": 28,
        "trial_index": 233,
        "rt": 807,
        "correct": true,
        "response": "ArrowRight",
        "congruent": true,
        "gazeTowards": false,
        "gazeCondition": "away",
        "faceOnLeft": true,
        "impliedDirection": 0,
        "testDirection": 0,
        "avgFps": 60,
        "minFps": 37,
        "maxFps": 152,
        "totalFrames": 48,
        "frameRates": 60
      },
      {
        "trial_number": 29,
        "trial_index": 238,
        "rt": 1007,
        "correct": true,
        "response": "ArrowRight",
        "congruent": false,
        "gazeTowards": false,
        "gazeCondition": "away",
        "faceOnLeft": false,
        "impliedDirection": 180,
        "testDirection": 0,
        "avgFps": 60,
        "minFps": 33,
        "maxFps": 476,
        "totalFrames": 60,
        "frameRates": 60
      },
      {
        "trial_number": 30,
        "trial_index": 243,
        "rt": 1558,
        "correct": true,
        "response": "ArrowRight",
        "congruent": true,
        "gazeTowards": true,
        "gazeCondition": "towards",
        "faceOnLeft": true,
        "impliedDirection": 0,
        "testDirection": 0,
        "avgFps": 60,
        "minFps": 56,
        "maxFps": 66,
        "totalFrames": 93,
        "frameRates": 60
      },
      {
        "trial_number": 31,
        "trial_index": 248,
        "rt": 1303,
        "correct": true,
        "response": "ArrowRight",
        "congruent": true,
        "gazeTowards": false,
        "gazeCondition": "away",
        "faceOnLeft": true,
        "impliedDirection": 0,
        "testDirection": 0,
        "avgFps": 60,
        "minFps": 53,
        "maxFps": 72,
        "totalFrames": 78,
        "frameRates": 60
      },
      {
        "trial_number": 32,
        "trial_index": 254,
        "rt": 769,
        "correct": true,
        "response": "ArrowLeft",
        "congruent": true,
        "gazeTowards": true,
        "gazeCondition": "towards",
        "faceOnLeft": false,
        "impliedDirection": 180,
        "testDirection": 180,
        "avgFps": 59,
        "minFps": 30,
        "maxFps": 62,
        "totalFrames": 45,
        "frameRates": 59
      },
      {
        "trial_number": 33,
        "trial_index": 259,
        "rt": 904,
        "correct": true,
        "response": "ArrowLeft",
        "congruent": true,
        "gazeTowards": false,
        "gazeCondition": "away",
        "faceOnLeft": false,
        "impliedDirection": 180,
        "testDirection": 180,
        "avgFps": 60,
        "minFps": 56,
        "maxFps": 66,
        "totalFrames": 54,
        "frameRates": 60
      },
      {
        "trial_number": 34,
        "trial_index": 264,
        "rt": 1419,
        "correct": true,
        "response": "ArrowRight",
        "congruent": false,
        "gazeTowards": false,
        "gazeCondition": "away",
        "faceOnLeft": false,
        "impliedDirection": 180,
        "testDirection": 0,
        "avgFps": 60,
        "minFps": 43,
        "maxFps": 101,
        "totalFrames": 84,
        "frameRates": 60
      },
      {
        "trial_number": 35,
        "trial_index": 269,
        "rt": 711,
        "correct": true,
        "response": "ArrowRight",
        "congruent": false,
        "gazeTowards": false,
        "gazeCondition": "away",
        "faceOnLeft": false,
        "impliedDirection": 180,
        "testDirection": 0,
        "avgFps": 60,
        "minFps": 57,
        "maxFps": 67,
        "totalFrames": 43,
        "frameRates": 60
      },
      {
        "trial_number": 36,
        "trial_index": 274,
        "rt": 1107,
        "correct": true,
        "response": "ArrowLeft",
        "congruent": false,
        "gazeTowards": true,
        "gazeCondition": "towards",
        "faceOnLeft": true,
        "impliedDirection": 0,
        "testDirection": 180,
        "avgFps": 59,
        "minFps": 23,
        "maxFps": 172,
        "totalFrames": 65,
        "frameRates": 59
      },
      {
        "trial_number": 37,
        "trial_index": 279,
        "rt": 823,
        "correct": true,
        "response": "ArrowRight",
        "congruent": false,
        "gazeTowards": false,
        "gazeCondition": "away",
        "faceOnLeft": false,
        "impliedDirection": 180,
        "testDirection": 0,
        "avgFps": 60,
        "minFps": 34,
        "maxFps": 303,
        "totalFrames": 49,
        "frameRates": 60
      },
      {
        "trial_number": 38,
        "trial_index": 284,
        "rt": 1218,
        "correct": true,
        "response": "ArrowLeft",
        "congruent": false,
        "gazeTowards": true,
        "gazeCondition": "towards",
        "faceOnLeft": true,
        "impliedDirection": 0,
        "testDirection": 180,
        "avgFps": 59,
        "minFps": 26,
        "maxFps": 98,
        "totalFrames": 71,
        "frameRates": 59
      },
      {
        "trial_number": 39,
        "trial_index": 292,
        "rt": 1767,
        "correct": true,
        "response": "ArrowRight",
        "congruent": false,
        "gazeTowards": true,
        "gazeCondition": "towards",
        "faceOnLeft": false,
        "impliedDirection": 180,
        "testDirection": 0,
        "avgFps": 59,
        "minFps": 31,
        "maxFps": 76,
        "totalFrames": 105,
        "frameRates": 59
      },
      {
        "trial_number": 40,
        "trial_index": 297,
        "rt": 1262,
        "correct": true,
        "response": "ArrowLeft",
        "congruent": false,
        "gazeTowards": false,
        "gazeCondition": "away",
        "faceOnLeft": true,
        "impliedDirection": 0,
        "testDirection": 180,
        "avgFps": 60,
        "minFps": 58,
        "maxFps": 62,
        "totalFrames": 76,
        "frameRates": 60
      },
      {
        "trial_number": 41,
        "trial_index": 302,
        "rt": 1071,
        "correct": true,
        "response": "ArrowLeft",
        "congruent": false,
        "gazeTowards": false,
        "gazeCondition": "away",
        "faceOnLeft": true,
        "impliedDirection": 0,
        "testDirection": 180,
        "avgFps": 60,
        "minFps": 55,
        "maxFps": 68,
        "totalFrames": 64,
        "frameRates": 60
      },
      {
        "trial_number": 42,
        "trial_index": 307,
        "rt": 991,
        "correct": true,
        "response": "ArrowLeft",
        "congruent": true,
        "gazeTowards": true,
        "gazeCondition": "towards",
        "faceOnLeft": false,
        "impliedDirection": 180,
        "testDirection": 180,
        "avgFps": 60,
        "minFps": 56,
        "maxFps": 65,
        "totalFrames": 60,
        "frameRates": 60
      },
      {
        "trial_number": 43,
        "trial_index": 312,
        "rt": 1326,
        "correct": false,
        "response": "ArrowLeft",
        "congruent": false,
        "gazeTowards": false,
        "gazeCondition": "away",
        "faceOnLeft": false,
        "impliedDirection": 180,
        "testDirection": 0,
        "avgFps": 60,
        "minFps": 56,
        "maxFps": 65,
        "totalFrames": 80,
        "frameRates": 60
      },
      {
        "trial_number": 44,
        "trial_index": 317,
        "rt": 1410,
        "correct": true,
        "response": "ArrowLeft",
        "congruent": true,
        "gazeTowards": false,
        "gazeCondition": "away",
        "faceOnLeft": false,
        "impliedDirection": 180,
        "testDirection": 180,
        "avgFps": 60,
        "minFps": 57,
        "maxFps": 62,
        "totalFrames": 84,
        "frameRates": 60
      },
      {
        "trial_number": 45,
        "trial_index": 322,
        "rt": null,
        "correct": false,
        "response": null,
        "congruent": false,
        "gazeTowards": false,
        "gazeCondition": "away",
        "faceOnLeft": false,
        "impliedDirection": 180,
        "testDirection": 0,
        "avgFps": 60,
        "minFps": 56,
        "maxFps": 83,
        "totalFrames": 121,
        "frameRates": 60
      },
      {
        "trial_number": 46,
        "trial_index": 327,
        "rt": 913,
        "correct": true,
        "response": "ArrowLeft",
        "congruent": false,
        "gazeTowards": true,
        "gazeCondition": "towards",
        "faceOnLeft": true,
        "impliedDirection": 0,
        "testDirection": 180,
        "avgFps": 59,
        "minFps": 28,
        "maxFps": 76,
        "totalFrames": 54,
        "frameRates": 59
      },
      {
        "trial_number": 47,
        "trial_index": 332,
        "rt": 974,
        "correct": true,
        "response": "ArrowLeft",
        "congruent": true,
        "gazeTowards": true,
        "gazeCondition": "towards",
        "faceOnLeft": false,
        "impliedDirection": 180,
        "testDirection": 180,
        "avgFps": 60,
        "minFps": 59,
        "maxFps": 62,
        "totalFrames": 59,
        "frameRates": 60
      },
      {
        "trial_number": 48,
        "trial_index": 337,
        "rt": 931,
        "correct": true,
        "response": "ArrowLeft",
        "congruent": true,
        "gazeTowards": false,
        "gazeCondition": "away",
        "faceOnLeft": false,
        "impliedDirection": 180,
        "testDirection": 180,
        "avgFps": 60,
        "minFps": 57,
        "maxFps": 65,
        "totalFrames": 56,
        "frameRates": 60
      },
      {
        "trial_number": 49,
        "trial_index": 342,
        "rt": 1927,
        "correct": true,
        "response": "ArrowRight",
        "congruent": false,
        "gazeTowards": true,
        "gazeCondition": "towards",
        "faceOnLeft": false,
        "impliedDirection": 180,
        "testDirection": 0,
        "avgFps": 60,
        "minFps": 58,
        "maxFps": 65,
        "totalFrames": 115,
        "frameRates": 60
      },
      {
        "trial_number": 50,
        "trial_index": 347,
        "rt": 1963,
        "correct": true,
        "response": "ArrowLeft",
        "congruent": false,
        "gazeTowards": false,
        "gazeCondition": "away",
        "faceOnLeft": true,
        "impliedDirection": 0,
        "testDirection": 180,
        "avgFps": 60,
        "minFps": 55,
        "maxFps": 65,
        "totalFrames": 118,
        "frameRates": 60
      },
      {
        "trial_number": 51,
        "trial_index": 352,
        "rt": null,
        "correct": false,
        "response": null,
        "congruent": true,
        "gazeTowards": false,
        "gazeCondition": "away",
        "faceOnLeft": true,
        "impliedDirection": 0,
        "testDirection": 0,
        "avgFps": 60,
        "minFps": 22,
        "maxFps": 323,
        "totalFrames": 119,
        "frameRates": 60
      },
      {
        "trial_number": 52,
        "trial_index": 357,
        "rt": null,
        "correct": false,
        "response": null,
        "congruent": true,
        "gazeTowards": false,
        "gazeCondition": "away",
        "faceOnLeft": false,
        "impliedDirection": 180,
        "testDirection": 180,
        "avgFps": 60,
        "minFps": 46,
        "maxFps": 90,
        "totalFrames": 120,
        "frameRates": 60
      },
      {
        "trial_number": 53,
        "trial_index": 362,
        "rt": 1343,
        "correct": true,
        "response": "ArrowRight",
        "congruent": false,
        "gazeTowards": true,
        "gazeCondition": "towards",
        "faceOnLeft": false,
        "impliedDirection": 180,
        "testDirection": 0,
        "avgFps": 59,
        "minFps": 25,
        "maxFps": 122,
        "totalFrames": 79,
        "frameRates": 59
      },
      {
        "trial_number": 54,
        "trial_index": 367,
        "rt": 976,
        "correct": true,
        "response": "ArrowRight",
        "congruent": true,
        "gazeTowards": false,
        "gazeCondition": "away",
        "faceOnLeft": true,
        "impliedDirection": 0,
        "testDirection": 0,
        "avgFps": 60,
        "minFps": 56,
        "maxFps": 65,
        "totalFrames": 58,
        "frameRates": 60
      },
      {
        "trial_number": 55,
        "trial_index": 375,
        "rt": 1696,
        "correct": true,
        "response": "ArrowRight",
        "congruent": true,
        "gazeTowards": true,
        "gazeCondition": "towards",
        "faceOnLeft": true,
        "impliedDirection": 0,
        "testDirection": 0,
        "avgFps": 59,
        "minFps": 22,
        "maxFps": 172,
        "totalFrames": 100,
        "frameRates": 59
      },
      {
        "trial_number": 56,
        "trial_index": 383,
        "rt": 1608,
        "correct": true,
        "response": "ArrowRight",
        "congruent": true,
        "gazeTowards": true,
        "gazeCondition": "towards",
        "faceOnLeft": true,
        "impliedDirection": 0,
        "testDirection": 0,
        "avgFps": 59,
        "minFps": 25,
        "maxFps": 118,
        "totalFrames": 95,
        "frameRates": 59
      },
      {
        "trial_number": 57,
        "trial_index": 388,
        "rt": 1575,
        "correct": false,
        "response": "ArrowRight",
        "congruent": true,
        "gazeTowards": false,
        "gazeCondition": "away",
        "faceOnLeft": false,
        "impliedDirection": 180,
        "testDirection": 180,
        "avgFps": 59,
        "minFps": 31,
        "maxFps": 62,
        "totalFrames": 92,
        "frameRates": 59
      },
      {
        "trial_number": 58,
        "trial_index": 393,
        "rt": 1439,
        "correct": true,
        "response": "ArrowLeft",
        "congruent": false,
        "gazeTowards": true,
        "gazeCondition": "towards",
        "faceOnLeft": true,
        "impliedDirection": 0,
        "testDirection": 180,
        "avgFps": 60,
        "minFps": 58,
        "maxFps": 64,
        "totalFrames": 87,
        "frameRates": 60
      },
      {
        "trial_number": 59,
        "trial_index": 398,
        "rt": 1308,
        "correct": true,
        "response": "ArrowLeft",
        "congruent": true,
        "gazeTowards": true,
        "gazeCondition": "towards",
        "faceOnLeft": false,
        "impliedDirection": 180,
        "testDirection": 180,
        "avgFps": 59,
        "minFps": 33,
        "maxFps": 118,
        "totalFrames": 77,
        "frameRates": 59
      },
      {
        "trial_number": 60,
        "trial_index": 403,
        "rt": 1679,
        "correct": true,
        "response": "ArrowRight",
        "congruent": true,
        "gazeTowards": false,
        "gazeCondition": "away",
        "faceOnLeft": true,
        "impliedDirection": 0,
        "testDirection": 0,
        "avgFps": 59,
        "minFps": 28,
        "maxFps": 74,
        "totalFrames": 100,
        "frameRates": 59
      },
      {
        "trial_number": 61,
        "trial_index": 408,
        "rt": 1298,
        "correct": false,
        "response": "ArrowRight",
        "congruent": true,
        "gazeTowards": false,
        "gazeCondition": "away",
        "faceOnLeft": false,
        "impliedDirection": 180,
        "testDirection": 180,
        "avgFps": 60,
        "minFps": 51,
        "maxFps": 72,
        "totalFrames": 78,
        "frameRates": 60
      },
      {
        "trial_number": 62,
        "trial_index": 417,
        "rt": 1557,
        "correct": true,
        "response": "ArrowRight",
        "congruent": false,
        "gazeTowards": false,
        "gazeCondition": "away",
        "faceOnLeft": false,
        "impliedDirection": 180,
        "testDirection": 0,
        "avgFps": 59,
        "minFps": 31,
        "maxFps": 63,
        "totalFrames": 92,
        "frameRates": 59
      },
      {
        "trial_number": 63,
        "trial_index": 422,
        "rt": null,
        "correct": false,
        "response": null,
        "congruent": true,
        "gazeTowards": false,
        "gazeCondition": "away",
        "faceOnLeft": false,
        "impliedDirection": 180,
        "testDirection": 180,
        "avgFps": 60,
        "minFps": 58,
        "maxFps": 66,
        "totalFrames": 121,
        "frameRates": 60
      },
      {
        "trial_number": 64,
        "trial_index": 427,
        "rt": 1802,
        "correct": true,
        "response": "ArrowLeft",
        "congruent": true,
        "gazeTowards": true,
        "gazeCondition": "towards",
        "faceOnLeft": false,
        "impliedDirection": 180,
        "testDirection": 180,
        "avgFps": 60,
        "minFps": 57,
        "maxFps": 66,
        "totalFrames": 108,
        "frameRates": 60
      },
      {
        "trial_number": 65,
        "trial_index": 432,
        "rt": 1241,
        "correct": true,
        "response": "ArrowRight",
        "congruent": false,
        "gazeTowards": true,
        "gazeCondition": "towards",
        "faceOnLeft": false,
        "impliedDirection": 180,
        "testDirection": 0,
        "avgFps": 60,
        "minFps": 39,
        "maxFps": 169,
        "totalFrames": 74,
        "frameRates": 60
      },
      {
        "trial_number": 66,
        "trial_index": 440,
        "rt": 1977,
        "correct": false,
        "response": "ArrowRight",
        "congruent": true,
        "gazeTowards": true,
        "gazeCondition": "towards",
        "faceOnLeft": false,
        "impliedDirection": 180,
        "testDirection": 180,
        "avgFps": 60,
        "minFps": 35,
        "maxFps": 182,
        "totalFrames": 118,
        "frameRates": 60
      },
      {
        "trial_number": 67,
        "trial_index": 445,
        "rt": 1833,
        "correct": true,
        "response": "ArrowRight",
        "congruent": false,
        "gazeTowards": false,
        "gazeCondition": "away",
        "faceOnLeft": false,
        "impliedDirection": 180,
        "testDirection": 0,
        "avgFps": 59,
        "minFps": 26,
        "maxFps": 96,
        "totalFrames": 109,
        "frameRates": 59
      },
      {
        "trial_number": 68,
        "trial_index": 450,
        "rt": 1639,
        "correct": true,
        "response": "ArrowRight",
        "congruent": true,
        "gazeTowards": true,
        "gazeCondition": "towards",
        "faceOnLeft": true,
        "impliedDirection": 0,
        "testDirection": 0,
        "avgFps": 59,
        "minFps": 22,
        "maxFps": 263,
        "totalFrames": 97,
        "frameRates": 59
      },
      {
        "trial_number": 69,
        "trial_index": 455,
        "rt": 1928,
        "correct": true,
        "response": "ArrowRight",
        "congruent": false,
        "gazeTowards": true,
        "gazeCondition": "towards",
        "faceOnLeft": false,
        "impliedDirection": 180,
        "testDirection": 0,
        "avgFps": 60,
        "minFps": 25,
        "maxFps": 110,
        "totalFrames": 115,
        "frameRates": 60
      },
      {
        "trial_number": 70,
        "trial_index": 460,
        "rt": 1913,
        "correct": false,
        "response": "ArrowRight",
        "congruent": false,
        "gazeTowards": true,
        "gazeCondition": "towards",
        "faceOnLeft": true,
        "impliedDirection": 0,
        "testDirection": 180,
        "avgFps": 60,
        "minFps": 35,
        "maxFps": 200,
        "totalFrames": 115,
        "frameRates": 60
      },
      {
        "trial_number": 71,
        "trial_index": 465,
        "rt": 658,
        "correct": true,
        "response": "ArrowRight",
        "congruent": true,
        "gazeTowards": false,
        "gazeCondition": "away",
        "faceOnLeft": true,
        "impliedDirection": 0,
        "testDirection": 0,
        "avgFps": 60,
        "minFps": 57,
        "maxFps": 67,
        "totalFrames": 39,
        "frameRates": 60
      },
      {
        "trial_number": 72,
        "trial_index": 470,
        "rt": 1557,
        "correct": true,
        "response": "ArrowRight",
        "congruent": false,
        "gazeTowards": true,
        "gazeCondition": "towards",
        "faceOnLeft": false,
        "impliedDirection": 180,
        "testDirection": 0,
        "avgFps": 60,
        "minFps": 55,
        "maxFps": 68,
        "totalFrames": 93,
        "frameRates": 60
      },
      {
        "trial_number": 73,
        "trial_index": 475,
        "rt": 1706,
        "correct": false,
        "response": "ArrowRight",
        "congruent": false,
        "gazeTowards": false,
        "gazeCondition": "away",
        "faceOnLeft": true,
        "impliedDirection": 0,
        "testDirection": 180,
        "avgFps": 60,
        "minFps": 50,
        "maxFps": 80,
        "totalFrames": 102,
        "frameRates": 60
      },
      {
        "trial_number": 74,
        "trial_index": 480,
        "rt": 1898,
        "correct": false,
        "response": "ArrowLeft",
        "congruent": true,
        "gazeTowards": false,
        "gazeCondition": "away",
        "faceOnLeft": true,
        "impliedDirection": 0,
        "testDirection": 0,
        "avgFps": 60,
        "minFps": 35,
        "maxFps": 278,
        "totalFrames": 113,
        "frameRates": 60
      },
      {
        "trial_number": 75,
        "trial_index": 485,
        "rt": 936,
        "correct": true,
        "response": "ArrowRight",
        "congruent": false,
        "gazeTowards": true,
        "gazeCondition": "towards",
        "faceOnLeft": false,
        "impliedDirection": 180,
        "testDirection": 0,
        "avgFps": 60,
        "minFps": 58,
        "maxFps": 67,
        "totalFrames": 56,
        "frameRates": 60
      },
      {
        "trial_number": 76,
        "trial_index": 490,
        "rt": 677,
        "correct": false,
        "response": "ArrowRight",
        "congruent": true,
        "gazeTowards": true,
        "gazeCondition": "towards",
        "faceOnLeft": false,
        "impliedDirection": 180,
        "testDirection": 180,
        "avgFps": 60,
        "minFps": 48,
        "maxFps": 83,
        "totalFrames": 40,
        "frameRates": 60
      },
      {
        "trial_number": 77,
        "trial_index": 495,
        "rt": 1369,
        "correct": true,
        "response": "ArrowRight",
        "congruent": false,
        "gazeTowards": false,
        "gazeCondition": "away",
        "faceOnLeft": false,
        "impliedDirection": 180,
        "testDirection": 0,
        "avgFps": 60,
        "minFps": 54,
        "maxFps": 74,
        "totalFrames": 82,
        "frameRates": 60
      },
      {
        "trial_number": 78,
        "trial_index": 500,
        "rt": 1710,
        "correct": true,
        "response": "ArrowLeft",
        "congruent": true,
        "gazeTowards": false,
        "gazeCondition": "away",
        "faceOnLeft": false,
        "impliedDirection": 180,
        "testDirection": 180,
        "avgFps": 60,
        "minFps": 33,
        "maxFps": 556,
        "totalFrames": 103,
        "frameRates": 60
      },
      {
        "trial_number": 79,
        "trial_index": 505,
        "rt": 1354,
        "correct": true,
        "response": "ArrowRight",
        "congruent": true,
        "gazeTowards": false,
        "gazeCondition": "away",
        "faceOnLeft": true,
        "impliedDirection": 0,
        "testDirection": 0,
        "avgFps": 60,
        "minFps": 49,
        "maxFps": 85,
        "totalFrames": 81,
        "frameRates": 60
      },
      {
        "trial_number": 80,
        "trial_index": 510,
        "rt": 1853,
        "correct": true,
        "response": "ArrowRight",
        "congruent": false,
        "gazeTowards": false,
        "gazeCondition": "away",
        "faceOnLeft": false,
        "impliedDirection": 180,
        "testDirection": 0,
        "avgFps": 60,
        "minFps": 58,
        "maxFps": 63,
        "totalFrames": 111,
        "frameRates": 60
      },
      {
        "trial_number": 81,
        "trial_index": 515,
        "rt": null,
        "correct": false,
        "response": null,
        "congruent": true,
        "gazeTowards": false,
        "gazeCondition": "away",
        "faceOnLeft": false,
        "impliedDirection": 180,
        "testDirection": 180,
        "avgFps": 60,
        "minFps": 22,
        "maxFps": 233,
        "totalFrames": 119,
        "frameRates": 60
      },
      {
        "trial_number": 82,
        "trial_index": 520,
        "rt": 1240,
        "correct": true,
        "response": "ArrowRight",
        "congruent": true,
        "gazeTowards": false,
        "gazeCondition": "away",
        "faceOnLeft": true,
        "impliedDirection": 0,
        "testDirection": 0,
        "avgFps": 60,
        "minFps": 34,
        "maxFps": 345,
        "totalFrames": 73,
        "frameRates": 60
      },
      {
        "trial_number": 83,
        "trial_index": 525,
        "rt": 1887,
        "correct": true,
        "response": "ArrowRight",
        "congruent": false,
        "gazeTowards": true,
        "gazeCondition": "towards",
        "faceOnLeft": false,
        "impliedDirection": 180,
        "testDirection": 0,
        "avgFps": 60,
        "minFps": 44,
        "maxFps": 106,
        "totalFrames": 113,
        "frameRates": 60
      },
      {
        "trial_number": 84,
        "trial_index": 533,
        "rt": 1695,
        "correct": true,
        "response": "ArrowRight",
        "congruent": false,
        "gazeTowards": false,
        "gazeCondition": "away",
        "faceOnLeft": false,
        "impliedDirection": 180,
        "testDirection": 0,
        "avgFps": 60,
        "minFps": 57,
        "maxFps": 77,
        "totalFrames": 101,
        "frameRates": 60
      },
      {
        "trial_number": 85,
        "trial_index": 538,
        "rt": null,
        "correct": false,
        "response": null,
        "congruent": false,
        "gazeTowards": true,
        "gazeCondition": "towards",
        "faceOnLeft": false,
        "impliedDirection": 180,
        "testDirection": 0,
        "avgFps": 60,
        "minFps": 57,
        "maxFps": 66,
        "totalFrames": 120,
        "frameRates": 60
      },
      {
        "trial_number": 86,
        "trial_index": 543,
        "rt": 1590,
        "correct": true,
        "response": "ArrowRight",
        "congruent": true,
        "gazeTowards": true,
        "gazeCondition": "towards",
        "faceOnLeft": true,
        "impliedDirection": 0,
        "testDirection": 0,
        "avgFps": 60,
        "minFps": 52,
        "maxFps": 73,
        "totalFrames": 95,
        "frameRates": 60
      },
      {
        "trial_number": 87,
        "trial_index": 548,
        "rt": 1075,
        "correct": true,
        "response": "ArrowRight",
        "congruent": true,
        "gazeTowards": true,
        "gazeCondition": "towards",
        "faceOnLeft": true,
        "impliedDirection": 0,
        "testDirection": 0,
        "avgFps": 60,
        "minFps": 56,
        "maxFps": 64,
        "totalFrames": 64,
        "frameRates": 60
      },
      {
        "trial_number": 88,
        "trial_index": 553,
        "rt": 1745,
        "correct": false,
        "response": "ArrowRight",
        "congruent": false,
        "gazeTowards": false,
        "gazeCondition": "away",
        "faceOnLeft": true,
        "impliedDirection": 0,
        "testDirection": 180,
        "avgFps": 60,
        "minFps": 45,
        "maxFps": 93,
        "totalFrames": 105,
        "frameRates": 60
      },
      {
        "trial_number": 89,
        "trial_index": 558,
        "rt": 1118,
        "correct": false,
        "response": "ArrowRight",
        "congruent": true,
        "gazeTowards": true,
        "gazeCondition": "towards",
        "faceOnLeft": false,
        "impliedDirection": 180,
        "testDirection": 180,
        "avgFps": 60,
        "minFps": 57,
        "maxFps": 66,
        "totalFrames": 67,
        "frameRates": 60
      },
      {
        "trial_number": 90,
        "trial_index": 563,
        "rt": 1431,
        "correct": false,
        "response": "ArrowLeft",
        "congruent": false,
        "gazeTowards": true,
        "gazeCondition": "towards",
        "faceOnLeft": false,
        "impliedDirection": 180,
        "testDirection": 0,
        "avgFps": 60,
        "minFps": 55,
        "maxFps": 67,
        "totalFrames": 85,
        "frameRates": 60
      },
      {
        "trial_number": 91,
        "trial_index": 572,
        "rt": 1448,
        "correct": true,
        "response": "ArrowRight",
        "congruent": true,
        "gazeTowards": true,
        "gazeCondition": "towards",
        "faceOnLeft": true,
        "impliedDirection": 0,
        "testDirection": 0,
        "avgFps": 60,
        "minFps": 58,
        "maxFps": 62,
        "totalFrames": 87,
        "frameRates": 60
      },
      {
        "trial_number": 92,
        "trial_index": 577,
        "rt": 1770,
        "correct": true,
        "response": "ArrowLeft",
        "congruent": false,
        "gazeTowards": false,
        "gazeCondition": "away",
        "faceOnLeft": true,
        "impliedDirection": 0,
        "testDirection": 180,
        "avgFps": 59,
        "minFps": 28,
        "maxFps": 76,
        "totalFrames": 104,
        "frameRates": 59
      },
      {
        "trial_number": 93,
        "trial_index": 582,
        "rt": 1745,
        "correct": true,
        "response": "ArrowRight",
        "congruent": true,
        "gazeTowards": false,
        "gazeCondition": "away",
        "faceOnLeft": true,
        "impliedDirection": 0,
        "testDirection": 0,
        "avgFps": 59,
        "minFps": 25,
        "maxFps": 125,
        "totalFrames": 103,
        "frameRates": 59
      },
      {
        "trial_number": 94,
        "trial_index": 587,
        "rt": 1785,
        "correct": true,
        "response": "ArrowLeft",
        "congruent": false,
        "gazeTowards": true,
        "gazeCondition": "towards",
        "faceOnLeft": true,
        "impliedDirection": 0,
        "testDirection": 180,
        "avgFps": 60,
        "minFps": 34,
        "maxFps": 204,
        "totalFrames": 107,
        "frameRates": 60
      },
      {
        "trial_number": 95,
        "trial_index": 592,
        "rt": null,
        "correct": false,
        "response": null,
        "congruent": true,
        "gazeTowards": false,
        "gazeCondition": "away",
        "faceOnLeft": false,
        "impliedDirection": 180,
        "testDirection": 180,
        "avgFps": 60,
        "minFps": 34,
        "maxFps": 370,
        "totalFrames": 120,
        "frameRates": 60
      },
      {
        "trial_number": 96,
        "trial_index": 597,
        "rt": 1047,
        "correct": true,
        "response": "ArrowRight",
        "congruent": false,
        "gazeTowards": false,
        "gazeCondition": "away",
        "faceOnLeft": false,
        "impliedDirection": 180,
        "testDirection": 0,
        "avgFps": 60,
        "minFps": 55,
        "maxFps": 65,
        "totalFrames": 63,
        "frameRates": 60
      },
      {
        "trial_number": 97,
        "trial_index": 602,
        "rt": 1890,
        "correct": false,
        "response": "ArrowLeft",
        "congruent": false,
        "gazeTowards": true,
        "gazeCondition": "towards",
        "faceOnLeft": false,
        "impliedDirection": 180,
        "testDirection": 0,
        "avgFps": 61,
        "minFps": 31,
        "maxFps": 3472,
        "totalFrames": 113,
        "frameRates": 61
      },
      {
        "trial_number": 98,
        "trial_index": 607,
        "rt": null,
        "correct": false,
        "response": null,
        "congruent": true,
        "gazeTowards": false,
        "gazeCondition": "away",
        "faceOnLeft": false,
        "impliedDirection": 180,
        "testDirection": 180,
        "avgFps": 60,
        "minFps": 57,
        "maxFps": 65,
        "totalFrames": 120,
        "frameRates": 60
      },
      {
        "trial_number": 99,
        "trial_index": 612,
        "rt": 1352,
        "correct": true,
        "response": "ArrowLeft",
        "congruent": false,
        "gazeTowards": false,
        "gazeCondition": "away",
        "faceOnLeft": true,
        "impliedDirection": 0,
        "testDirection": 180,
        "avgFps": 61,
        "minFps": 58,
        "maxFps": 5319,
        "totalFrames": 81,
        "frameRates": 61
      },
      {
        "trial_number": 100,
        "trial_index": 623,
        "rt": null,
        "correct": false,
        "response": null,
        "congruent": false,
        "gazeTowards": false,
        "gazeCondition": "away",
        "faceOnLeft": false,
        "impliedDirection": 180,
        "testDirection": 0,
        "avgFps": 60,
        "minFps": 57,
        "maxFps": 66,
        "totalFrames": 120,
        "frameRates": 60
      },
      {
        "trial_number": 101,
        "trial_index": 631,
        "rt": 912,
        "correct": true,
        "response": "ArrowRight",
        "congruent": true,
        "gazeTowards": false,
        "gazeCondition": "away",
        "faceOnLeft": true,
        "impliedDirection": 0,
        "testDirection": 0,
        "avgFps": 60,
        "minFps": 58,
        "maxFps": 63,
        "totalFrames": 55,
        "frameRates": 60
      },
      {
        "trial_number": 102,
        "trial_index": 636,
        "rt": 1374,
        "correct": true,
        "response": "ArrowLeft",
        "congruent": false,
        "gazeTowards": true,
        "gazeCondition": "towards",
        "faceOnLeft": true,
        "impliedDirection": 0,
        "testDirection": 180,
        "avgFps": 59,
        "minFps": 28,
        "maxFps": 70,
        "totalFrames": 81,
        "frameRates": 59
      },
      {
        "trial_number": 103,
        "trial_index": 641,
        "rt": 1525,
        "correct": true,
        "response": "ArrowLeft",
        "congruent": true,
        "gazeTowards": false,
        "gazeCondition": "away",
        "faceOnLeft": false,
        "impliedDirection": 180,
        "testDirection": 180,
        "avgFps": 60,
        "minFps": 36,
        "maxFps": 164,
        "totalFrames": 91,
        "frameRates": 60
      },
      {
        "trial_number": 104,
        "trial_index": 646,
        "rt": 1495,
        "correct": true,
        "response": "ArrowLeft",
        "congruent": true,
        "gazeTowards": false,
        "gazeCondition": "away",
        "faceOnLeft": false,
        "impliedDirection": 180,
        "testDirection": 180,
        "avgFps": 60,
        "minFps": 56,
        "maxFps": 66,
        "totalFrames": 89,
        "frameRates": 60
      },
      {
        "trial_number": 105,
        "trial_index": 651,
        "rt": null,
        "correct": false,
        "response": null,
        "congruent": true,
        "gazeTowards": true,
        "gazeCondition": "towards",
        "faceOnLeft": true,
        "impliedDirection": 0,
        "testDirection": 0,
        "avgFps": 60,
        "minFps": 33,
        "maxFps": 370,
        "totalFrames": 119,
        "frameRates": 60
      },
      {
        "trial_number": 106,
        "trial_index": 656,
        "rt": 1465,
        "correct": true,
        "response": "ArrowRight",
        "congruent": false,
        "gazeTowards": false,
        "gazeCondition": "away",
        "faceOnLeft": false,
        "impliedDirection": 180,
        "testDirection": 0,
        "avgFps": 60,
        "minFps": 57,
        "maxFps": 66,
        "totalFrames": 88,
        "frameRates": 60
      },
      {
        "trial_number": 107,
        "trial_index": 661,
        "rt": 1682,
        "correct": false,
        "response": "ArrowLeft",
        "congruent": false,
        "gazeTowards": true,
        "gazeCondition": "towards",
        "faceOnLeft": false,
        "impliedDirection": 180,
        "testDirection": 0,
        "avgFps": 60,
        "minFps": 56,
        "maxFps": 65,
        "totalFrames": 101,
        "frameRates": 60
      },
      {
        "trial_number": 108,
        "trial_index": 666,
        "rt": null,
        "correct": false,
        "response": null,
        "congruent": false,
        "gazeTowards": true,
        "gazeCondition": "towards",
        "faceOnLeft": false,
        "impliedDirection": 180,
        "testDirection": 0,
        "avgFps": 60,
        "minFps": 30,
        "maxFps": 67,
        "totalFrames": 119,
        "frameRates": 60
      },
      {
        "trial_number": 109,
        "trial_index": 671,
        "rt": 505,
        "correct": true,
        "response": "ArrowLeft",
        "congruent": false,
        "gazeTowards": false,
        "gazeCondition": "away",
        "faceOnLeft": true,
        "impliedDirection": 0,
        "testDirection": 180,
        "avgFps": 61,
        "minFps": 58,
        "maxFps": 110,
        "totalFrames": 30,
        "frameRates": 61
      },
      {
        "trial_number": 110,
        "trial_index": 676,
        "rt": 796,
        "correct": true,
        "response": "ArrowLeft",
        "congruent": false,
        "gazeTowards": false,
        "gazeCondition": "away",
        "faceOnLeft": true,
        "impliedDirection": 0,
        "testDirection": 180,
        "avgFps": 60,
        "minFps": 58,
        "maxFps": 65,
        "totalFrames": 47,
        "frameRates": 60
      },
      {
        "trial_number": 111,
        "trial_index": 681,
        "rt": 927,
        "correct": true,
        "response": "ArrowRight",
        "congruent": false,
        "gazeTowards": true,
        "gazeCondition": "towards",
        "faceOnLeft": false,
        "impliedDirection": 180,
        "testDirection": 0,
        "avgFps": 60,
        "minFps": 32,
        "maxFps": 303,
        "totalFrames": 56,
        "frameRates": 60
      },
      {
        "trial_number": 112,
        "trial_index": 686,
        "rt": 578,
        "correct": true,
        "response": "ArrowRight",
        "congruent": false,
        "gazeTowards": true,
        "gazeCondition": "towards",
        "faceOnLeft": false,
        "impliedDirection": 180,
        "testDirection": 0,
        "avgFps": 60,
        "minFps": 57,
        "maxFps": 66,
        "totalFrames": 34,
        "frameRates": 60
      },
      {
        "trial_number": 113,
        "trial_index": 691,
        "rt": 856,
        "correct": false,
        "response": "ArrowLeft",
        "congruent": true,
        "gazeTowards": true,
        "gazeCondition": "towards",
        "faceOnLeft": true,
        "impliedDirection": 0,
        "testDirection": 0,
        "avgFps": 59,
        "minFps": 22,
        "maxFps": 303,
        "totalFrames": 49,
        "frameRates": 59
      },
      {
        "trial_number": 114,
        "trial_index": 696,
        "rt": 873,
        "correct": true,
        "response": "ArrowRight",
        "congruent": true,
        "gazeTowards": true,
        "gazeCondition": "towards",
        "faceOnLeft": true,
        "impliedDirection": 0,
        "testDirection": 0,
        "avgFps": 60,
        "minFps": 36,
        "maxFps": 156,
        "totalFrames": 53,
        "frameRates": 60
      },
      {
        "trial_number": 115,
        "trial_index": 704,
        "rt": 1155,
        "correct": true,
        "response": "ArrowRight",
        "congruent": false,
        "gazeTowards": false,
        "gazeCondition": "away",
        "faceOnLeft": false,
        "impliedDirection": 180,
        "testDirection": 0,
        "avgFps": 60,
        "minFps": 55,
        "maxFps": 68,
        "totalFrames": 70,
        "frameRates": 60
      },
      {
        "trial_number": 116,
        "trial_index": 709,
        "rt": 730,
        "correct": true,
        "response": "ArrowRight",
        "congruent": true,
        "gazeTowards": true,
        "gazeCondition": "towards",
        "faceOnLeft": true,
        "impliedDirection": 0,
        "testDirection": 0,
        "avgFps": 60,
        "minFps": 54,
        "maxFps": 67,
        "totalFrames": 44,
        "frameRates": 60
      },
      {
        "trial_number": 117,
        "trial_index": 714,
        "rt": 997,
        "correct": true,
        "response": "ArrowRight",
        "congruent": true,
        "gazeTowards": true,
        "gazeCondition": "towards",
        "faceOnLeft": true,
        "impliedDirection": 0,
        "testDirection": 0,
        "avgFps": 60,
        "minFps": 36,
        "maxFps": 200,
        "totalFrames": 59,
        "frameRates": 60
      },
      {
        "trial_number": 118,
        "trial_index": 719,
        "rt": 945,
        "correct": true,
        "response": "ArrowLeft",
        "congruent": true,
        "gazeTowards": true,
        "gazeCondition": "towards",
        "faceOnLeft": false,
        "impliedDirection": 180,
        "testDirection": 180,
        "avgFps": 59,
        "minFps": 26,
        "maxFps": 81,
        "totalFrames": 55,
        "frameRates": 59
      },
      {
        "trial_number": 119,
        "trial_index": 724,
        "rt": 1166,
        "correct": true,
        "response": "ArrowRight",
        "congruent": false,
        "gazeTowards": false,
        "gazeCondition": "away",
        "faceOnLeft": false,
        "impliedDirection": 180,
        "testDirection": 0,
        "avgFps": 60,
        "minFps": 58,
        "maxFps": 67,
        "totalFrames": 70,
        "frameRates": 60
      }
    ],
    "catch": {
      "total": 12,
      "correct": 12,
      "accuracy": 100,
      "meanRT": 1238,
      "trials": [
        {
          "trial_number": 0,
          "trial_index": 104,
          "rt": 2477,
          "correct": true,
          "colorTarget": "face",
          "gazeTowards": true,
          "gazeCondition": "towards",
          "faceOnLeft": false
        },
        {
          "trial_number": 1,
          "trial_index": 288,
          "rt": 1100,
          "correct": true,
          "colorTarget": "tree",
          "gazeTowards": true,
          "gazeCondition": "towards",
          "faceOnLeft": false
        },
        {
          "trial_number": 2,
          "trial_index": 371,
          "rt": 1569,
          "correct": true,
          "colorTarget": "face",
          "gazeTowards": true,
          "gazeCondition": "towards",
          "faceOnLeft": false
        },
        {
          "trial_number": 3,
          "trial_index": 379,
          "rt": 972,
          "correct": true,
          "colorTarget": "tree",
          "gazeTowards": false,
          "gazeCondition": "away",
          "faceOnLeft": false
        },
        {
          "trial_number": 4,
          "trial_index": 413,
          "rt": 773,
          "correct": true,
          "colorTarget": "tree",
          "gazeTowards": false,
          "gazeCondition": "away",
          "faceOnLeft": false
        },
        {
          "trial_number": 5,
          "trial_index": 436,
          "rt": 1125,
          "correct": true,
          "colorTarget": "face",
          "gazeTowards": true,
          "gazeCondition": "towards",
          "faceOnLeft": false
        },
        {
          "trial_number": 6,
          "trial_index": 529,
          "rt": 1555,
          "correct": true,
          "colorTarget": "face",
          "gazeTowards": false,
          "gazeCondition": "away",
          "faceOnLeft": true
        },
        {
          "trial_number": 7,
          "trial_index": 567,
          "rt": 1405,
          "correct": true,
          "colorTarget": "tree",
          "gazeTowards": true,
          "gazeCondition": "towards",
          "faceOnLeft": false
        },
        {
          "trial_number": 8,
          "trial_index": 616,
          "rt": 1071,
          "correct": true,
          "colorTarget": "face",
          "gazeTowards": false,
          "gazeCondition": "away",
          "faceOnLeft": true
        },
        {
          "trial_number": 9,
          "trial_index": 619,
          "rt": 878,
          "correct": true,
          "colorTarget": "tree",
          "gazeTowards": true,
          "gazeCondition": "towards",
          "faceOnLeft": true
        },
        {
          "trial_number": 10,
          "trial_index": 627,
          "rt": 818,
          "correct": true,
          "colorTarget": "tree",
          "gazeTowards": false,
          "gazeCondition": "away",
          "faceOnLeft": false
        },
        {
          "trial_number": 11,
          "trial_index": 700,
          "rt": 1107,
          "correct": true,
          "colorTarget": "face",
          "gazeTowards": true,
          "gazeCondition": "towards",
          "faceOnLeft": true
        }
      ]
    },
    "practice": {
      "trials": [
        {
          "trial_number": 0,
          "rt": null,
          "correct": false,
          "direction": 180
        },
        {
          "trial_number": 1,
          "rt": 1924,
          "correct": false,
          "direction": 180
        },
        {
          "trial_number": 2,
          "rt": 1480,
          "correct": true,
          "direction": 0
        },
        {
          "trial_number": 3,
          "rt": null,
          "correct": false,
          "direction": 0
        },
        {
          "trial_number": 4,
          "rt": 1248,
          "correct": true,
          "direction": 180
        },
        {
          "trial_number": 5,
          "rt": 1832,
          "correct": false,
          "direction": 180
        },
        {
          "trial_number": 6,
          "rt": 1685,
          "correct": true,
          "direction": 180
        },
        {
          "trial_number": 7,
          "rt": null,
          "correct": false,
          "direction": 180
        },
        {
          "trial_number": 8,
          "rt": 725,
          "correct": true,
          "direction": 180
        },
        {
          "trial_number": 9,
          "rt": 959,
          "correct": false,
          "direction": 180
        },
        {
          "trial_number": 10,
          "rt": 1668,
          "correct": false,
          "direction": 180
        },
        {
          "trial_number": 11,
          "rt": 977,
          "correct": true,
          "direction": 180
        },
        {
          "trial_number": 12,
          "rt": 1178,
          "correct": true,
          "direction": 0
        },
        {
          "trial_number": 13,
          "rt": 1461,
          "correct": true,
          "direction": 0
        },
        {
          "trial_number": 14,
          "rt": 656,
          "correct": true,
          "direction": 180
        },
        {
          "trial_number": 15,
          "rt": 766,
          "correct": true,
          "direction": 180
        },
        {
          "trial_number": 16,
          "rt": 1196,
          "correct": true,
          "direction": 180
        },
        {
          "trial_number": 17,
          "rt": 1495,
          "correct": true,
          "direction": 180
        },
        {
          "trial_number": 18,
          "rt": 1294,
          "correct": false,
          "direction": 180
        },
        {
          "trial_number": 19,
          "rt": 1148,
          "correct": true,
          "direction": 180
        }
      ],
      "meanRT": 1276,
      "accuracy": 60
    }
  }
}