{
  "experiment": "rdk-face-1",
  "UUID": "3b739cc2-54d1-4c09-acf6-f6228e865d78",
  "data": {
    "session": {
      "experiment_version": "1.8.6",
      "treatment": "faces_towards_away_catch",
      "file_version": "1.8.6",
      "totalTrials": 120,
      "totalTrialsIncludingCatch": 132,
      "conditions": {
        "gazeTowardsCount": 60,
        "gazeAwayCount": 60,
        "gazeTowardsAccuracy": 92,
        "gazeAwayAccuracy": 90
      },
      "session_group": "default",
      "browserData": {
        "os": "Windows",
        "browser": "Firefox",
        "screenResolution": "1920x1080",
        "browserViewport": "1920x1080",
        "devicePixelRatio": 1,
        "colorDepth": 24,
        "hardwareConcurrency": 12,
        "deviceMemory": "Unknown",
        "gpuRenderer": "ANGLE (NVIDIA, NVIDIA GeForce GTX 980 Direct3D11 vs_5_0 ps_5_0), or similar",
        "measuredRefreshRateHz": 135
      },
      "attention": {
        "visibilityEvents": [
          {
            "event": "focus",
            "state": "focused",
            "timestamp": 1772765460742
          },
          {
            "event": "blur",
            "state": "blurred",
            "timestamp": 1772765462090
          },
          {
            "event": "visibilitychange",
            "state": "hidden",
            "timestamp": 1772765462390
          },
          {
            "event": "focus",
            "state": "focused",
            "timestamp": 1772765463959
          },
          {
            "event": "visibilitychange",
            "state": "visible",
            "timestamp": 1772765463961
          },
          {
            "event": "blur",
            "state": "blurred",
            "timestamp": 1772765487940
          },
          {
            "event": "focus",
            "state": "focused",
            "timestamp": 1772765499040
          }
        ]
      },
      "calibration": {
        "monitorWidthCm": 38,
        "viewingDistanceCm": 54,
        "pixelsPerDegree": 50
      },
      "parameters": {
        "coherence": 0.4,
        "apertureDeg": 5,
        "densityDotsPerDeg2": 40,
        "dotDiameterDeg": 0.035,
        "dotSpeedDegPerSec": 3,
        "lifetimeMs": 200,
        "fixationDurationMs": 1500,
        "faceDurationMs": 1500,
        "testDurationMs": 2000,
        "catchResponseMs": 3000
      },
      "prolific": {
        "prolificPid": "699a21ddd9ed4b803325b480",
        "studyId": "",
        "sessionId": ""
      },
      "timing": {
        "startTime": "2026-03-06T02:50:52.340Z",
        "endTime": "2026-03-06T03:10:13.781Z",
        "totalElapsedTimeMs": 1161441
      }
    },
    "trials": [
      {
        "trial_number": 0,
        "trial_index": 49,
        "rt": 1324,
        "correct": true,
        "response": "ArrowRight",
        "congruent": false,
        "gazeTowards": false,
        "gazeCondition": "away",
        "faceOnLeft": false,
        "impliedDirection": 180,
        "testDirection": 0,
        "avgFps": 145,
        "minFps": 144,
        "maxFps": 4167,
        "totalFrames": 191,
        "frameRates": 145
      },
      {
        "trial_number": 1,
        "trial_index": 54,
        "rt": 1373,
        "correct": true,
        "response": "ArrowRight",
        "congruent": false,
        "gazeTowards": true,
        "gazeCondition": "towards",
        "faceOnLeft": false,
        "impliedDirection": 180,
        "testDirection": 0,
        "avgFps": 145,
        "minFps": 144,
        "maxFps": 1515,
        "totalFrames": 198,
        "frameRates": 145
      },
      {
        "trial_number": 2,
        "trial_index": 59,
        "rt": 976,
        "correct": true,
        "response": "ArrowLeft",
        "congruent": true,
        "gazeTowards": true,
        "gazeCondition": "towards",
        "faceOnLeft": false,
        "impliedDirection": 180,
        "testDirection": 180,
        "avgFps": 143,
        "minFps": 65,
        "maxFps": 3571,
        "totalFrames": 139,
        "frameRates": 143
      },
      {
        "trial_number": 3,
        "trial_index": 64,
        "rt": 1108,
        "correct": true,
        "response": "ArrowRight",
        "congruent": true,
        "gazeTowards": false,
        "gazeCondition": "away",
        "faceOnLeft": true,
        "impliedDirection": 0,
        "testDirection": 0,
        "avgFps": 145,
        "minFps": 144,
        "maxFps": 6250,
        "totalFrames": 160,
        "frameRates": 145
      },
      {
        "trial_number": 4,
        "trial_index": 69,
        "rt": 1314,
        "correct": true,
        "response": "ArrowLeft",
        "congruent": true,
        "gazeTowards": false,
        "gazeCondition": "away",
        "faceOnLeft": false,
        "impliedDirection": 180,
        "testDirection": 180,
        "avgFps": 145,
        "minFps": 144,
        "maxFps": 1351,
        "totalFrames": 190,
        "frameRates": 145
      },
      {
        "trial_number": 5,
        "trial_index": 74,
        "rt": 1003,
        "correct": true,
        "response": "ArrowRight",
        "congruent": true,
        "gazeTowards": false,
        "gazeCondition": "away",
        "faceOnLeft": true,
        "impliedDirection": 0,
        "testDirection": 0,
        "avgFps": 144,
        "minFps": 67,
        "maxFps": 5000,
        "totalFrames": 144,
        "frameRates": 144
      },
      {
        "trial_number": 6,
        "trial_index": 79,
        "rt": 894,
        "correct": true,
        "response": "ArrowLeft",
        "congruent": false,
        "gazeTowards": true,
        "gazeCondition": "towards",
        "faceOnLeft": true,
        "impliedDirection": 0,
        "testDirection": 180,
        "avgFps": 145,
        "minFps": 144,
        "maxFps": 3846,
        "totalFrames": 129,
        "frameRates": 145
      },
      {
        "trial_number": 7,
        "trial_index": 84,
        "rt": 1426,
        "correct": true,
        "response": "ArrowLeft",
        "congruent": false,
        "gazeTowards": false,
        "gazeCondition": "away",
        "faceOnLeft": true,
        "impliedDirection": 0,
        "testDirection": 180,
        "avgFps": 145,
        "minFps": 144,
        "maxFps": 6250,
        "totalFrames": 207,
        "frameRates": 145
      },
      {
        "trial_number": 8,
        "trial_index": 89,
        "rt": 622,
        "correct": true,
        "response": "ArrowRight",
        "congruent": true,
        "gazeTowards": true,
        "gazeCondition": "towards",
        "faceOnLeft": true,
        "impliedDirection": 0,
        "testDirection": 0,
        "avgFps": 146,
        "minFps": 144,
        "maxFps": 2632,
        "totalFrames": 90,
        "frameRates": 146
      },
      {
        "trial_number": 9,
        "trial_index": 94,
        "rt": 1051,
        "correct": true,
        "response": "ArrowRight",
        "congruent": true,
        "gazeTowards": false,
        "gazeCondition": "away",
        "faceOnLeft": true,
        "impliedDirection": 0,
        "testDirection": 0,
        "avgFps": 145,
        "minFps": 144,
        "maxFps": 515,
        "totalFrames": 152,
        "frameRates": 145
      },
      {
        "trial_number": 10,
        "trial_index": 102,
        "rt": 1835,
        "correct": false,
        "response": "ArrowRight",
        "congruent": true,
        "gazeTowards": true,
        "gazeCondition": "towards",
        "faceOnLeft": false,
        "impliedDirection": 180,
        "testDirection": 180,
        "avgFps": 145,
        "minFps": 144,
        "maxFps": 3846,
        "totalFrames": 265,
        "frameRates": 145
      },
      {
        "trial_number": 11,
        "trial_index": 107,
        "rt": 1178,
        "correct": true,
        "response": "ArrowRight",
        "congruent": false,
        "gazeTowards": false,
        "gazeCondition": "away",
        "faceOnLeft": false,
        "impliedDirection": 180,
        "testDirection": 0,
        "avgFps": 145,
        "minFps": 110,
        "maxFps": 4167,
        "totalFrames": 170,
        "frameRates": 145
      },
      {
        "trial_number": 12,
        "trial_index": 112,
        "rt": 1460,
        "correct": true,
        "response": "ArrowLeft",
        "congruent": false,
        "gazeTowards": false,
        "gazeCondition": "away",
        "faceOnLeft": true,
        "impliedDirection": 0,
        "testDirection": 180,
        "avgFps": 144,
        "minFps": 144,
        "maxFps": 459,
        "totalFrames": 211,
        "frameRates": 144
      },
      {
        "trial_number": 13,
        "trial_index": 117,
        "rt": 1645,
        "correct": false,
        "response": "ArrowRight",
        "congruent": true,
        "gazeTowards": true,
        "gazeCondition": "towards",
        "faceOnLeft": false,
        "impliedDirection": 180,
        "testDirection": 180,
        "avgFps": 145,
        "minFps": 144,
        "maxFps": 3333,
        "totalFrames": 238,
        "frameRates": 145
      },
      {
        "trial_number": 14,
        "trial_index": 122,
        "rt": 875,
        "correct": true,
        "response": "ArrowRight",
        "congruent": true,
        "gazeTowards": true,
        "gazeCondition": "towards",
        "faceOnLeft": true,
        "impliedDirection": 0,
        "testDirection": 0,
        "avgFps": 145,
        "minFps": 144,
        "maxFps": 549,
        "totalFrames": 126,
        "frameRates": 145
      },
      {
        "trial_number": 15,
        "trial_index": 130,
        "rt": 1481,
        "correct": true,
        "response": "ArrowRight",
        "congruent": false,
        "gazeTowards": false,
        "gazeCondition": "away",
        "faceOnLeft": false,
        "impliedDirection": 180,
        "testDirection": 0,
        "avgFps": 145,
        "minFps": 144,
        "maxFps": 2632,
        "totalFrames": 214,
        "frameRates": 145
      },
      {
        "trial_number": 16,
        "trial_index": 135,
        "rt": 859,
        "correct": true,
        "response": "ArrowRight",
        "congruent": false,
        "gazeTowards": true,
        "gazeCondition": "towards",
        "faceOnLeft": false,
        "impliedDirection": 180,
        "testDirection": 0,
        "avgFps": 146,
        "minFps": 144,
        "maxFps": 6250,
        "totalFrames": 125,
        "frameRates": 146
      },
      {
        "trial_number": 17,
        "trial_index": 140,
        "rt": 825,
        "correct": true,
        "response": "ArrowLeft",
        "congruent": true,
        "gazeTowards": true,
        "gazeCondition": "towards",
        "faceOnLeft": false,
        "impliedDirection": 180,
        "testDirection": 180,
        "avgFps": 145,
        "minFps": 111,
        "maxFps": 5556,
        "totalFrames": 119,
        "frameRates": 145
      },
      {
        "trial_number": 18,
        "trial_index": 145,
        "rt": null,
        "correct": false,
        "response": null,
        "congruent": true,
        "gazeTowards": true,
        "gazeCondition": "towards",
        "faceOnLeft": false,
        "impliedDirection": 180,
        "testDirection": 180,
        "avgFps": 145,
        "minFps": 144,
        "maxFps": 5000,
        "totalFrames": 290,
        "frameRates": 145
      },
      {
        "trial_number": 19,
        "trial_index": 153,
        "rt": 952,
        "correct": true,
        "response": "ArrowLeft",
        "congruent": false,
        "gazeTowards": true,
        "gazeCondition": "towards",
        "faceOnLeft": true,
        "impliedDirection": 0,
        "testDirection": 180,
        "avgFps": 145,
        "minFps": 144,
        "maxFps": 3846,
        "totalFrames": 138,
        "frameRates": 145
      },
      {
        "trial_number": 20,
        "trial_index": 161,
        "rt": 1653,
        "correct": true,
        "response": "ArrowRight",
        "congruent": true,
        "gazeTowards": true,
        "gazeCondition": "towards",
        "faceOnLeft": true,
        "impliedDirection": 0,
        "testDirection": 0,
        "avgFps": 145,
        "minFps": 144,
        "maxFps": 2632,
        "totalFrames": 239,
        "frameRates": 145
      },
      {
        "trial_number": 21,
        "trial_index": 166,
        "rt": 1494,
        "correct": true,
        "response": "ArrowRight",
        "congruent": false,
        "gazeTowards": true,
        "gazeCondition": "towards",
        "faceOnLeft": false,
        "impliedDirection": 180,
        "testDirection": 0,
        "avgFps": 145,
        "minFps": 144,
        "maxFps": 5000,
        "totalFrames": 216,
        "frameRates": 145
      },
      {
        "trial_number": 22,
        "trial_index": 171,
        "rt": 1079,
        "correct": true,
        "response": "ArrowLeft",
        "congruent": false,
        "gazeTowards": true,
        "gazeCondition": "towards",
        "faceOnLeft": true,
        "impliedDirection": 0,
        "testDirection": 180,
        "avgFps": 145,
        "minFps": 144,
        "maxFps": 3846,
        "totalFrames": 156,
        "frameRates": 145
      },
      {
        "trial_number": 23,
        "trial_index": 176,
        "rt": 1130,
        "correct": true,
        "response": "ArrowLeft",
        "congruent": true,
        "gazeTowards": true,
        "gazeCondition": "towards",
        "faceOnLeft": false,
        "impliedDirection": 180,
        "testDirection": 180,
        "avgFps": 145,
        "minFps": 144,
        "maxFps": 685,
        "totalFrames": 163,
        "frameRates": 145
      },
      {
        "trial_number": 24,
        "trial_index": 181,
        "rt": 1611,
        "correct": true,
        "response": "ArrowLeft",
        "congruent": true,
        "gazeTowards": true,
        "gazeCondition": "towards",
        "faceOnLeft": false,
        "impliedDirection": 180,
        "testDirection": 180,
        "avgFps": 145,
        "minFps": 144,
        "maxFps": 3846,
        "totalFrames": 233,
        "frameRates": 145
      },
      {
        "trial_number": 25,
        "trial_index": 186,
        "rt": 1620,
        "correct": true,
        "response": "ArrowLeft",
        "congruent": true,
        "gazeTowards": true,
        "gazeCondition": "towards",
        "faceOnLeft": false,
        "impliedDirection": 180,
        "testDirection": 180,
        "avgFps": 145,
        "minFps": 144,
        "maxFps": 581,
        "totalFrames": 234,
        "frameRates": 145
      },
      {
        "trial_number": 26,
        "trial_index": 191,
        "rt": 862,
        "correct": true,
        "response": "ArrowRight",
        "congruent": true,
        "gazeTowards": true,
        "gazeCondition": "towards",
        "faceOnLeft": true,
        "impliedDirection": 0,
        "testDirection": 0,
        "avgFps": 145,
        "minFps": 144,
        "maxFps": 1087,
        "totalFrames": 125,
        "frameRates": 145
      },
      {
        "trial_number": 27,
        "trial_index": 196,
        "rt": 848,
        "correct": true,
        "response": "ArrowRight",
        "congruent": false,
        "gazeTowards": false,
        "gazeCondition": "away",
        "faceOnLeft": false,
        "impliedDirection": 180,
        "testDirection": 0,
        "avgFps": 145,
        "minFps": 144,
        "maxFps": 2941,
        "totalFrames": 123,
        "frameRates": 145
      },
      {
        "trial_number": 28,
        "trial_index": 201,
        "rt": 935,
        "correct": true,
        "response": "ArrowLeft",
        "congruent": false,
        "gazeTowards": false,
        "gazeCondition": "away",
        "faceOnLeft": true,
        "impliedDirection": 0,
        "testDirection": 180,
        "avgFps": 145,
        "minFps": 116,
        "maxFps": 4545,
        "totalFrames": 135,
        "frameRates": 145
      },
      {
        "trial_number": 29,
        "trial_index": 207,
        "rt": 953,
        "correct": true,
        "response": "ArrowRight",
        "congruent": true,
        "gazeTowards": false,
        "gazeCondition": "away",
        "faceOnLeft": true,
        "impliedDirection": 0,
        "testDirection": 0,
        "avgFps": 146,
        "minFps": 144,
        "maxFps": 4167,
        "totalFrames": 138,
        "frameRates": 146
      },
      {
        "trial_number": 30,
        "trial_index": 212,
        "rt": 921,
        "correct": true,
        "response": "ArrowLeft",
        "congruent": false,
        "gazeTowards": true,
        "gazeCondition": "towards",
        "faceOnLeft": true,
        "impliedDirection": 0,
        "testDirection": 180,
        "avgFps": 144,
        "minFps": 67,
        "maxFps": 4545,
        "totalFrames": 132,
        "frameRates": 144
      },
      {
        "trial_number": 31,
        "trial_index": 217,
        "rt": 1213,
        "correct": true,
        "response": "ArrowLeft",
        "congruent": true,
        "gazeTowards": true,
        "gazeCondition": "towards",
        "faceOnLeft": false,
        "impliedDirection": 180,
        "testDirection": 180,
        "avgFps": 145,
        "minFps": 144,
        "maxFps": 1923,
        "totalFrames": 175,
        "frameRates": 145
      },
      {
        "trial_number": 32,
        "trial_index": 222,
        "rt": 1103,
        "correct": true,
        "response": "ArrowRight",
        "congruent": false,
        "gazeTowards": true,
        "gazeCondition": "towards",
        "faceOnLeft": false,
        "impliedDirection": 180,
        "testDirection": 0,
        "avgFps": 145,
        "minFps": 144,
        "maxFps": 2000,
        "totalFrames": 159,
        "frameRates": 145
      },
      {
        "trial_number": 33,
        "trial_index": 227,
        "rt": 811,
        "correct": true,
        "response": "ArrowLeft",
        "congruent": false,
        "gazeTowards": true,
        "gazeCondition": "towards",
        "faceOnLeft": true,
        "impliedDirection": 0,
        "testDirection": 180,
        "avgFps": 144,
        "minFps": 67,
        "maxFps": 4167,
        "totalFrames": 116,
        "frameRates": 144
      },
      {
        "trial_number": 34,
        "trial_index": 235,
        "rt": 976,
        "correct": true,
        "response": "ArrowLeft",
        "congruent": false,
        "gazeTowards": true,
        "gazeCondition": "towards",
        "faceOnLeft": true,
        "impliedDirection": 0,
        "testDirection": 180,
        "avgFps": 144,
        "minFps": 83,
        "maxFps": 5000,
        "totalFrames": 140,
        "frameRates": 144
      },
      {
        "trial_number": 35,
        "trial_index": 240,
        "rt": 840,
        "correct": true,
        "response": "ArrowRight",
        "congruent": false,
        "gazeTowards": true,
        "gazeCondition": "towards",
        "faceOnLeft": false,
        "impliedDirection": 180,
        "testDirection": 0,
        "avgFps": 145,
        "minFps": 144,
        "maxFps": 794,
        "totalFrames": 121,
        "frameRates": 145
      },
      {
        "trial_number": 36,
        "trial_index": 245,
        "rt": 760,
        "correct": true,
        "response": "ArrowLeft",
        "congruent": true,
        "gazeTowards": false,
        "gazeCondition": "away",
        "faceOnLeft": false,
        "impliedDirection": 180,
        "testDirection": 180,
        "avgFps": 146,
        "minFps": 144,
        "maxFps": 5000,
        "totalFrames": 110,
        "frameRates": 146
      },
      {
        "trial_number": 37,
        "trial_index": 250,
        "rt": 884,
        "correct": true,
        "response": "ArrowLeft",
        "congruent": true,
        "gazeTowards": false,
        "gazeCondition": "away",
        "faceOnLeft": false,
        "impliedDirection": 180,
        "testDirection": 180,
        "avgFps": 145,
        "minFps": 143,
        "maxFps": 4167,
        "totalFrames": 128,
        "frameRates": 145
      },
      {
        "trial_number": 38,
        "trial_index": 255,
        "rt": 1367,
        "correct": true,
        "response": "ArrowLeft",
        "congruent": false,
        "gazeTowards": false,
        "gazeCondition": "away",
        "faceOnLeft": true,
        "impliedDirection": 0,
        "testDirection": 180,
        "avgFps": 145,
        "minFps": 144,
        "maxFps": 3571,
        "totalFrames": 198,
        "frameRates": 145
      },
      {
        "trial_number": 39,
        "trial_index": 260,
        "rt": 1526,
        "correct": true,
        "response": "ArrowLeft",
        "congruent": false,
        "gazeTowards": true,
        "gazeCondition": "towards",
        "faceOnLeft": true,
        "impliedDirection": 0,
        "testDirection": 180,
        "avgFps": 145,
        "minFps": 144,
        "maxFps": 633,
        "totalFrames": 220,
        "frameRates": 145
      },
      {
        "trial_number": 40,
        "trial_index": 265,
        "rt": 1500,
        "correct": false,
        "response": "ArrowRight",
        "congruent": false,
        "gazeTowards": false,
        "gazeCondition": "away",
        "faceOnLeft": true,
        "impliedDirection": 0,
        "testDirection": 180,
        "avgFps": 144,
        "minFps": 98,
        "maxFps": 6250,
        "totalFrames": 216,
        "frameRates": 144
      },
      {
        "trial_number": 41,
        "trial_index": 270,
        "rt": 1019,
        "correct": true,
        "response": "ArrowRight",
        "congruent": false,
        "gazeTowards": false,
        "gazeCondition": "away",
        "faceOnLeft": false,
        "impliedDirection": 180,
        "testDirection": 0,
        "avgFps": 145,
        "minFps": 110,
        "maxFps": 7143,
        "totalFrames": 147,
        "frameRates": 145
      },
      {
        "trial_number": 42,
        "trial_index": 275,
        "rt": 908,
        "correct": true,
        "response": "ArrowLeft",
        "congruent": true,
        "gazeTowards": false,
        "gazeCondition": "away",
        "faceOnLeft": false,
        "impliedDirection": 180,
        "testDirection": 180,
        "avgFps": 146,
        "minFps": 144,
        "maxFps": 3571,
        "totalFrames": 132,
        "frameRates": 146
      },
      {
        "trial_number": 43,
        "trial_index": 280,
        "rt": 1008,
        "correct": true,
        "response": "ArrowLeft",
        "congruent": true,
        "gazeTowards": false,
        "gazeCondition": "away",
        "faceOnLeft": false,
        "impliedDirection": 180,
        "testDirection": 180,
        "avgFps": 146,
        "minFps": 144,
        "maxFps": 3846,
        "totalFrames": 146,
        "frameRates": 146
      },
      {
        "trial_number": 44,
        "trial_index": 285,
        "rt": 1304,
        "correct": true,
        "response": "ArrowLeft",
        "congruent": true,
        "gazeTowards": false,
        "gazeCondition": "away",
        "faceOnLeft": false,
        "impliedDirection": 180,
        "testDirection": 180,
        "avgFps": 145,
        "minFps": 144,
        "maxFps": 2941,
        "totalFrames": 188,
        "frameRates": 145
      },
      {
        "trial_number": 45,
        "trial_index": 290,
        "rt": 1781,
        "correct": false,
        "response": "ArrowLeft",
        "congruent": true,
        "gazeTowards": false,
        "gazeCondition": "away",
        "faceOnLeft": true,
        "impliedDirection": 0,
        "testDirection": 0,
        "avgFps": 145,
        "minFps": 144,
        "maxFps": 5000,
        "totalFrames": 257,
        "frameRates": 145
      },
      {
        "trial_number": 46,
        "trial_index": 295,
        "rt": 1027,
        "correct": true,
        "response": "ArrowRight",
        "congruent": true,
        "gazeTowards": true,
        "gazeCondition": "towards",
        "faceOnLeft": true,
        "impliedDirection": 0,
        "testDirection": 0,
        "avgFps": 145,
        "minFps": 144,
        "maxFps": 2083,
        "totalFrames": 149,
        "frameRates": 145
      },
      {
        "trial_number": 47,
        "trial_index": 303,
        "rt": null,
        "correct": false,
        "response": null,
        "congruent": true,
        "gazeTowards": false,
        "gazeCondition": "away",
        "faceOnLeft": true,
        "impliedDirection": 0,
        "testDirection": 0,
        "avgFps": 145,
        "minFps": 144,
        "maxFps": 3846,
        "totalFrames": 290,
        "frameRates": 145
      },
      {
        "trial_number": 48,
        "trial_index": 308,
        "rt": 992,
        "correct": true,
        "response": "ArrowRight",
        "congruent": false,
        "gazeTowards": false,
        "gazeCondition": "away",
        "faceOnLeft": false,
        "impliedDirection": 180,
        "testDirection": 0,
        "avgFps": 144,
        "minFps": 68,
        "maxFps": 3333,
        "totalFrames": 142,
        "frameRates": 144
      },
      {
        "trial_number": 49,
        "trial_index": 313,
        "rt": 763,
        "correct": true,
        "response": "ArrowRight",
        "congruent": true,
        "gazeTowards": true,
        "gazeCondition": "towards",
        "faceOnLeft": true,
        "impliedDirection": 0,
        "testDirection": 0,
        "avgFps": 146,
        "minFps": 144,
        "maxFps": 1562,
        "totalFrames": 111,
        "frameRates": 146
      },
      {
        "trial_number": 50,
        "trial_index": 318,
        "rt": 1350,
        "correct": true,
        "response": "ArrowRight",
        "congruent": false,
        "gazeTowards": false,
        "gazeCondition": "away",
        "faceOnLeft": false,
        "impliedDirection": 180,
        "testDirection": 0,
        "avgFps": 145,
        "minFps": 144,
        "maxFps": 446,
        "totalFrames": 195,
        "frameRates": 145
      },
      {
        "trial_number": 51,
        "trial_index": 323,
        "rt": null,
        "correct": false,
        "response": null,
        "congruent": true,
        "gazeTowards": true,
        "gazeCondition": "towards",
        "faceOnLeft": false,
        "impliedDirection": 180,
        "testDirection": 180,
        "avgFps": 144,
        "minFps": 114,
        "maxFps": 7143,
        "totalFrames": 289,
        "frameRates": 144
      },
      {
        "trial_number": 52,
        "trial_index": 328,
        "rt": 932,
        "correct": true,
        "response": "ArrowLeft",
        "congruent": true,
        "gazeTowards": true,
        "gazeCondition": "towards",
        "faceOnLeft": false,
        "impliedDirection": 180,
        "testDirection": 180,
        "avgFps": 145,
        "minFps": 144,
        "maxFps": 5556,
        "totalFrames": 135,
        "frameRates": 145
      },
      {
        "trial_number": 53,
        "trial_index": 333,
        "rt": 825,
        "correct": true,
        "response": "ArrowLeft",
        "congruent": false,
        "gazeTowards": true,
        "gazeCondition": "towards",
        "faceOnLeft": true,
        "impliedDirection": 0,
        "testDirection": 180,
        "avgFps": 146,
        "minFps": 144,
        "maxFps": 1163,
        "totalFrames": 120,
        "frameRates": 146
      },
      {
        "trial_number": 54,
        "trial_index": 341,
        "rt": 750,
        "correct": true,
        "response": "ArrowRight",
        "congruent": true,
        "gazeTowards": false,
        "gazeCondition": "away",
        "faceOnLeft": true,
        "impliedDirection": 0,
        "testDirection": 0,
        "avgFps": 146,
        "minFps": 144,
        "maxFps": 5000,
        "totalFrames": 109,
        "frameRates": 146
      },
      {
        "trial_number": 55,
        "trial_index": 346,
        "rt": 693,
        "correct": true,
        "response": "ArrowRight",
        "congruent": true,
        "gazeTowards": false,
        "gazeCondition": "away",
        "faceOnLeft": true,
        "impliedDirection": 0,
        "testDirection": 0,
        "avgFps": 146,
        "minFps": 144,
        "maxFps": 3571,
        "totalFrames": 101,
        "frameRates": 146
      },
      {
        "trial_number": 56,
        "trial_index": 351,
        "rt": 1009,
        "correct": true,
        "response": "ArrowRight",
        "congruent": true,
        "gazeTowards": false,
        "gazeCondition": "away",
        "faceOnLeft": true,
        "impliedDirection": 0,
        "testDirection": 0,
        "avgFps": 145,
        "minFps": 144,
        "maxFps": 2778,
        "totalFrames": 146,
        "frameRates": 145
      },
      {
        "trial_number": 57,
        "trial_index": 356,
        "rt": 846,
        "correct": true,
        "response": "ArrowLeft",
        "congruent": false,
        "gazeTowards": true,
        "gazeCondition": "towards",
        "faceOnLeft": true,
        "impliedDirection": 0,
        "testDirection": 180,
        "avgFps": 146,
        "minFps": 144,
        "maxFps": 5000,
        "totalFrames": 123,
        "frameRates": 146
      },
      {
        "trial_number": 58,
        "trial_index": 361,
        "rt": 1234,
        "correct": true,
        "response": "ArrowLeft",
        "congruent": true,
        "gazeTowards": true,
        "gazeCondition": "towards",
        "faceOnLeft": false,
        "impliedDirection": 180,
        "testDirection": 180,
        "avgFps": 145,
        "minFps": 144,
        "maxFps": 5556,
        "totalFrames": 179,
        "frameRates": 145
      },
      {
        "trial_number": 59,
        "trial_index": 367,
        "rt": 890,
        "correct": true,
        "response": "ArrowRight",
        "congruent": false,
        "gazeTowards": true,
        "gazeCondition": "towards",
        "faceOnLeft": false,
        "impliedDirection": 180,
        "testDirection": 0,
        "avgFps": 145,
        "minFps": 144,
        "maxFps": 781,
        "totalFrames": 129,
        "frameRates": 145
      },
      {
        "trial_number": 60,
        "trial_index": 372,
        "rt": 913,
        "correct": true,
        "response": "ArrowLeft",
        "congruent": true,
        "gazeTowards": false,
        "gazeCondition": "away",
        "faceOnLeft": false,
        "impliedDirection": 180,
        "testDirection": 180,
        "avgFps": 145,
        "minFps": 144,
        "maxFps": 2273,
        "totalFrames": 132,
        "frameRates": 145
      },
      {
        "trial_number": 61,
        "trial_index": 377,
        "rt": 766,
        "correct": true,
        "response": "ArrowRight",
        "congruent": false,
        "gazeTowards": false,
        "gazeCondition": "away",
        "faceOnLeft": false,
        "impliedDirection": 180,
        "testDirection": 0,
        "avgFps": 146,
        "minFps": 144,
        "maxFps": 3571,
        "totalFrames": 111,
        "frameRates": 146
      },
      {
        "trial_number": 62,
        "trial_index": 382,
        "rt": 813,
        "correct": true,
        "response": "ArrowRight",
        "congruent": false,
        "gazeTowards": true,
        "gazeCondition": "towards",
        "faceOnLeft": false,
        "impliedDirection": 180,
        "testDirection": 0,
        "avgFps": 145,
        "minFps": 144,
        "maxFps": 617,
        "totalFrames": 117,
        "frameRates": 145
      },
      {
        "trial_number": 63,
        "trial_index": 387,
        "rt": 1035,
        "correct": true,
        "response": "ArrowRight",
        "congruent": false,
        "gazeTowards": true,
        "gazeCondition": "towards",
        "faceOnLeft": false,
        "impliedDirection": 180,
        "testDirection": 0,
        "avgFps": 144,
        "minFps": 67,
        "maxFps": 5556,
        "totalFrames": 148,
        "frameRates": 144
      },
      {
        "trial_number": 64,
        "trial_index": 392,
        "rt": 1616,
        "correct": true,
        "response": "ArrowLeft",
        "congruent": true,
        "gazeTowards": true,
        "gazeCondition": "towards",
        "faceOnLeft": false,
        "impliedDirection": 180,
        "testDirection": 180,
        "avgFps": 144,
        "minFps": 72,
        "maxFps": 5000,
        "totalFrames": 232,
        "frameRates": 144
      },
      {
        "trial_number": 65,
        "trial_index": 397,
        "rt": 754,
        "correct": true,
        "response": "ArrowRight",
        "congruent": true,
        "gazeTowards": false,
        "gazeCondition": "away",
        "faceOnLeft": true,
        "impliedDirection": 0,
        "testDirection": 0,
        "avgFps": 146,
        "minFps": 144,
        "maxFps": 1667,
        "totalFrames": 109,
        "frameRates": 146
      },
      {
        "trial_number": 66,
        "trial_index": 402,
        "rt": 692,
        "correct": true,
        "response": "ArrowRight",
        "congruent": false,
        "gazeTowards": true,
        "gazeCondition": "towards",
        "faceOnLeft": false,
        "impliedDirection": 180,
        "testDirection": 0,
        "avgFps": 146,
        "minFps": 144,
        "maxFps": 8333,
        "totalFrames": 100,
        "frameRates": 146
      },
      {
        "trial_number": 67,
        "trial_index": 407,
        "rt": 597,
        "correct": true,
        "response": "ArrowLeft",
        "congruent": true,
        "gazeTowards": true,
        "gazeCondition": "towards",
        "faceOnLeft": false,
        "impliedDirection": 180,
        "testDirection": 180,
        "avgFps": 146,
        "minFps": 144,
        "maxFps": 5556,
        "totalFrames": 87,
        "frameRates": 146
      },
      {
        "trial_number": 68,
        "trial_index": 412,
        "rt": 846,
        "correct": true,
        "response": "ArrowRight",
        "congruent": true,
        "gazeTowards": true,
        "gazeCondition": "towards",
        "faceOnLeft": true,
        "impliedDirection": 0,
        "testDirection": 0,
        "avgFps": 146,
        "minFps": 144,
        "maxFps": 3571,
        "totalFrames": 123,
        "frameRates": 146
      },
      {
        "trial_number": 69,
        "trial_index": 417,
        "rt": 934,
        "correct": true,
        "response": "ArrowRight",
        "congruent": true,
        "gazeTowards": true,
        "gazeCondition": "towards",
        "faceOnLeft": true,
        "impliedDirection": 0,
        "testDirection": 0,
        "avgFps": 145,
        "minFps": 115,
        "maxFps": 3333,
        "totalFrames": 135,
        "frameRates": 145
      },
      {
        "trial_number": 70,
        "trial_index": 422,
        "rt": 918,
        "correct": true,
        "response": "ArrowRight",
        "congruent": false,
        "gazeTowards": false,
        "gazeCondition": "away",
        "faceOnLeft": false,
        "impliedDirection": 180,
        "testDirection": 0,
        "avgFps": 145,
        "minFps": 144,
        "maxFps": 602,
        "totalFrames": 133,
        "frameRates": 145
      },
      {
        "trial_number": 71,
        "trial_index": 427,
        "rt": 955,
        "correct": true,
        "response": "ArrowRight",
        "congruent": true,
        "gazeTowards": false,
        "gazeCondition": "away",
        "faceOnLeft": true,
        "impliedDirection": 0,
        "testDirection": 0,
        "avgFps": 144,
        "minFps": 60,
        "maxFps": 3333,
        "totalFrames": 137,
        "frameRates": 144
      },
      {
        "trial_number": 72,
        "trial_index": 432,
        "rt": 1546,
        "correct": true,
        "response": "ArrowRight",
        "congruent": false,
        "gazeTowards": false,
        "gazeCondition": "away",
        "faceOnLeft": false,
        "impliedDirection": 180,
        "testDirection": 0,
        "avgFps": 145,
        "minFps": 144,
        "maxFps": 5556,
        "totalFrames": 223,
        "frameRates": 145
      },
      {
        "trial_number": 73,
        "trial_index": 437,
        "rt": 1669,
        "correct": true,
        "response": "ArrowRight",
        "congruent": true,
        "gazeTowards": true,
        "gazeCondition": "towards",
        "faceOnLeft": true,
        "impliedDirection": 0,
        "testDirection": 0,
        "avgFps": 145,
        "minFps": 144,
        "maxFps": 3333,
        "totalFrames": 241,
        "frameRates": 145
      },
      {
        "trial_number": 74,
        "trial_index": 442,
        "rt": 925,
        "correct": true,
        "response": "ArrowLeft",
        "congruent": false,
        "gazeTowards": true,
        "gazeCondition": "towards",
        "faceOnLeft": true,
        "impliedDirection": 0,
        "testDirection": 180,
        "avgFps": 145,
        "minFps": 144,
        "maxFps": 4167,
        "totalFrames": 134,
        "frameRates": 145
      },
      {
        "trial_number": 75,
        "trial_index": 447,
        "rt": 1410,
        "correct": true,
        "response": "ArrowRight",
        "congruent": true,
        "gazeTowards": true,
        "gazeCondition": "towards",
        "faceOnLeft": true,
        "impliedDirection": 0,
        "testDirection": 0,
        "avgFps": 144,
        "minFps": 72,
        "maxFps": 4545,
        "totalFrames": 203,
        "frameRates": 144
      },
      {
        "trial_number": 76,
        "trial_index": 455,
        "rt": 909,
        "correct": true,
        "response": "ArrowLeft",
        "congruent": false,
        "gazeTowards": false,
        "gazeCondition": "away",
        "faceOnLeft": true,
        "impliedDirection": 0,
        "testDirection": 180,
        "avgFps": 146,
        "minFps": 144,
        "maxFps": 4545,
        "totalFrames": 132,
        "frameRates": 146
      },
      {
        "trial_number": 77,
        "trial_index": 460,
        "rt": 1352,
        "correct": true,
        "response": "ArrowLeft",
        "congruent": true,
        "gazeTowards": false,
        "gazeCondition": "away",
        "faceOnLeft": false,
        "impliedDirection": 180,
        "testDirection": 180,
        "avgFps": 145,
        "minFps": 144,
        "maxFps": 10000,
        "totalFrames": 196,
        "frameRates": 145
      },
      {
        "trial_number": 78,
        "trial_index": 465,
        "rt": 1632,
        "correct": false,
        "response": "ArrowRight",
        "congruent": false,
        "gazeTowards": false,
        "gazeCondition": "away",
        "faceOnLeft": true,
        "impliedDirection": 0,
        "testDirection": 180,
        "avgFps": 144,
        "minFps": 68,
        "maxFps": 3125,
        "totalFrames": 234,
        "frameRates": 144
      },
      {
        "trial_number": 79,
        "trial_index": 470,
        "rt": 1032,
        "correct": true,
        "response": "ArrowRight",
        "congruent": true,
        "gazeTowards": false,
        "gazeCondition": "away",
        "faceOnLeft": true,
        "impliedDirection": 0,
        "testDirection": 0,
        "avgFps": 144,
        "minFps": 80,
        "maxFps": 2941,
        "totalFrames": 148,
        "frameRates": 144
      },
      {
        "trial_number": 80,
        "trial_index": 475,
        "rt": 996,
        "correct": true,
        "response": "ArrowLeft",
        "congruent": true,
        "gazeTowards": false,
        "gazeCondition": "away",
        "faceOnLeft": false,
        "impliedDirection": 180,
        "testDirection": 180,
        "avgFps": 145,
        "minFps": 144,
        "maxFps": 4545,
        "totalFrames": 144,
        "frameRates": 145
      },
      {
        "trial_number": 81,
        "trial_index": 480,
        "rt": 1231,
        "correct": true,
        "response": "ArrowRight",
        "congruent": false,
        "gazeTowards": true,
        "gazeCondition": "towards",
        "faceOnLeft": false,
        "impliedDirection": 180,
        "testDirection": 0,
        "avgFps": 144,
        "minFps": 67,
        "maxFps": 8333,
        "totalFrames": 177,
        "frameRates": 144
      },
      {
        "trial_number": 82,
        "trial_index": 485,
        "rt": 746,
        "correct": true,
        "response": "ArrowLeft",
        "congruent": false,
        "gazeTowards": true,
        "gazeCondition": "towards",
        "faceOnLeft": true,
        "impliedDirection": 0,
        "testDirection": 180,
        "avgFps": 145,
        "minFps": 144,
        "maxFps": 4167,
        "totalFrames": 108,
        "frameRates": 145
      },
      {
        "trial_number": 83,
        "trial_index": 490,
        "rt": 758,
        "correct": true,
        "response": "ArrowLeft",
        "congruent": false,
        "gazeTowards": false,
        "gazeCondition": "away",
        "faceOnLeft": true,
        "impliedDirection": 0,
        "testDirection": 180,
        "avgFps": 146,
        "minFps": 144,
        "maxFps": 4545,
        "totalFrames": 110,
        "frameRates": 146
      },
      {
        "trial_number": 84,
        "trial_index": 501,
        "rt": 1271,
        "correct": true,
        "response": "ArrowLeft",
        "congruent": true,
        "gazeTowards": true,
        "gazeCondition": "towards",
        "faceOnLeft": false,
        "impliedDirection": 180,
        "testDirection": 180,
        "avgFps": 145,
        "minFps": 144,
        "maxFps": 8333,
        "totalFrames": 184,
        "frameRates": 145
      },
      {
        "trial_number": 85,
        "trial_index": 506,
        "rt": 1136,
        "correct": true,
        "response": "ArrowLeft",
        "congruent": true,
        "gazeTowards": false,
        "gazeCondition": "away",
        "faceOnLeft": false,
        "impliedDirection": 180,
        "testDirection": 180,
        "avgFps": 145,
        "minFps": 114,
        "maxFps": 6250,
        "totalFrames": 164,
        "frameRates": 145
      },
      {
        "trial_number": 86,
        "trial_index": 511,
        "rt": 1175,
        "correct": true,
        "response": "ArrowLeft",
        "congruent": false,
        "gazeTowards": true,
        "gazeCondition": "towards",
        "faceOnLeft": true,
        "impliedDirection": 0,
        "testDirection": 180,
        "avgFps": 145,
        "minFps": 144,
        "maxFps": 4167,
        "totalFrames": 170,
        "frameRates": 145
      },
      {
        "trial_number": 87,
        "trial_index": 516,
        "rt": 711,
        "correct": true,
        "response": "ArrowRight",
        "congruent": false,
        "gazeTowards": true,
        "gazeCondition": "towards",
        "faceOnLeft": false,
        "impliedDirection": 180,
        "testDirection": 0,
        "avgFps": 145,
        "minFps": 144,
        "maxFps": 5000,
        "totalFrames": 103,
        "frameRates": 145
      },
      {
        "trial_number": 88,
        "trial_index": 521,
        "rt": 1030,
        "correct": true,
        "response": "ArrowLeft",
        "congruent": true,
        "gazeTowards": false,
        "gazeCondition": "away",
        "faceOnLeft": false,
        "impliedDirection": 180,
        "testDirection": 180,
        "avgFps": 145,
        "minFps": 144,
        "maxFps": 5556,
        "totalFrames": 149,
        "frameRates": 145
      },
      {
        "trial_number": 89,
        "trial_index": 527,
        "rt": 984,
        "correct": true,
        "response": "ArrowLeft",
        "congruent": false,
        "gazeTowards": false,
        "gazeCondition": "away",
        "faceOnLeft": true,
        "impliedDirection": 0,
        "testDirection": 180,
        "avgFps": 145,
        "minFps": 144,
        "maxFps": 6250,
        "totalFrames": 143,
        "frameRates": 145
      },
      {
        "trial_number": 90,
        "trial_index": 532,
        "rt": 763,
        "correct": true,
        "response": "ArrowLeft",
        "congruent": false,
        "gazeTowards": false,
        "gazeCondition": "away",
        "faceOnLeft": true,
        "impliedDirection": 0,
        "testDirection": 180,
        "avgFps": 146,
        "minFps": 144,
        "maxFps": 5000,
        "totalFrames": 111,
        "frameRates": 146
      },
      {
        "trial_number": 91,
        "trial_index": 537,
        "rt": 842,
        "correct": true,
        "response": "ArrowLeft",
        "congruent": true,
        "gazeTowards": false,
        "gazeCondition": "away",
        "faceOnLeft": false,
        "impliedDirection": 180,
        "testDirection": 180,
        "avgFps": 146,
        "minFps": 144,
        "maxFps": 4545,
        "totalFrames": 122,
        "frameRates": 146
      },
      {
        "trial_number": 92,
        "trial_index": 542,
        "rt": 1231,
        "correct": true,
        "response": "ArrowRight",
        "congruent": true,
        "gazeTowards": true,
        "gazeCondition": "towards",
        "faceOnLeft": true,
        "impliedDirection": 0,
        "testDirection": 0,
        "avgFps": 144,
        "minFps": 67,
        "maxFps": 5556,
        "totalFrames": 177,
        "frameRates": 144
      },
      {
        "trial_number": 93,
        "trial_index": 550,
        "rt": 1190,
        "correct": false,
        "response": "ArrowRight",
        "congruent": false,
        "gazeTowards": false,
        "gazeCondition": "away",
        "faceOnLeft": true,
        "impliedDirection": 0,
        "testDirection": 180,
        "avgFps": 145,
        "minFps": 144,
        "maxFps": 4167,
        "totalFrames": 172,
        "frameRates": 145
      },
      {
        "trial_number": 94,
        "trial_index": 555,
        "rt": 1085,
        "correct": true,
        "response": "ArrowRight",
        "congruent": false,
        "gazeTowards": false,
        "gazeCondition": "away",
        "faceOnLeft": false,
        "impliedDirection": 180,
        "testDirection": 0,
        "avgFps": 145,
        "minFps": 144,
        "maxFps": 4545,
        "totalFrames": 157,
        "frameRates": 145
      },
      {
        "trial_number": 95,
        "trial_index": 560,
        "rt": 989,
        "correct": true,
        "response": "ArrowRight",
        "congruent": true,
        "gazeTowards": true,
        "gazeCondition": "towards",
        "faceOnLeft": true,
        "impliedDirection": 0,
        "testDirection": 0,
        "avgFps": 144,
        "minFps": 67,
        "maxFps": 3333,
        "totalFrames": 142,
        "frameRates": 144
      },
      {
        "trial_number": 96,
        "trial_index": 565,
        "rt": 704,
        "correct": true,
        "response": "ArrowLeft",
        "congruent": true,
        "gazeTowards": false,
        "gazeCondition": "away",
        "faceOnLeft": false,
        "impliedDirection": 180,
        "testDirection": 180,
        "avgFps": 146,
        "minFps": 144,
        "maxFps": 3846,
        "totalFrames": 102,
        "frameRates": 146
      },
      {
        "trial_number": 97,
        "trial_index": 570,
        "rt": 984,
        "correct": true,
        "response": "ArrowRight",
        "congruent": true,
        "gazeTowards": false,
        "gazeCondition": "away",
        "faceOnLeft": true,
        "impliedDirection": 0,
        "testDirection": 0,
        "avgFps": 144,
        "minFps": 94,
        "maxFps": 3846,
        "totalFrames": 142,
        "frameRates": 144
      },
      {
        "trial_number": 98,
        "trial_index": 575,
        "rt": 1046,
        "correct": true,
        "response": "ArrowLeft",
        "congruent": true,
        "gazeTowards": false,
        "gazeCondition": "away",
        "faceOnLeft": false,
        "impliedDirection": 180,
        "testDirection": 180,
        "avgFps": 143,
        "minFps": 65,
        "maxFps": 2083,
        "totalFrames": 149,
        "frameRates": 143
      },
      {
        "trial_number": 99,
        "trial_index": 580,
        "rt": 713,
        "correct": true,
        "response": "ArrowLeft",
        "congruent": false,
        "gazeTowards": true,
        "gazeCondition": "towards",
        "faceOnLeft": true,
        "impliedDirection": 0,
        "testDirection": 180,
        "avgFps": 145,
        "minFps": 103,
        "maxFps": 8333,
        "totalFrames": 103,
        "frameRates": 145
      },
      {
        "trial_number": 100,
        "trial_index": 585,
        "rt": 924,
        "correct": true,
        "response": "ArrowLeft",
        "congruent": false,
        "gazeTowards": false,
        "gazeCondition": "away",
        "faceOnLeft": true,
        "impliedDirection": 0,
        "testDirection": 180,
        "avgFps": 145,
        "minFps": 144,
        "maxFps": 4167,
        "totalFrames": 134,
        "frameRates": 145
      },
      {
        "trial_number": 101,
        "trial_index": 590,
        "rt": 987,
        "correct": true,
        "response": "ArrowLeft",
        "congruent": true,
        "gazeTowards": false,
        "gazeCondition": "away",
        "faceOnLeft": false,
        "impliedDirection": 180,
        "testDirection": 180,
        "avgFps": 145,
        "minFps": 144,
        "maxFps": 1389,
        "totalFrames": 143,
        "frameRates": 145
      },
      {
        "trial_number": 102,
        "trial_index": 595,
        "rt": 758,
        "correct": true,
        "response": "ArrowLeft",
        "congruent": false,
        "gazeTowards": true,
        "gazeCondition": "towards",
        "faceOnLeft": true,
        "impliedDirection": 0,
        "testDirection": 180,
        "avgFps": 145,
        "minFps": 144,
        "maxFps": 658,
        "totalFrames": 110,
        "frameRates": 145
      },
      {
        "trial_number": 103,
        "trial_index": 600,
        "rt": 902,
        "correct": true,
        "response": "ArrowRight",
        "congruent": false,
        "gazeTowards": true,
        "gazeCondition": "towards",
        "faceOnLeft": false,
        "impliedDirection": 180,
        "testDirection": 0,
        "avgFps": 145,
        "minFps": 144,
        "maxFps": 794,
        "totalFrames": 130,
        "frameRates": 145
      },
      {
        "trial_number": 104,
        "trial_index": 605,
        "rt": 1010,
        "correct": true,
        "response": "ArrowLeft",
        "congruent": false,
        "gazeTowards": false,
        "gazeCondition": "away",
        "faceOnLeft": true,
        "impliedDirection": 0,
        "testDirection": 180,
        "avgFps": 145,
        "minFps": 144,
        "maxFps": 4167,
        "totalFrames": 146,
        "frameRates": 145
      },
      {
        "trial_number": 105,
        "trial_index": 610,
        "rt": 810,
        "correct": true,
        "response": "ArrowLeft",
        "congruent": false,
        "gazeTowards": false,
        "gazeCondition": "away",
        "faceOnLeft": true,
        "impliedDirection": 0,
        "testDirection": 180,
        "avgFps": 143,
        "minFps": 47,
        "maxFps": 3125,
        "totalFrames": 115,
        "frameRates": 143
      },
      {
        "trial_number": 106,
        "trial_index": 615,
        "rt": 1095,
        "correct": true,
        "response": "ArrowLeft",
        "congruent": true,
        "gazeTowards": false,
        "gazeCondition": "away",
        "faceOnLeft": false,
        "impliedDirection": 180,
        "testDirection": 180,
        "avgFps": 145,
        "minFps": 144,
        "maxFps": 3571,
        "totalFrames": 158,
        "frameRates": 145
      },
      {
        "trial_number": 107,
        "trial_index": 623,
        "rt": 1719,
        "correct": true,
        "response": "ArrowRight",
        "congruent": false,
        "gazeTowards": false,
        "gazeCondition": "away",
        "faceOnLeft": false,
        "impliedDirection": 180,
        "testDirection": 0,
        "avgFps": 145,
        "minFps": 144,
        "maxFps": 2632,
        "totalFrames": 248,
        "frameRates": 145
      },
      {
        "trial_number": 108,
        "trial_index": 628,
        "rt": 1142,
        "correct": true,
        "response": "ArrowRight",
        "congruent": false,
        "gazeTowards": false,
        "gazeCondition": "away",
        "faceOnLeft": false,
        "impliedDirection": 180,
        "testDirection": 0,
        "avgFps": 145,
        "minFps": 144,
        "maxFps": 2632,
        "totalFrames": 165,
        "frameRates": 145
      },
      {
        "trial_number": 109,
        "trial_index": 633,
        "rt": 1492,
        "correct": true,
        "response": "ArrowRight",
        "congruent": true,
        "gazeTowards": false,
        "gazeCondition": "away",
        "faceOnLeft": true,
        "impliedDirection": 0,
        "testDirection": 0,
        "avgFps": 144,
        "minFps": 98,
        "maxFps": 3846,
        "totalFrames": 215,
        "frameRates": 144
      },
      {
        "trial_number": 110,
        "trial_index": 638,
        "rt": 1952,
        "correct": true,
        "response": "ArrowLeft",
        "congruent": true,
        "gazeTowards": true,
        "gazeCondition": "towards",
        "faceOnLeft": false,
        "impliedDirection": 180,
        "testDirection": 180,
        "avgFps": 144,
        "minFps": 144,
        "maxFps": 556,
        "totalFrames": 281,
        "frameRates": 144
      },
      {
        "trial_number": 111,
        "trial_index": 643,
        "rt": 1262,
        "correct": true,
        "response": "ArrowRight",
        "congruent": false,
        "gazeTowards": false,
        "gazeCondition": "away",
        "faceOnLeft": false,
        "impliedDirection": 180,
        "testDirection": 0,
        "avgFps": 145,
        "minFps": 144,
        "maxFps": 5000,
        "totalFrames": 182,
        "frameRates": 145
      },
      {
        "trial_number": 112,
        "trial_index": 648,
        "rt": 1168,
        "correct": true,
        "response": "ArrowRight",
        "congruent": true,
        "gazeTowards": true,
        "gazeCondition": "towards",
        "faceOnLeft": true,
        "impliedDirection": 0,
        "testDirection": 0,
        "avgFps": 145,
        "minFps": 144,
        "maxFps": 7143,
        "totalFrames": 169,
        "frameRates": 145
      },
      {
        "trial_number": 113,
        "trial_index": 653,
        "rt": 1814,
        "correct": true,
        "response": "ArrowRight",
        "congruent": false,
        "gazeTowards": true,
        "gazeCondition": "towards",
        "faceOnLeft": false,
        "impliedDirection": 180,
        "testDirection": 0,
        "avgFps": 145,
        "minFps": 144,
        "maxFps": 7143,
        "totalFrames": 262,
        "frameRates": 145
      },
      {
        "trial_number": 114,
        "trial_index": 658,
        "rt": null,
        "correct": false,
        "response": null,
        "congruent": false,
        "gazeTowards": false,
        "gazeCondition": "away",
        "faceOnLeft": false,
        "impliedDirection": 180,
        "testDirection": 0,
        "avgFps": 145,
        "minFps": 144,
        "maxFps": 5556,
        "totalFrames": 290,
        "frameRates": 145
      },
      {
        "trial_number": 115,
        "trial_index": 663,
        "rt": 901,
        "correct": true,
        "response": "ArrowRight",
        "congruent": false,
        "gazeTowards": true,
        "gazeCondition": "towards",
        "faceOnLeft": false,
        "impliedDirection": 180,
        "testDirection": 0,
        "avgFps": 145,
        "minFps": 144,
        "maxFps": 3846,
        "totalFrames": 130,
        "frameRates": 145
      },
      {
        "trial_number": 116,
        "trial_index": 668,
        "rt": 1389,
        "correct": true,
        "response": "ArrowRight",
        "congruent": false,
        "gazeTowards": true,
        "gazeCondition": "towards",
        "faceOnLeft": false,
        "impliedDirection": 180,
        "testDirection": 0,
        "avgFps": 145,
        "minFps": 144,
        "maxFps": 3846,
        "totalFrames": 201,
        "frameRates": 145
      },
      {
        "trial_number": 117,
        "trial_index": 673,
        "rt": 979,
        "correct": true,
        "response": "ArrowRight",
        "congruent": true,
        "gazeTowards": true,
        "gazeCondition": "towards",
        "faceOnLeft": true,
        "impliedDirection": 0,
        "testDirection": 0,
        "avgFps": 144,
        "minFps": 80,
        "maxFps": 2941,
        "totalFrames": 141,
        "frameRates": 144
      },
      {
        "trial_number": 118,
        "trial_index": 678,
        "rt": 689,
        "correct": true,
        "response": "ArrowRight",
        "congruent": false,
        "gazeTowards": false,
        "gazeCondition": "away",
        "faceOnLeft": false,
        "impliedDirection": 180,
        "testDirection": 0,
        "avgFps": 146,
        "minFps": 144,
        "maxFps": 4545,
        "totalFrames": 100,
        "frameRates": 146
      },
      {
        "trial_number": 119,
        "trial_index": 683,
        "rt": 883,
        "correct": false,
        "response": "ArrowRight",
        "congruent": false,
        "gazeTowards": true,
        "gazeCondition": "towards",
        "faceOnLeft": true,
        "impliedDirection": 0,
        "testDirection": 180,
        "avgFps": 145,
        "minFps": 144,
        "maxFps": 3571,
        "totalFrames": 128,
        "frameRates": 145
      }
    ],
    "catch": {
      "total": 12,
      "correct": 12,
      "accuracy": 100,
      "meanRT": 799,
      "trials": [
        {
          "trial_number": 0,
          "trial_index": 98,
          "rt": 793,
          "correct": true,
          "colorTarget": "tree",
          "gazeTowards": false,
          "gazeCondition": "away",
          "faceOnLeft": true
        },
        {
          "trial_number": 1,
          "trial_index": 126,
          "rt": 808,
          "correct": true,
          "colorTarget": "tree",
          "gazeTowards": true,
          "gazeCondition": "towards",
          "faceOnLeft": false
        },
        {
          "trial_number": 2,
          "trial_index": 149,
          "rt": 578,
          "correct": true,
          "colorTarget": "face",
          "gazeTowards": true,
          "gazeCondition": "towards",
          "faceOnLeft": true
        },
        {
          "trial_number": 3,
          "trial_index": 157,
          "rt": 756,
          "correct": true,
          "colorTarget": "face",
          "gazeTowards": true,
          "gazeCondition": "towards",
          "faceOnLeft": false
        },
        {
          "trial_number": 4,
          "trial_index": 231,
          "rt": 617,
          "correct": true,
          "colorTarget": "face",
          "gazeTowards": true,
          "gazeCondition": "towards",
          "faceOnLeft": false
        },
        {
          "trial_number": 5,
          "trial_index": 299,
          "rt": 597,
          "correct": true,
          "colorTarget": "tree",
          "gazeTowards": false,
          "gazeCondition": "away",
          "faceOnLeft": false
        },
        {
          "trial_number": 6,
          "trial_index": 337,
          "rt": 953,
          "correct": true,
          "colorTarget": "tree",
          "gazeTowards": false,
          "gazeCondition": "away",
          "faceOnLeft": false
        },
        {
          "trial_number": 7,
          "trial_index": 451,
          "rt": 944,
          "correct": true,
          "colorTarget": "face",
          "gazeTowards": false,
          "gazeCondition": "away",
          "faceOnLeft": false
        },
        {
          "trial_number": 8,
          "trial_index": 494,
          "rt": 1099,
          "correct": true,
          "colorTarget": "face",
          "gazeTowards": false,
          "gazeCondition": "away",
          "faceOnLeft": false
        },
        {
          "trial_number": 9,
          "trial_index": 497,
          "rt": 852,
          "correct": true,
          "colorTarget": "tree",
          "gazeTowards": false,
          "gazeCondition": "away",
          "faceOnLeft": false
        },
        {
          "trial_number": 10,
          "trial_index": 546,
          "rt": 530,
          "correct": true,
          "colorTarget": "face",
          "gazeTowards": true,
          "gazeCondition": "towards",
          "faceOnLeft": true
        },
        {
          "trial_number": 11,
          "trial_index": 619,
          "rt": 1059,
          "correct": true,
          "colorTarget": "tree",
          "gazeTowards": false,
          "gazeCondition": "away",
          "faceOnLeft": true
        }
      ]
    },
    "practice": {
      "trials": [
        {
          "trial_number": 0,
          "rt": null,
          "correct": false,
          "direction": 0
        },
        {
          "trial_number": 1,
          "rt": 903,
          "correct": true,
          "direction": 180
        },
        {
          "trial_number": 2,
          "rt": 982,
          "correct": true,
          "direction": 180
        },
        {
          "trial_number": 3,
          "rt": 733,
          "correct": true,
          "direction": 0
        },
        {
          "trial_number": 4,
          "rt": 983,
          "correct": true,
          "direction": 0
        },
        {
          "trial_number": 5,
          "rt": 1179,
          "correct": true,
          "direction": 180
        },
        {
          "trial_number": 6,
          "rt": 1108,
          "correct": true,
          "direction": 0
        },
        {
          "trial_number": 7,
          "rt": 742,
          "correct": true,
          "direction": 180
        },
        {
          "trial_number": 8,
          "rt": 993,
          "correct": true,
          "direction": 0
        },
        {
          "trial_number": 9,
          "rt": 829,
          "correct": true,
          "direction": 0
        }
      ],
      "meanRT": 939,
      "accuracy": 90
    }
  }
}