{
  "experiment": "rdk-face-1",
  "UUID": "ff1d9470-8c48-4805-94ff-ddd89eebd8b4",
  "data": {
    "session": {
      "experiment_version": "1.8.6",
      "treatment": "faces_towards_away_catch",
      "file_version": "1.8.6",
      "totalTrials": 120,
      "totalTrialsIncludingCatch": 132,
      "conditions": {
        "gazeTowardsCount": 60,
        "gazeAwayCount": 60,
        "gazeTowardsAccuracy": 77,
        "gazeAwayAccuracy": 75
      },
      "session_group": "default",
      "browserData": {
        "os": "Mac",
        "browser": "Chrome",
        "screenResolution": "1512x982",
        "browserViewport": "1512x949",
        "devicePixelRatio": 2,
        "colorDepth": 30,
        "hardwareConcurrency": 11,
        "deviceMemory": 8,
        "gpuRenderer": "ANGLE (Apple, ANGLE Metal Renderer: Apple M3 Pro, Unspecified Version)",
        "measuredRefreshRateHz": 82
      },
      "attention": {
        "visibilityEvents": []
      },
      "calibration": {
        "monitorWidthCm": 38,
        "viewingDistanceCm": 54,
        "pixelsPerDegree": 50
      },
      "parameters": {
        "coherence": 0.4,
        "apertureDeg": 5,
        "densityDotsPerDeg2": 40,
        "dotDiameterDeg": 0.035,
        "dotSpeedDegPerSec": 3,
        "lifetimeMs": 200,
        "fixationDurationMs": 1500,
        "faceDurationMs": 1500,
        "testDurationMs": 2000,
        "catchResponseMs": 3000
      },
      "prolific": {
        "prolificPid": "66b43ee75b3b682a32ce83f5",
        "studyId": "",
        "sessionId": ""
      },
      "timing": {
        "startTime": "2026-03-06T06:08:16.998Z",
        "endTime": "2026-03-06T06:24:02.032Z",
        "totalElapsedTimeMs": 945034
      }
    },
    "trials": [
      {
        "trial_number": 0,
        "trial_index": 131,
        "rt": 951,
        "correct": true,
        "response": "ArrowRight",
        "congruent": true,
        "gazeTowards": false,
        "gazeCondition": "away",
        "faceOnLeft": true,
        "impliedDirection": 0,
        "testDirection": 0,
        "avgFps": 120,
        "minFps": 106,
        "maxFps": 135,
        "totalFrames": 114,
        "frameRates": 120
      },
      {
        "trial_number": 1,
        "trial_index": 136,
        "rt": 826,
        "correct": true,
        "response": "ArrowRight",
        "congruent": false,
        "gazeTowards": false,
        "gazeCondition": "away",
        "faceOnLeft": false,
        "impliedDirection": 180,
        "testDirection": 0,
        "avgFps": 120,
        "minFps": 109,
        "maxFps": 132,
        "totalFrames": 99,
        "frameRates": 120
      },
      {
        "trial_number": 2,
        "trial_index": 141,
        "rt": 690,
        "correct": false,
        "response": "ArrowLeft",
        "congruent": true,
        "gazeTowards": true,
        "gazeCondition": "towards",
        "faceOnLeft": true,
        "impliedDirection": 0,
        "testDirection": 0,
        "avgFps": 121,
        "minFps": 106,
        "maxFps": 20000,
        "totalFrames": 83,
        "frameRates": 121
      },
      {
        "trial_number": 3,
        "trial_index": 146,
        "rt": 638,
        "correct": true,
        "response": "ArrowRight",
        "congruent": false,
        "gazeTowards": false,
        "gazeCondition": "away",
        "faceOnLeft": false,
        "impliedDirection": 180,
        "testDirection": 0,
        "avgFps": 120,
        "minFps": 106,
        "maxFps": 137,
        "totalFrames": 76,
        "frameRates": 120
      },
      {
        "trial_number": 4,
        "trial_index": 151,
        "rt": 645,
        "correct": true,
        "response": "ArrowRight",
        "congruent": true,
        "gazeTowards": false,
        "gazeCondition": "away",
        "faceOnLeft": true,
        "impliedDirection": 0,
        "testDirection": 0,
        "avgFps": 120,
        "minFps": 106,
        "maxFps": 132,
        "totalFrames": 77,
        "frameRates": 120
      },
      {
        "trial_number": 5,
        "trial_index": 156,
        "rt": 850,
        "correct": false,
        "response": "ArrowLeft",
        "congruent": true,
        "gazeTowards": false,
        "gazeCondition": "away",
        "faceOnLeft": true,
        "impliedDirection": 0,
        "testDirection": 0,
        "avgFps": 120,
        "minFps": 106,
        "maxFps": 135,
        "totalFrames": 102,
        "frameRates": 120
      },
      {
        "trial_number": 6,
        "trial_index": 161,
        "rt": 744,
        "correct": true,
        "response": "ArrowLeft",
        "congruent": true,
        "gazeTowards": true,
        "gazeCondition": "towards",
        "faceOnLeft": false,
        "impliedDirection": 180,
        "testDirection": 180,
        "avgFps": 120,
        "minFps": 106,
        "maxFps": 137,
        "totalFrames": 89,
        "frameRates": 120
      },
      {
        "trial_number": 7,
        "trial_index": 166,
        "rt": 590,
        "correct": true,
        "response": "ArrowRight",
        "congruent": false,
        "gazeTowards": false,
        "gazeCondition": "away",
        "faceOnLeft": false,
        "impliedDirection": 180,
        "testDirection": 0,
        "avgFps": 120,
        "minFps": 106,
        "maxFps": 133,
        "totalFrames": 71,
        "frameRates": 120
      },
      {
        "trial_number": 8,
        "trial_index": 171,
        "rt": 608,
        "correct": true,
        "response": "ArrowLeft",
        "congruent": false,
        "gazeTowards": true,
        "gazeCondition": "towards",
        "faceOnLeft": true,
        "impliedDirection": 0,
        "testDirection": 180,
        "avgFps": 120,
        "minFps": 108,
        "maxFps": 133,
        "totalFrames": 73,
        "frameRates": 120
      },
      {
        "trial_number": 9,
        "trial_index": 176,
        "rt": 625,
        "correct": true,
        "response": "ArrowRight",
        "congruent": true,
        "gazeTowards": true,
        "gazeCondition": "towards",
        "faceOnLeft": true,
        "impliedDirection": 0,
        "testDirection": 0,
        "avgFps": 122,
        "minFps": 109,
        "maxFps": 16667,
        "totalFrames": 75,
        "frameRates": 122
      },
      {
        "trial_number": 10,
        "trial_index": 181,
        "rt": 555,
        "correct": true,
        "response": "ArrowLeft",
        "congruent": true,
        "gazeTowards": false,
        "gazeCondition": "away",
        "faceOnLeft": false,
        "impliedDirection": 180,
        "testDirection": 180,
        "avgFps": 120,
        "minFps": 109,
        "maxFps": 133,
        "totalFrames": 66,
        "frameRates": 120
      },
      {
        "trial_number": 11,
        "trial_index": 186,
        "rt": 563,
        "correct": true,
        "response": "ArrowRight",
        "congruent": true,
        "gazeTowards": false,
        "gazeCondition": "away",
        "faceOnLeft": true,
        "impliedDirection": 0,
        "testDirection": 0,
        "avgFps": 120,
        "minFps": 108,
        "maxFps": 137,
        "totalFrames": 68,
        "frameRates": 120
      },
      {
        "trial_number": 12,
        "trial_index": 194,
        "rt": 665,
        "correct": true,
        "response": "ArrowLeft",
        "congruent": false,
        "gazeTowards": true,
        "gazeCondition": "towards",
        "faceOnLeft": true,
        "impliedDirection": 0,
        "testDirection": 180,
        "avgFps": 120,
        "minFps": 106,
        "maxFps": 137,
        "totalFrames": 80,
        "frameRates": 120
      },
      {
        "trial_number": 13,
        "trial_index": 199,
        "rt": 863,
        "correct": false,
        "response": "ArrowRight",
        "congruent": true,
        "gazeTowards": false,
        "gazeCondition": "away",
        "faceOnLeft": false,
        "impliedDirection": 180,
        "testDirection": 180,
        "avgFps": 120,
        "minFps": 106,
        "maxFps": 137,
        "totalFrames": 103,
        "frameRates": 120
      },
      {
        "trial_number": 14,
        "trial_index": 204,
        "rt": 1039,
        "correct": true,
        "response": "ArrowRight",
        "congruent": false,
        "gazeTowards": true,
        "gazeCondition": "towards",
        "faceOnLeft": false,
        "impliedDirection": 180,
        "testDirection": 0,
        "avgFps": 120,
        "minFps": 108,
        "maxFps": 133,
        "totalFrames": 125,
        "frameRates": 120
      },
      {
        "trial_number": 15,
        "trial_index": 212,
        "rt": 644,
        "correct": true,
        "response": "ArrowRight",
        "congruent": false,
        "gazeTowards": true,
        "gazeCondition": "towards",
        "faceOnLeft": false,
        "impliedDirection": 180,
        "testDirection": 0,
        "avgFps": 120,
        "minFps": 108,
        "maxFps": 135,
        "totalFrames": 76,
        "frameRates": 120
      },
      {
        "trial_number": 16,
        "trial_index": 217,
        "rt": 873,
        "correct": true,
        "response": "ArrowRight",
        "congruent": false,
        "gazeTowards": true,
        "gazeCondition": "towards",
        "faceOnLeft": false,
        "impliedDirection": 180,
        "testDirection": 0,
        "avgFps": 120,
        "minFps": 110,
        "maxFps": 132,
        "totalFrames": 105,
        "frameRates": 120
      },
      {
        "trial_number": 17,
        "trial_index": 225,
        "rt": 671,
        "correct": true,
        "response": "ArrowLeft",
        "congruent": true,
        "gazeTowards": true,
        "gazeCondition": "towards",
        "faceOnLeft": false,
        "impliedDirection": 180,
        "testDirection": 180,
        "avgFps": 120,
        "minFps": 108,
        "maxFps": 133,
        "totalFrames": 81,
        "frameRates": 120
      },
      {
        "trial_number": 18,
        "trial_index": 230,
        "rt": 875,
        "correct": false,
        "response": "ArrowRight",
        "congruent": false,
        "gazeTowards": true,
        "gazeCondition": "towards",
        "faceOnLeft": true,
        "impliedDirection": 0,
        "testDirection": 180,
        "avgFps": 120,
        "minFps": 106,
        "maxFps": 137,
        "totalFrames": 105,
        "frameRates": 120
      },
      {
        "trial_number": 19,
        "trial_index": 235,
        "rt": 656,
        "correct": true,
        "response": "ArrowRight",
        "congruent": false,
        "gazeTowards": false,
        "gazeCondition": "away",
        "faceOnLeft": false,
        "impliedDirection": 180,
        "testDirection": 0,
        "avgFps": 120,
        "minFps": 108,
        "maxFps": 133,
        "totalFrames": 79,
        "frameRates": 120
      },
      {
        "trial_number": 20,
        "trial_index": 240,
        "rt": 516,
        "correct": true,
        "response": "ArrowLeft",
        "congruent": false,
        "gazeTowards": true,
        "gazeCondition": "towards",
        "faceOnLeft": true,
        "impliedDirection": 0,
        "testDirection": 180,
        "avgFps": 120,
        "minFps": 108,
        "maxFps": 133,
        "totalFrames": 62,
        "frameRates": 120
      },
      {
        "trial_number": 21,
        "trial_index": 245,
        "rt": 638,
        "correct": true,
        "response": "ArrowRight",
        "congruent": false,
        "gazeTowards": false,
        "gazeCondition": "away",
        "faceOnLeft": false,
        "impliedDirection": 180,
        "testDirection": 0,
        "avgFps": 120,
        "minFps": 108,
        "maxFps": 133,
        "totalFrames": 77,
        "frameRates": 120
      },
      {
        "trial_number": 22,
        "trial_index": 250,
        "rt": 1402,
        "correct": true,
        "response": "ArrowRight",
        "congruent": true,
        "gazeTowards": true,
        "gazeCondition": "towards",
        "faceOnLeft": true,
        "impliedDirection": 0,
        "testDirection": 0,
        "avgFps": 120,
        "minFps": 106,
        "maxFps": 137,
        "totalFrames": 168,
        "frameRates": 120
      },
      {
        "trial_number": 23,
        "trial_index": 255,
        "rt": 780,
        "correct": true,
        "response": "ArrowRight",
        "congruent": true,
        "gazeTowards": true,
        "gazeCondition": "towards",
        "faceOnLeft": true,
        "impliedDirection": 0,
        "testDirection": 0,
        "avgFps": 120,
        "minFps": 108,
        "maxFps": 135,
        "totalFrames": 94,
        "frameRates": 120
      },
      {
        "trial_number": 24,
        "trial_index": 260,
        "rt": 1003,
        "correct": false,
        "response": "ArrowRight",
        "congruent": true,
        "gazeTowards": true,
        "gazeCondition": "towards",
        "faceOnLeft": false,
        "impliedDirection": 180,
        "testDirection": 180,
        "avgFps": 120,
        "minFps": 108,
        "maxFps": 135,
        "totalFrames": 120,
        "frameRates": 120
      },
      {
        "trial_number": 25,
        "trial_index": 265,
        "rt": 714,
        "correct": true,
        "response": "ArrowRight",
        "congruent": true,
        "gazeTowards": true,
        "gazeCondition": "towards",
        "faceOnLeft": true,
        "impliedDirection": 0,
        "testDirection": 0,
        "avgFps": 122,
        "minFps": 108,
        "maxFps": 17241,
        "totalFrames": 86,
        "frameRates": 122
      },
      {
        "trial_number": 26,
        "trial_index": 270,
        "rt": 519,
        "correct": true,
        "response": "ArrowLeft",
        "congruent": true,
        "gazeTowards": true,
        "gazeCondition": "towards",
        "faceOnLeft": false,
        "impliedDirection": 180,
        "testDirection": 180,
        "avgFps": 120,
        "minFps": 108,
        "maxFps": 135,
        "totalFrames": 62,
        "frameRates": 120
      },
      {
        "trial_number": 27,
        "trial_index": 278,
        "rt": 677,
        "correct": true,
        "response": "ArrowRight",
        "congruent": false,
        "gazeTowards": true,
        "gazeCondition": "towards",
        "faceOnLeft": false,
        "impliedDirection": 180,
        "testDirection": 0,
        "avgFps": 120,
        "minFps": 79,
        "maxFps": 137,
        "totalFrames": 81,
        "frameRates": 120
      },
      {
        "trial_number": 28,
        "trial_index": 283,
        "rt": 817,
        "correct": true,
        "response": "ArrowLeft",
        "congruent": false,
        "gazeTowards": false,
        "gazeCondition": "away",
        "faceOnLeft": true,
        "impliedDirection": 0,
        "testDirection": 180,
        "avgFps": 119,
        "minFps": 84,
        "maxFps": 135,
        "totalFrames": 97,
        "frameRates": 119
      },
      {
        "trial_number": 29,
        "trial_index": 289,
        "rt": 596,
        "correct": true,
        "response": "ArrowRight",
        "congruent": true,
        "gazeTowards": false,
        "gazeCondition": "away",
        "faceOnLeft": true,
        "impliedDirection": 0,
        "testDirection": 0,
        "avgFps": 118,
        "minFps": 83,
        "maxFps": 133,
        "totalFrames": 71,
        "frameRates": 118
      },
      {
        "trial_number": 30,
        "trial_index": 297,
        "rt": 799,
        "correct": true,
        "response": "ArrowRight",
        "congruent": true,
        "gazeTowards": false,
        "gazeCondition": "away",
        "faceOnLeft": true,
        "impliedDirection": 0,
        "testDirection": 0,
        "avgFps": 119,
        "minFps": 89,
        "maxFps": 149,
        "totalFrames": 95,
        "frameRates": 119
      },
      {
        "trial_number": 31,
        "trial_index": 302,
        "rt": 615,
        "correct": true,
        "response": "ArrowRight",
        "congruent": true,
        "gazeTowards": false,
        "gazeCondition": "away",
        "faceOnLeft": true,
        "impliedDirection": 0,
        "testDirection": 0,
        "avgFps": 120,
        "minFps": 104,
        "maxFps": 135,
        "totalFrames": 73,
        "frameRates": 120
      },
      {
        "trial_number": 32,
        "trial_index": 307,
        "rt": 649,
        "correct": true,
        "response": "ArrowLeft",
        "congruent": false,
        "gazeTowards": true,
        "gazeCondition": "towards",
        "faceOnLeft": true,
        "impliedDirection": 0,
        "testDirection": 180,
        "avgFps": 120,
        "minFps": 106,
        "maxFps": 135,
        "totalFrames": 77,
        "frameRates": 120
      },
      {
        "trial_number": 33,
        "trial_index": 312,
        "rt": 871,
        "correct": true,
        "response": "ArrowRight",
        "congruent": true,
        "gazeTowards": true,
        "gazeCondition": "towards",
        "faceOnLeft": true,
        "impliedDirection": 0,
        "testDirection": 0,
        "avgFps": 120,
        "minFps": 106,
        "maxFps": 137,
        "totalFrames": 104,
        "frameRates": 120
      },
      {
        "trial_number": 34,
        "trial_index": 317,
        "rt": 1088,
        "correct": true,
        "response": "ArrowRight",
        "congruent": false,
        "gazeTowards": false,
        "gazeCondition": "away",
        "faceOnLeft": false,
        "impliedDirection": 180,
        "testDirection": 0,
        "avgFps": 120,
        "minFps": 108,
        "maxFps": 135,
        "totalFrames": 129,
        "frameRates": 120
      },
      {
        "trial_number": 35,
        "trial_index": 322,
        "rt": 527,
        "correct": true,
        "response": "ArrowLeft",
        "congruent": true,
        "gazeTowards": false,
        "gazeCondition": "away",
        "faceOnLeft": false,
        "impliedDirection": 180,
        "testDirection": 180,
        "avgFps": 120,
        "minFps": 109,
        "maxFps": 133,
        "totalFrames": 63,
        "frameRates": 120
      },
      {
        "trial_number": 36,
        "trial_index": 327,
        "rt": 583,
        "correct": true,
        "response": "ArrowRight",
        "congruent": false,
        "gazeTowards": false,
        "gazeCondition": "away",
        "faceOnLeft": false,
        "impliedDirection": 180,
        "testDirection": 0,
        "avgFps": 120,
        "minFps": 106,
        "maxFps": 135,
        "totalFrames": 70,
        "frameRates": 120
      },
      {
        "trial_number": 37,
        "trial_index": 332,
        "rt": 787,
        "correct": true,
        "response": "ArrowRight",
        "congruent": false,
        "gazeTowards": false,
        "gazeCondition": "away",
        "faceOnLeft": false,
        "impliedDirection": 180,
        "testDirection": 0,
        "avgFps": 120,
        "minFps": 108,
        "maxFps": 133,
        "totalFrames": 95,
        "frameRates": 120
      },
      {
        "trial_number": 38,
        "trial_index": 337,
        "rt": 752,
        "correct": true,
        "response": "ArrowRight",
        "congruent": true,
        "gazeTowards": true,
        "gazeCondition": "towards",
        "faceOnLeft": true,
        "impliedDirection": 0,
        "testDirection": 0,
        "avgFps": 120,
        "minFps": 106,
        "maxFps": 135,
        "totalFrames": 91,
        "frameRates": 120
      },
      {
        "trial_number": 39,
        "trial_index": 342,
        "rt": 510,
        "correct": true,
        "response": "ArrowLeft",
        "congruent": false,
        "gazeTowards": true,
        "gazeCondition": "towards",
        "faceOnLeft": true,
        "impliedDirection": 0,
        "testDirection": 180,
        "avgFps": 120,
        "minFps": 109,
        "maxFps": 135,
        "totalFrames": 61,
        "frameRates": 120
      },
      {
        "trial_number": 40,
        "trial_index": 347,
        "rt": 780,
        "correct": true,
        "response": "ArrowLeft",
        "congruent": true,
        "gazeTowards": true,
        "gazeCondition": "towards",
        "faceOnLeft": false,
        "impliedDirection": 180,
        "testDirection": 180,
        "avgFps": 120,
        "minFps": 109,
        "maxFps": 135,
        "totalFrames": 94,
        "frameRates": 120
      },
      {
        "trial_number": 41,
        "trial_index": 352,
        "rt": 560,
        "correct": true,
        "response": "ArrowRight",
        "congruent": false,
        "gazeTowards": true,
        "gazeCondition": "towards",
        "faceOnLeft": false,
        "impliedDirection": 180,
        "testDirection": 0,
        "avgFps": 120,
        "minFps": 108,
        "maxFps": 135,
        "totalFrames": 67,
        "frameRates": 120
      },
      {
        "trial_number": 42,
        "trial_index": 360,
        "rt": 717,
        "correct": true,
        "response": "ArrowRight",
        "congruent": false,
        "gazeTowards": true,
        "gazeCondition": "towards",
        "faceOnLeft": false,
        "impliedDirection": 180,
        "testDirection": 0,
        "avgFps": 120,
        "minFps": 106,
        "maxFps": 137,
        "totalFrames": 86,
        "frameRates": 120
      },
      {
        "trial_number": 43,
        "trial_index": 365,
        "rt": 621,
        "correct": true,
        "response": "ArrowRight",
        "congruent": true,
        "gazeTowards": true,
        "gazeCondition": "towards",
        "faceOnLeft": true,
        "impliedDirection": 0,
        "testDirection": 0,
        "avgFps": 118,
        "minFps": 60,
        "maxFps": 135,
        "totalFrames": 73,
        "frameRates": 118
      },
      {
        "trial_number": 44,
        "trial_index": 370,
        "rt": 573,
        "correct": true,
        "response": "ArrowLeft",
        "congruent": true,
        "gazeTowards": true,
        "gazeCondition": "towards",
        "faceOnLeft": false,
        "impliedDirection": 180,
        "testDirection": 180,
        "avgFps": 122,
        "minFps": 108,
        "maxFps": 3846,
        "totalFrames": 69,
        "frameRates": 122
      },
      {
        "trial_number": 45,
        "trial_index": 375,
        "rt": 634,
        "correct": true,
        "response": "ArrowRight",
        "congruent": false,
        "gazeTowards": true,
        "gazeCondition": "towards",
        "faceOnLeft": false,
        "impliedDirection": 180,
        "testDirection": 0,
        "avgFps": 120,
        "minFps": 108,
        "maxFps": 137,
        "totalFrames": 76,
        "frameRates": 120
      },
      {
        "trial_number": 46,
        "trial_index": 380,
        "rt": 696,
        "correct": true,
        "response": "ArrowRight",
        "congruent": false,
        "gazeTowards": false,
        "gazeCondition": "away",
        "faceOnLeft": false,
        "impliedDirection": 180,
        "testDirection": 0,
        "avgFps": 120,
        "minFps": 109,
        "maxFps": 132,
        "totalFrames": 83,
        "frameRates": 120
      },
      {
        "trial_number": 47,
        "trial_index": 385,
        "rt": 642,
        "correct": true,
        "response": "ArrowLeft",
        "congruent": true,
        "gazeTowards": false,
        "gazeCondition": "away",
        "faceOnLeft": false,
        "impliedDirection": 180,
        "testDirection": 180,
        "avgFps": 120,
        "minFps": 108,
        "maxFps": 135,
        "totalFrames": 77,
        "frameRates": 120
      },
      {
        "trial_number": 48,
        "trial_index": 390,
        "rt": 857,
        "correct": false,
        "response": "ArrowRight",
        "congruent": false,
        "gazeTowards": false,
        "gazeCondition": "away",
        "faceOnLeft": true,
        "impliedDirection": 0,
        "testDirection": 180,
        "avgFps": 121,
        "minFps": 106,
        "maxFps": 1064,
        "totalFrames": 103,
        "frameRates": 121
      },
      {
        "trial_number": 49,
        "trial_index": 395,
        "rt": 738,
        "correct": true,
        "response": "ArrowRight",
        "congruent": true,
        "gazeTowards": true,
        "gazeCondition": "towards",
        "faceOnLeft": true,
        "impliedDirection": 0,
        "testDirection": 0,
        "avgFps": 120,
        "minFps": 106,
        "maxFps": 139,
        "totalFrames": 88,
        "frameRates": 120
      },
      {
        "trial_number": 50,
        "trial_index": 400,
        "rt": 600,
        "correct": true,
        "response": "ArrowLeft",
        "congruent": true,
        "gazeTowards": true,
        "gazeCondition": "towards",
        "faceOnLeft": false,
        "impliedDirection": 180,
        "testDirection": 180,
        "avgFps": 120,
        "minFps": 106,
        "maxFps": 137,
        "totalFrames": 72,
        "frameRates": 120
      },
      {
        "trial_number": 51,
        "trial_index": 405,
        "rt": 510,
        "correct": true,
        "response": "ArrowRight",
        "congruent": true,
        "gazeTowards": false,
        "gazeCondition": "away",
        "faceOnLeft": true,
        "impliedDirection": 0,
        "testDirection": 0,
        "avgFps": 120,
        "minFps": 106,
        "maxFps": 137,
        "totalFrames": 61,
        "frameRates": 120
      },
      {
        "trial_number": 52,
        "trial_index": 410,
        "rt": 839,
        "correct": true,
        "response": "ArrowRight",
        "congruent": true,
        "gazeTowards": true,
        "gazeCondition": "towards",
        "faceOnLeft": true,
        "impliedDirection": 0,
        "testDirection": 0,
        "avgFps": 120,
        "minFps": 108,
        "maxFps": 133,
        "totalFrames": 100,
        "frameRates": 120
      },
      {
        "trial_number": 53,
        "trial_index": 415,
        "rt": 806,
        "correct": true,
        "response": "ArrowRight",
        "congruent": false,
        "gazeTowards": true,
        "gazeCondition": "towards",
        "faceOnLeft": false,
        "impliedDirection": 180,
        "testDirection": 0,
        "avgFps": 120,
        "minFps": 98,
        "maxFps": 169,
        "totalFrames": 96,
        "frameRates": 120
      },
      {
        "trial_number": 54,
        "trial_index": 420,
        "rt": 709,
        "correct": false,
        "response": "ArrowRight",
        "congruent": true,
        "gazeTowards": false,
        "gazeCondition": "away",
        "faceOnLeft": false,
        "impliedDirection": 180,
        "testDirection": 180,
        "avgFps": 121,
        "minFps": 104,
        "maxFps": 735,
        "totalFrames": 85,
        "frameRates": 121
      },
      {
        "trial_number": 55,
        "trial_index": 425,
        "rt": 785,
        "correct": true,
        "response": "ArrowRight",
        "congruent": false,
        "gazeTowards": true,
        "gazeCondition": "towards",
        "faceOnLeft": false,
        "impliedDirection": 180,
        "testDirection": 0,
        "avgFps": 119,
        "minFps": 60,
        "maxFps": 137,
        "totalFrames": 93,
        "frameRates": 119
      },
      {
        "trial_number": 56,
        "trial_index": 430,
        "rt": 771,
        "correct": true,
        "response": "ArrowRight",
        "congruent": true,
        "gazeTowards": false,
        "gazeCondition": "away",
        "faceOnLeft": true,
        "impliedDirection": 0,
        "testDirection": 0,
        "avgFps": 120,
        "minFps": 108,
        "maxFps": 135,
        "totalFrames": 93,
        "frameRates": 120
      },
      {
        "trial_number": 57,
        "trial_index": 435,
        "rt": 745,
        "correct": true,
        "response": "ArrowRight",
        "congruent": false,
        "gazeTowards": true,
        "gazeCondition": "towards",
        "faceOnLeft": false,
        "impliedDirection": 180,
        "testDirection": 0,
        "avgFps": 120,
        "minFps": 108,
        "maxFps": 137,
        "totalFrames": 89,
        "frameRates": 120
      },
      {
        "trial_number": 58,
        "trial_index": 440,
        "rt": 545,
        "correct": true,
        "response": "ArrowLeft",
        "congruent": true,
        "gazeTowards": false,
        "gazeCondition": "away",
        "faceOnLeft": false,
        "impliedDirection": 180,
        "testDirection": 180,
        "avgFps": 120,
        "minFps": 106,
        "maxFps": 159,
        "totalFrames": 66,
        "frameRates": 120
      },
      {
        "trial_number": 59,
        "trial_index": 445,
        "rt": 953,
        "correct": false,
        "response": "ArrowRight",
        "congruent": true,
        "gazeTowards": true,
        "gazeCondition": "towards",
        "faceOnLeft": false,
        "impliedDirection": 180,
        "testDirection": 180,
        "avgFps": 120,
        "minFps": 108,
        "maxFps": 135,
        "totalFrames": 113,
        "frameRates": 120
      },
      {
        "trial_number": 60,
        "trial_index": 451,
        "rt": 577,
        "correct": true,
        "response": "ArrowRight",
        "congruent": false,
        "gazeTowards": true,
        "gazeCondition": "towards",
        "faceOnLeft": false,
        "impliedDirection": 180,
        "testDirection": 0,
        "avgFps": 110,
        "minFps": 32,
        "maxFps": 286,
        "totalFrames": 63,
        "frameRates": 110
      },
      {
        "trial_number": 61,
        "trial_index": 456,
        "rt": 1521,
        "correct": false,
        "response": "ArrowRight",
        "congruent": false,
        "gazeTowards": true,
        "gazeCondition": "towards",
        "faceOnLeft": true,
        "impliedDirection": 0,
        "testDirection": 180,
        "avgFps": 117,
        "minFps": 50,
        "maxFps": 135,
        "totalFrames": 178,
        "frameRates": 117
      },
      {
        "trial_number": 62,
        "trial_index": 461,
        "rt": 688,
        "correct": true,
        "response": "ArrowRight",
        "congruent": true,
        "gazeTowards": true,
        "gazeCondition": "towards",
        "faceOnLeft": true,
        "impliedDirection": 0,
        "testDirection": 0,
        "avgFps": 116,
        "minFps": 50,
        "maxFps": 204,
        "totalFrames": 80,
        "frameRates": 116
      },
      {
        "trial_number": 63,
        "trial_index": 466,
        "rt": 631,
        "correct": true,
        "response": "ArrowRight",
        "congruent": true,
        "gazeTowards": true,
        "gazeCondition": "towards",
        "faceOnLeft": true,
        "impliedDirection": 0,
        "testDirection": 0,
        "avgFps": 116,
        "minFps": 61,
        "maxFps": 133,
        "totalFrames": 73,
        "frameRates": 116
      },
      {
        "trial_number": 64,
        "trial_index": 471,
        "rt": 775,
        "correct": true,
        "response": "ArrowRight",
        "congruent": false,
        "gazeTowards": false,
        "gazeCondition": "away",
        "faceOnLeft": false,
        "impliedDirection": 180,
        "testDirection": 0,
        "avgFps": 119,
        "minFps": 76,
        "maxFps": 168,
        "totalFrames": 92,
        "frameRates": 119
      },
      {
        "trial_number": 65,
        "trial_index": 476,
        "rt": 1159,
        "correct": false,
        "response": "ArrowRight",
        "congruent": true,
        "gazeTowards": true,
        "gazeCondition": "towards",
        "faceOnLeft": false,
        "impliedDirection": 180,
        "testDirection": 180,
        "avgFps": 120,
        "minFps": 96,
        "maxFps": 164,
        "totalFrames": 138,
        "frameRates": 120
      },
      {
        "trial_number": 66,
        "trial_index": 481,
        "rt": 734,
        "correct": true,
        "response": "ArrowRight",
        "congruent": true,
        "gazeTowards": false,
        "gazeCondition": "away",
        "faceOnLeft": true,
        "impliedDirection": 0,
        "testDirection": 0,
        "avgFps": 120,
        "minFps": 105,
        "maxFps": 150,
        "totalFrames": 88,
        "frameRates": 120
      },
      {
        "trial_number": 67,
        "trial_index": 486,
        "rt": 895,
        "correct": true,
        "response": "ArrowRight",
        "congruent": true,
        "gazeTowards": true,
        "gazeCondition": "towards",
        "faceOnLeft": true,
        "impliedDirection": 0,
        "testDirection": 0,
        "avgFps": 120,
        "minFps": 106,
        "maxFps": 137,
        "totalFrames": 107,
        "frameRates": 120
      },
      {
        "trial_number": 68,
        "trial_index": 491,
        "rt": 770,
        "correct": true,
        "response": "ArrowRight",
        "congruent": true,
        "gazeTowards": false,
        "gazeCondition": "away",
        "faceOnLeft": true,
        "impliedDirection": 0,
        "testDirection": 0,
        "avgFps": 120,
        "minFps": 106,
        "maxFps": 135,
        "totalFrames": 92,
        "frameRates": 120
      },
      {
        "trial_number": 69,
        "trial_index": 496,
        "rt": 1119,
        "correct": false,
        "response": "ArrowRight",
        "congruent": true,
        "gazeTowards": true,
        "gazeCondition": "towards",
        "faceOnLeft": false,
        "impliedDirection": 180,
        "testDirection": 180,
        "avgFps": 120,
        "minFps": 109,
        "maxFps": 133,
        "totalFrames": 135,
        "frameRates": 120
      },
      {
        "trial_number": 70,
        "trial_index": 501,
        "rt": 1207,
        "correct": true,
        "response": "ArrowRight",
        "congruent": false,
        "gazeTowards": true,
        "gazeCondition": "towards",
        "faceOnLeft": false,
        "impliedDirection": 180,
        "testDirection": 0,
        "avgFps": 120,
        "minFps": 106,
        "maxFps": 135,
        "totalFrames": 145,
        "frameRates": 120
      },
      {
        "trial_number": 71,
        "trial_index": 506,
        "rt": 1408,
        "correct": false,
        "response": "ArrowRight",
        "congruent": true,
        "gazeTowards": true,
        "gazeCondition": "towards",
        "faceOnLeft": false,
        "impliedDirection": 180,
        "testDirection": 180,
        "avgFps": 121,
        "minFps": 106,
        "maxFps": 27778,
        "totalFrames": 169,
        "frameRates": 121
      },
      {
        "trial_number": 72,
        "trial_index": 511,
        "rt": 1104,
        "correct": true,
        "response": "ArrowRight",
        "congruent": true,
        "gazeTowards": false,
        "gazeCondition": "away",
        "faceOnLeft": true,
        "impliedDirection": 0,
        "testDirection": 0,
        "avgFps": 120,
        "minFps": 108,
        "maxFps": 135,
        "totalFrames": 133,
        "frameRates": 120
      },
      {
        "trial_number": 73,
        "trial_index": 516,
        "rt": 1475,
        "correct": false,
        "response": "ArrowRight",
        "congruent": true,
        "gazeTowards": false,
        "gazeCondition": "away",
        "faceOnLeft": false,
        "impliedDirection": 180,
        "testDirection": 180,
        "avgFps": 120,
        "minFps": 106,
        "maxFps": 135,
        "totalFrames": 177,
        "frameRates": 120
      },
      {
        "trial_number": 74,
        "trial_index": 521,
        "rt": 963,
        "correct": true,
        "response": "ArrowRight",
        "congruent": true,
        "gazeTowards": false,
        "gazeCondition": "away",
        "faceOnLeft": true,
        "impliedDirection": 0,
        "testDirection": 0,
        "avgFps": 120,
        "minFps": 108,
        "maxFps": 133,
        "totalFrames": 116,
        "frameRates": 120
      },
      {
        "trial_number": 75,
        "trial_index": 526,
        "rt": 1129,
        "correct": false,
        "response": "ArrowRight",
        "congruent": true,
        "gazeTowards": false,
        "gazeCondition": "away",
        "faceOnLeft": false,
        "impliedDirection": 180,
        "testDirection": 180,
        "avgFps": 120,
        "minFps": 106,
        "maxFps": 137,
        "totalFrames": 136,
        "frameRates": 120
      },
      {
        "trial_number": 76,
        "trial_index": 534,
        "rt": 978,
        "correct": false,
        "response": "ArrowRight",
        "congruent": true,
        "gazeTowards": true,
        "gazeCondition": "towards",
        "faceOnLeft": false,
        "impliedDirection": 180,
        "testDirection": 180,
        "avgFps": 120,
        "minFps": 108,
        "maxFps": 137,
        "totalFrames": 117,
        "frameRates": 120
      },
      {
        "trial_number": 77,
        "trial_index": 539,
        "rt": 803,
        "correct": true,
        "response": "ArrowRight",
        "congruent": false,
        "gazeTowards": false,
        "gazeCondition": "away",
        "faceOnLeft": false,
        "impliedDirection": 180,
        "testDirection": 0,
        "avgFps": 120,
        "minFps": 108,
        "maxFps": 135,
        "totalFrames": 96,
        "frameRates": 120
      },
      {
        "trial_number": 78,
        "trial_index": 544,
        "rt": 694,
        "correct": true,
        "response": "ArrowRight",
        "congruent": false,
        "gazeTowards": false,
        "gazeCondition": "away",
        "faceOnLeft": false,
        "impliedDirection": 180,
        "testDirection": 0,
        "avgFps": 120,
        "minFps": 108,
        "maxFps": 132,
        "totalFrames": 83,
        "frameRates": 120
      },
      {
        "trial_number": 79,
        "trial_index": 552,
        "rt": 926,
        "correct": false,
        "response": "ArrowRight",
        "congruent": false,
        "gazeTowards": true,
        "gazeCondition": "towards",
        "faceOnLeft": true,
        "impliedDirection": 0,
        "testDirection": 180,
        "avgFps": 120,
        "minFps": 108,
        "maxFps": 137,
        "totalFrames": 111,
        "frameRates": 120
      },
      {
        "trial_number": 80,
        "trial_index": 557,
        "rt": 795,
        "correct": false,
        "response": "ArrowRight",
        "congruent": false,
        "gazeTowards": false,
        "gazeCondition": "away",
        "faceOnLeft": true,
        "impliedDirection": 0,
        "testDirection": 180,
        "avgFps": 120,
        "minFps": 106,
        "maxFps": 135,
        "totalFrames": 96,
        "frameRates": 120
      },
      {
        "trial_number": 81,
        "trial_index": 562,
        "rt": 795,
        "correct": true,
        "response": "ArrowRight",
        "congruent": true,
        "gazeTowards": false,
        "gazeCondition": "away",
        "faceOnLeft": true,
        "impliedDirection": 0,
        "testDirection": 0,
        "avgFps": 120,
        "minFps": 108,
        "maxFps": 135,
        "totalFrames": 96,
        "frameRates": 120
      },
      {
        "trial_number": 82,
        "trial_index": 567,
        "rt": 773,
        "correct": true,
        "response": "ArrowRight",
        "congruent": true,
        "gazeTowards": false,
        "gazeCondition": "away",
        "faceOnLeft": true,
        "impliedDirection": 0,
        "testDirection": 0,
        "avgFps": 121,
        "minFps": 106,
        "maxFps": 11905,
        "totalFrames": 93,
        "frameRates": 121
      },
      {
        "trial_number": 83,
        "trial_index": 572,
        "rt": 1060,
        "correct": false,
        "response": "ArrowRight",
        "congruent": false,
        "gazeTowards": false,
        "gazeCondition": "away",
        "faceOnLeft": true,
        "impliedDirection": 0,
        "testDirection": 180,
        "avgFps": 120,
        "minFps": 106,
        "maxFps": 137,
        "totalFrames": 127,
        "frameRates": 120
      },
      {
        "trial_number": 84,
        "trial_index": 577,
        "rt": 1006,
        "correct": false,
        "response": "ArrowRight",
        "congruent": false,
        "gazeTowards": false,
        "gazeCondition": "away",
        "faceOnLeft": true,
        "impliedDirection": 0,
        "testDirection": 180,
        "avgFps": 121,
        "minFps": 108,
        "maxFps": 45455,
        "totalFrames": 121,
        "frameRates": 121
      },
      {
        "trial_number": 85,
        "trial_index": 582,
        "rt": 848,
        "correct": true,
        "response": "ArrowRight",
        "congruent": false,
        "gazeTowards": false,
        "gazeCondition": "away",
        "faceOnLeft": false,
        "impliedDirection": 180,
        "testDirection": 0,
        "avgFps": 120,
        "minFps": 108,
        "maxFps": 137,
        "totalFrames": 102,
        "frameRates": 120
      },
      {
        "trial_number": 86,
        "trial_index": 587,
        "rt": 1075,
        "correct": false,
        "response": "ArrowRight",
        "congruent": false,
        "gazeTowards": true,
        "gazeCondition": "towards",
        "faceOnLeft": true,
        "impliedDirection": 0,
        "testDirection": 180,
        "avgFps": 120,
        "minFps": 108,
        "maxFps": 137,
        "totalFrames": 129,
        "frameRates": 120
      },
      {
        "trial_number": 87,
        "trial_index": 592,
        "rt": 1060,
        "correct": false,
        "response": "ArrowRight",
        "congruent": true,
        "gazeTowards": false,
        "gazeCondition": "away",
        "faceOnLeft": false,
        "impliedDirection": 180,
        "testDirection": 180,
        "avgFps": 120,
        "minFps": 106,
        "maxFps": 137,
        "totalFrames": 127,
        "frameRates": 120
      },
      {
        "trial_number": 88,
        "trial_index": 597,
        "rt": 973,
        "correct": true,
        "response": "ArrowRight",
        "congruent": false,
        "gazeTowards": true,
        "gazeCondition": "towards",
        "faceOnLeft": false,
        "impliedDirection": 180,
        "testDirection": 0,
        "avgFps": 120,
        "minFps": 108,
        "maxFps": 135,
        "totalFrames": 117,
        "frameRates": 120
      },
      {
        "trial_number": 89,
        "trial_index": 602,
        "rt": 951,
        "correct": true,
        "response": "ArrowRight",
        "congruent": true,
        "gazeTowards": false,
        "gazeCondition": "away",
        "faceOnLeft": true,
        "impliedDirection": 0,
        "testDirection": 0,
        "avgFps": 120,
        "minFps": 108,
        "maxFps": 135,
        "totalFrames": 114,
        "frameRates": 120
      },
      {
        "trial_number": 90,
        "trial_index": 607,
        "rt": 1102,
        "correct": true,
        "response": "ArrowRight",
        "congruent": false,
        "gazeTowards": false,
        "gazeCondition": "away",
        "faceOnLeft": false,
        "impliedDirection": 180,
        "testDirection": 0,
        "avgFps": 120,
        "minFps": 108,
        "maxFps": 137,
        "totalFrames": 132,
        "frameRates": 120
      },
      {
        "trial_number": 91,
        "trial_index": 613,
        "rt": 1745,
        "correct": true,
        "response": "ArrowRight",
        "congruent": false,
        "gazeTowards": true,
        "gazeCondition": "towards",
        "faceOnLeft": false,
        "impliedDirection": 180,
        "testDirection": 0,
        "avgFps": 120,
        "minFps": 106,
        "maxFps": 137,
        "totalFrames": 210,
        "frameRates": 120
      },
      {
        "trial_number": 92,
        "trial_index": 618,
        "rt": 1847,
        "correct": true,
        "response": "ArrowRight",
        "congruent": true,
        "gazeTowards": true,
        "gazeCondition": "towards",
        "faceOnLeft": true,
        "impliedDirection": 0,
        "testDirection": 0,
        "avgFps": 120,
        "minFps": 106,
        "maxFps": 135,
        "totalFrames": 222,
        "frameRates": 120
      },
      {
        "trial_number": 93,
        "trial_index": 623,
        "rt": 1558,
        "correct": true,
        "response": "ArrowRight",
        "congruent": true,
        "gazeTowards": true,
        "gazeCondition": "towards",
        "faceOnLeft": true,
        "impliedDirection": 0,
        "testDirection": 0,
        "avgFps": 120,
        "minFps": 79,
        "maxFps": 250,
        "totalFrames": 186,
        "frameRates": 120
      },
      {
        "trial_number": 94,
        "trial_index": 628,
        "rt": 1729,
        "correct": false,
        "response": "ArrowRight",
        "congruent": true,
        "gazeTowards": false,
        "gazeCondition": "away",
        "faceOnLeft": false,
        "impliedDirection": 180,
        "testDirection": 180,
        "avgFps": 120,
        "minFps": 100,
        "maxFps": 152,
        "totalFrames": 207,
        "frameRates": 120
      },
      {
        "trial_number": 95,
        "trial_index": 633,
        "rt": 1253,
        "correct": false,
        "response": "ArrowRight",
        "congruent": true,
        "gazeTowards": false,
        "gazeCondition": "away",
        "faceOnLeft": false,
        "impliedDirection": 180,
        "testDirection": 180,
        "avgFps": 120,
        "minFps": 106,
        "maxFps": 137,
        "totalFrames": 150,
        "frameRates": 120
      },
      {
        "trial_number": 96,
        "trial_index": 638,
        "rt": 1121,
        "correct": true,
        "response": "ArrowRight",
        "congruent": true,
        "gazeTowards": false,
        "gazeCondition": "away",
        "faceOnLeft": true,
        "impliedDirection": 0,
        "testDirection": 0,
        "avgFps": 120,
        "minFps": 106,
        "maxFps": 137,
        "totalFrames": 134,
        "frameRates": 120
      },
      {
        "trial_number": 97,
        "trial_index": 643,
        "rt": 943,
        "correct": true,
        "response": "ArrowRight",
        "congruent": false,
        "gazeTowards": true,
        "gazeCondition": "towards",
        "faceOnLeft": false,
        "impliedDirection": 180,
        "testDirection": 0,
        "avgFps": 120,
        "minFps": 108,
        "maxFps": 133,
        "totalFrames": 113,
        "frameRates": 120
      },
      {
        "trial_number": 98,
        "trial_index": 648,
        "rt": 713,
        "correct": true,
        "response": "ArrowRight",
        "congruent": false,
        "gazeTowards": true,
        "gazeCondition": "towards",
        "faceOnLeft": false,
        "impliedDirection": 180,
        "testDirection": 0,
        "avgFps": 120,
        "minFps": 106,
        "maxFps": 135,
        "totalFrames": 86,
        "frameRates": 120
      },
      {
        "trial_number": 99,
        "trial_index": 653,
        "rt": 1241,
        "correct": true,
        "response": "ArrowRight",
        "congruent": false,
        "gazeTowards": true,
        "gazeCondition": "towards",
        "faceOnLeft": false,
        "impliedDirection": 180,
        "testDirection": 0,
        "avgFps": 120,
        "minFps": 106,
        "maxFps": 137,
        "totalFrames": 149,
        "frameRates": 120
      },
      {
        "trial_number": 100,
        "trial_index": 658,
        "rt": 1263,
        "correct": false,
        "response": "ArrowRight",
        "congruent": false,
        "gazeTowards": true,
        "gazeCondition": "towards",
        "faceOnLeft": true,
        "impliedDirection": 0,
        "testDirection": 180,
        "avgFps": 121,
        "minFps": 108,
        "maxFps": 4762,
        "totalFrames": 152,
        "frameRates": 121
      },
      {
        "trial_number": 101,
        "trial_index": 663,
        "rt": 1187,
        "correct": true,
        "response": "ArrowRight",
        "congruent": true,
        "gazeTowards": true,
        "gazeCondition": "towards",
        "faceOnLeft": true,
        "impliedDirection": 0,
        "testDirection": 0,
        "avgFps": 120,
        "minFps": 108,
        "maxFps": 135,
        "totalFrames": 143,
        "frameRates": 120
      },
      {
        "trial_number": 102,
        "trial_index": 668,
        "rt": 890,
        "correct": true,
        "response": "ArrowLeft",
        "congruent": false,
        "gazeTowards": false,
        "gazeCondition": "away",
        "faceOnLeft": true,
        "impliedDirection": 0,
        "testDirection": 180,
        "avgFps": 120,
        "minFps": 106,
        "maxFps": 137,
        "totalFrames": 107,
        "frameRates": 120
      },
      {
        "trial_number": 103,
        "trial_index": 673,
        "rt": 945,
        "correct": true,
        "response": "ArrowLeft",
        "congruent": false,
        "gazeTowards": false,
        "gazeCondition": "away",
        "faceOnLeft": true,
        "impliedDirection": 0,
        "testDirection": 180,
        "avgFps": 120,
        "minFps": 108,
        "maxFps": 133,
        "totalFrames": 113,
        "frameRates": 120
      },
      {
        "trial_number": 104,
        "trial_index": 678,
        "rt": 868,
        "correct": false,
        "response": "ArrowLeft",
        "congruent": true,
        "gazeTowards": false,
        "gazeCondition": "away",
        "faceOnLeft": true,
        "impliedDirection": 0,
        "testDirection": 0,
        "avgFps": 120,
        "minFps": 108,
        "maxFps": 133,
        "totalFrames": 104,
        "frameRates": 120
      },
      {
        "trial_number": 105,
        "trial_index": 683,
        "rt": 796,
        "correct": true,
        "response": "ArrowRight",
        "congruent": false,
        "gazeTowards": true,
        "gazeCondition": "towards",
        "faceOnLeft": false,
        "impliedDirection": 180,
        "testDirection": 0,
        "avgFps": 120,
        "minFps": 110,
        "maxFps": 135,
        "totalFrames": 95,
        "frameRates": 120
      },
      {
        "trial_number": 106,
        "trial_index": 694,
        "rt": 1053,
        "correct": false,
        "response": "ArrowRight",
        "congruent": true,
        "gazeTowards": true,
        "gazeCondition": "towards",
        "faceOnLeft": false,
        "impliedDirection": 180,
        "testDirection": 180,
        "avgFps": 121,
        "minFps": 108,
        "maxFps": null,
        "totalFrames": 127,
        "frameRates": 121
      },
      {
        "trial_number": 107,
        "trial_index": 699,
        "rt": 826,
        "correct": true,
        "response": "ArrowLeft",
        "congruent": false,
        "gazeTowards": false,
        "gazeCondition": "away",
        "faceOnLeft": true,
        "impliedDirection": 0,
        "testDirection": 180,
        "avgFps": 120,
        "minFps": 108,
        "maxFps": 135,
        "totalFrames": 100,
        "frameRates": 120
      },
      {
        "trial_number": 108,
        "trial_index": 704,
        "rt": 932,
        "correct": true,
        "response": "ArrowRight",
        "congruent": false,
        "gazeTowards": false,
        "gazeCondition": "away",
        "faceOnLeft": false,
        "impliedDirection": 180,
        "testDirection": 0,
        "avgFps": 120,
        "minFps": 108,
        "maxFps": 135,
        "totalFrames": 112,
        "frameRates": 120
      },
      {
        "trial_number": 109,
        "trial_index": 709,
        "rt": 735,
        "correct": true,
        "response": "ArrowRight",
        "congruent": true,
        "gazeTowards": false,
        "gazeCondition": "away",
        "faceOnLeft": true,
        "impliedDirection": 0,
        "testDirection": 0,
        "avgFps": 120,
        "minFps": 108,
        "maxFps": 137,
        "totalFrames": 88,
        "frameRates": 120
      },
      {
        "trial_number": 110,
        "trial_index": 714,
        "rt": 1013,
        "correct": true,
        "response": "ArrowRight",
        "congruent": false,
        "gazeTowards": false,
        "gazeCondition": "away",
        "faceOnLeft": false,
        "impliedDirection": 180,
        "testDirection": 0,
        "avgFps": 120,
        "minFps": 108,
        "maxFps": 135,
        "totalFrames": 121,
        "frameRates": 120
      },
      {
        "trial_number": 111,
        "trial_index": 719,
        "rt": 1115,
        "correct": true,
        "response": "ArrowRight",
        "congruent": false,
        "gazeTowards": false,
        "gazeCondition": "away",
        "faceOnLeft": false,
        "impliedDirection": 180,
        "testDirection": 0,
        "avgFps": 120,
        "minFps": 108,
        "maxFps": 135,
        "totalFrames": 134,
        "frameRates": 120
      },
      {
        "trial_number": 112,
        "trial_index": 724,
        "rt": 1221,
        "correct": true,
        "response": "ArrowRight",
        "congruent": false,
        "gazeTowards": false,
        "gazeCondition": "away",
        "faceOnLeft": false,
        "impliedDirection": 180,
        "testDirection": 0,
        "avgFps": 120,
        "minFps": 108,
        "maxFps": 137,
        "totalFrames": 146,
        "frameRates": 120
      },
      {
        "trial_number": 113,
        "trial_index": 732,
        "rt": 1519,
        "correct": false,
        "response": "ArrowLeft",
        "congruent": false,
        "gazeTowards": false,
        "gazeCondition": "away",
        "faceOnLeft": false,
        "impliedDirection": 180,
        "testDirection": 0,
        "avgFps": 120,
        "minFps": 106,
        "maxFps": 137,
        "totalFrames": 182,
        "frameRates": 120
      },
      {
        "trial_number": 114,
        "trial_index": 737,
        "rt": 602,
        "correct": true,
        "response": "ArrowLeft",
        "congruent": false,
        "gazeTowards": false,
        "gazeCondition": "away",
        "faceOnLeft": true,
        "impliedDirection": 0,
        "testDirection": 180,
        "avgFps": 120,
        "minFps": 108,
        "maxFps": 135,
        "totalFrames": 72,
        "frameRates": 120
      },
      {
        "trial_number": 115,
        "trial_index": 742,
        "rt": 933,
        "correct": false,
        "response": "ArrowLeft",
        "congruent": false,
        "gazeTowards": true,
        "gazeCondition": "towards",
        "faceOnLeft": false,
        "impliedDirection": 180,
        "testDirection": 0,
        "avgFps": 121,
        "minFps": 109,
        "maxFps": 13514,
        "totalFrames": 112,
        "frameRates": 121
      },
      {
        "trial_number": 116,
        "trial_index": 747,
        "rt": 622,
        "correct": true,
        "response": "ArrowRight",
        "congruent": false,
        "gazeTowards": false,
        "gazeCondition": "away",
        "faceOnLeft": false,
        "impliedDirection": 180,
        "testDirection": 0,
        "avgFps": 120,
        "minFps": 108,
        "maxFps": 135,
        "totalFrames": 75,
        "frameRates": 120
      },
      {
        "trial_number": 117,
        "trial_index": 752,
        "rt": 716,
        "correct": true,
        "response": "ArrowLeft",
        "congruent": true,
        "gazeTowards": true,
        "gazeCondition": "towards",
        "faceOnLeft": false,
        "impliedDirection": 180,
        "testDirection": 180,
        "avgFps": 120,
        "minFps": 108,
        "maxFps": 135,
        "totalFrames": 86,
        "frameRates": 120
      },
      {
        "trial_number": 118,
        "trial_index": 757,
        "rt": 1227,
        "correct": false,
        "response": "ArrowRight",
        "congruent": false,
        "gazeTowards": false,
        "gazeCondition": "away",
        "faceOnLeft": true,
        "impliedDirection": 0,
        "testDirection": 180,
        "avgFps": 120,
        "minFps": 108,
        "maxFps": 135,
        "totalFrames": 147,
        "frameRates": 120
      },
      {
        "trial_number": 119,
        "trial_index": 765,
        "rt": 650,
        "correct": true,
        "response": "ArrowRight",
        "congruent": false,
        "gazeTowards": true,
        "gazeCondition": "towards",
        "faceOnLeft": false,
        "impliedDirection": 180,
        "testDirection": 0,
        "avgFps": 120,
        "minFps": 108,
        "maxFps": 135,
        "totalFrames": 78,
        "frameRates": 120
      }
    ],
    "catch": {
      "total": 12,
      "correct": 12,
      "accuracy": 100,
      "meanRT": 830,
      "trials": [
        {
          "trial_number": 0,
          "trial_index": 190,
          "rt": 975,
          "correct": true,
          "colorTarget": "face",
          "gazeTowards": true,
          "gazeCondition": "towards",
          "faceOnLeft": false
        },
        {
          "trial_number": 1,
          "trial_index": 208,
          "rt": 964,
          "correct": true,
          "colorTarget": "tree",
          "gazeTowards": true,
          "gazeCondition": "towards",
          "faceOnLeft": false
        },
        {
          "trial_number": 2,
          "trial_index": 221,
          "rt": 732,
          "correct": true,
          "colorTarget": "tree",
          "gazeTowards": false,
          "gazeCondition": "away",
          "faceOnLeft": false
        },
        {
          "trial_number": 3,
          "trial_index": 274,
          "rt": 890,
          "correct": true,
          "colorTarget": "face",
          "gazeTowards": false,
          "gazeCondition": "away",
          "faceOnLeft": true
        },
        {
          "trial_number": 4,
          "trial_index": 293,
          "rt": 744,
          "correct": true,
          "colorTarget": "tree",
          "gazeTowards": true,
          "gazeCondition": "towards",
          "faceOnLeft": true
        },
        {
          "trial_number": 5,
          "trial_index": 356,
          "rt": 644,
          "correct": true,
          "colorTarget": "tree",
          "gazeTowards": true,
          "gazeCondition": "towards",
          "faceOnLeft": false
        },
        {
          "trial_number": 6,
          "trial_index": 530,
          "rt": 622,
          "correct": true,
          "colorTarget": "face",
          "gazeTowards": false,
          "gazeCondition": "away",
          "faceOnLeft": true
        },
        {
          "trial_number": 7,
          "trial_index": 548,
          "rt": 963,
          "correct": true,
          "colorTarget": "face",
          "gazeTowards": true,
          "gazeCondition": "towards",
          "faceOnLeft": false
        },
        {
          "trial_number": 8,
          "trial_index": 687,
          "rt": 1053,
          "correct": true,
          "colorTarget": "face",
          "gazeTowards": false,
          "gazeCondition": "away",
          "faceOnLeft": false
        },
        {
          "trial_number": 9,
          "trial_index": 690,
          "rt": 1043,
          "correct": true,
          "colorTarget": "tree",
          "gazeTowards": false,
          "gazeCondition": "away",
          "faceOnLeft": false
        },
        {
          "trial_number": 10,
          "trial_index": 728,
          "rt": 673,
          "correct": true,
          "colorTarget": "tree",
          "gazeTowards": true,
          "gazeCondition": "towards",
          "faceOnLeft": true
        },
        {
          "trial_number": 11,
          "trial_index": 761,
          "rt": 657,
          "correct": true,
          "colorTarget": "face",
          "gazeTowards": false,
          "gazeCondition": "away",
          "faceOnLeft": true
        }
      ]
    },
    "practice": {
      "trials": [
        {
          "trial_number": 0,
          "rt": null,
          "correct": false,
          "direction": 0
        },
        {
          "trial_number": 1,
          "rt": 906,
          "correct": false,
          "direction": 180
        },
        {
          "trial_number": 2,
          "rt": 1139,
          "correct": true,
          "direction": 0
        },
        {
          "trial_number": 3,
          "rt": 493,
          "correct": true,
          "direction": 180
        },
        {
          "trial_number": 4,
          "rt": 787,
          "correct": false,
          "direction": 180
        },
        {
          "trial_number": 5,
          "rt": 557,
          "correct": true,
          "direction": 0
        },
        {
          "trial_number": 6,
          "rt": 813,
          "correct": false,
          "direction": 0
        },
        {
          "trial_number": 7,
          "rt": 536,
          "correct": true,
          "direction": 180
        },
        {
          "trial_number": 8,
          "rt": 632,
          "correct": true,
          "direction": 0
        },
        {
          "trial_number": 9,
          "rt": 471,
          "correct": true,
          "direction": 180
        },
        {
          "trial_number": 10,
          "rt": 660,
          "correct": true,
          "direction": 0
        },
        {
          "trial_number": 11,
          "rt": 502,
          "correct": true,
          "direction": 180
        },
        {
          "trial_number": 12,
          "rt": 523,
          "correct": true,
          "direction": 0
        },
        {
          "trial_number": 13,
          "rt": 532,
          "correct": true,
          "direction": 180
        },
        {
          "trial_number": 14,
          "rt": 993,
          "correct": false,
          "direction": 180
        },
        {
          "trial_number": 15,
          "rt": 1005,
          "correct": false,
          "direction": 0
        },
        {
          "trial_number": 16,
          "rt": 659,
          "correct": false,
          "direction": 0
        },
        {
          "trial_number": 17,
          "rt": 660,
          "correct": true,
          "direction": 180
        },
        {
          "trial_number": 18,
          "rt": 451,
          "correct": true,
          "direction": 0
        },
        {
          "trial_number": 19,
          "rt": 657,
          "correct": true,
          "direction": 180
        },
        {
          "trial_number": 20,
          "rt": 797,
          "correct": true,
          "direction": 0
        },
        {
          "trial_number": 21,
          "rt": 640,
          "correct": true,
          "direction": 180
        },
        {
          "trial_number": 22,
          "rt": 845,
          "correct": true,
          "direction": 0
        },
        {
          "trial_number": 23,
          "rt": 469,
          "correct": true,
          "direction": 180
        },
        {
          "trial_number": 24,
          "rt": 968,
          "correct": false,
          "direction": 180
        },
        {
          "trial_number": 25,
          "rt": 1621,
          "correct": true,
          "direction": 0
        },
        {
          "trial_number": 26,
          "rt": 896,
          "correct": false,
          "direction": 0
        },
        {
          "trial_number": 27,
          "rt": 511,
          "correct": true,
          "direction": 180
        },
        {
          "trial_number": 28,
          "rt": 737,
          "correct": true,
          "direction": 0
        },
        {
          "trial_number": 29,
          "rt": 461,
          "correct": true,
          "direction": 180
        }
      ],
      "meanRT": 721,
      "accuracy": 70
    }
  }
}