{
  "experiment": "rdk-face-1",
  "UUID": "db84f117-a222-4bdf-b800-9917ac740b07",
  "data": {
    "session": {
      "experiment_version": "1.8.6",
      "treatment": "faces_towards_away_catch",
      "file_version": "1.8.6",
      "totalTrials": 120,
      "totalTrialsIncludingCatch": 132,
      "conditions": {
        "gazeTowardsCount": 60,
        "gazeAwayCount": 60,
        "gazeTowardsAccuracy": 72,
        "gazeAwayAccuracy": 75
      },
      "session_group": "default",
      "browserData": {
        "os": "Windows",
        "browser": "Chrome",
        "screenResolution": "1920x1080",
        "browserViewport": "1920x1080",
        "devicePixelRatio": 1,
        "colorDepth": 32,
        "hardwareConcurrency": 12,
        "deviceMemory": 8,
        "gpuRenderer": "ANGLE (AMD, AMD Radeon(TM) Graphics (0x00001638) Direct3D11 vs_5_0 ps_5_0, D3D11)",
        "measuredRefreshRateHz": 73
      },
      "attention": {
        "visibilityEvents": []
      },
      "calibration": {
        "monitorWidthCm": 38,
        "viewingDistanceCm": 54,
        "pixelsPerDegree": 50
      },
      "parameters": {
        "coherence": 0.4,
        "apertureDeg": 5,
        "densityDotsPerDeg2": 40,
        "dotDiameterDeg": 0.035,
        "dotSpeedDegPerSec": 3,
        "lifetimeMs": 200,
        "fixationDurationMs": 1500,
        "faceDurationMs": 1500,
        "testDurationMs": 2000,
        "catchResponseMs": 3000
      },
      "prolific": {
        "prolificPid": "67b68f8170e7ae9db8248159",
        "studyId": "",
        "sessionId": ""
      },
      "timing": {
        "startTime": "2026-03-06T02:58:23.184Z",
        "endTime": "2026-03-06T03:12:57.686Z",
        "totalElapsedTimeMs": 874502
      }
    },
    "trials": [
      {
        "trial_number": 0,
        "trial_index": 90,
        "rt": 870,
        "correct": true,
        "response": "ArrowLeft",
        "congruent": true,
        "gazeTowards": true,
        "gazeCondition": "towards",
        "faceOnLeft": false,
        "impliedDirection": 180,
        "testDirection": 180,
        "avgFps": 75,
        "minFps": 74,
        "maxFps": 95,
        "totalFrames": 65,
        "frameRates": 75
      },
      {
        "trial_number": 1,
        "trial_index": 95,
        "rt": 938,
        "correct": false,
        "response": "ArrowRight",
        "congruent": true,
        "gazeTowards": false,
        "gazeCondition": "away",
        "faceOnLeft": false,
        "impliedDirection": 180,
        "testDirection": 180,
        "avgFps": 75,
        "minFps": 74,
        "maxFps": 136,
        "totalFrames": 70,
        "frameRates": 75
      },
      {
        "trial_number": 2,
        "trial_index": 100,
        "rt": 1081,
        "correct": true,
        "response": "ArrowLeft",
        "congruent": true,
        "gazeTowards": true,
        "gazeCondition": "towards",
        "faceOnLeft": false,
        "impliedDirection": 180,
        "testDirection": 180,
        "avgFps": 75,
        "minFps": 72,
        "maxFps": 77,
        "totalFrames": 81,
        "frameRates": 75
      },
      {
        "trial_number": 3,
        "trial_index": 105,
        "rt": 1328,
        "correct": true,
        "response": "ArrowLeft",
        "congruent": false,
        "gazeTowards": false,
        "gazeCondition": "away",
        "faceOnLeft": true,
        "impliedDirection": 0,
        "testDirection": 180,
        "avgFps": 75,
        "minFps": 72,
        "maxFps": 77,
        "totalFrames": 99,
        "frameRates": 75
      },
      {
        "trial_number": 4,
        "trial_index": 110,
        "rt": 1330,
        "correct": true,
        "response": "ArrowLeft",
        "congruent": false,
        "gazeTowards": false,
        "gazeCondition": "away",
        "faceOnLeft": true,
        "impliedDirection": 0,
        "testDirection": 180,
        "avgFps": 75,
        "minFps": 68,
        "maxFps": 80,
        "totalFrames": 99,
        "frameRates": 75
      },
      {
        "trial_number": 5,
        "trial_index": 115,
        "rt": 868,
        "correct": true,
        "response": "ArrowRight",
        "congruent": true,
        "gazeTowards": false,
        "gazeCondition": "away",
        "faceOnLeft": true,
        "impliedDirection": 0,
        "testDirection": 0,
        "avgFps": 75,
        "minFps": 73,
        "maxFps": 76,
        "totalFrames": 65,
        "frameRates": 75
      },
      {
        "trial_number": 6,
        "trial_index": 123,
        "rt": 787,
        "correct": true,
        "response": "ArrowLeft",
        "congruent": true,
        "gazeTowards": true,
        "gazeCondition": "towards",
        "faceOnLeft": false,
        "impliedDirection": 180,
        "testDirection": 180,
        "avgFps": 75,
        "minFps": 74,
        "maxFps": 93,
        "totalFrames": 59,
        "frameRates": 75
      },
      {
        "trial_number": 7,
        "trial_index": 128,
        "rt": 826,
        "correct": true,
        "response": "ArrowLeft",
        "congruent": false,
        "gazeTowards": false,
        "gazeCondition": "away",
        "faceOnLeft": true,
        "impliedDirection": 0,
        "testDirection": 180,
        "avgFps": 75,
        "minFps": 72,
        "maxFps": 77,
        "totalFrames": 61,
        "frameRates": 75
      },
      {
        "trial_number": 8,
        "trial_index": 133,
        "rt": 753,
        "correct": false,
        "response": "ArrowRight",
        "congruent": true,
        "gazeTowards": false,
        "gazeCondition": "away",
        "faceOnLeft": false,
        "impliedDirection": 180,
        "testDirection": 180,
        "avgFps": 75,
        "minFps": 72,
        "maxFps": 76,
        "totalFrames": 56,
        "frameRates": 75
      },
      {
        "trial_number": 9,
        "trial_index": 138,
        "rt": 871,
        "correct": false,
        "response": "ArrowLeft",
        "congruent": true,
        "gazeTowards": false,
        "gazeCondition": "away",
        "faceOnLeft": true,
        "impliedDirection": 0,
        "testDirection": 0,
        "avgFps": 75,
        "minFps": 72,
        "maxFps": 77,
        "totalFrames": 66,
        "frameRates": 75
      },
      {
        "trial_number": 10,
        "trial_index": 143,
        "rt": 671,
        "correct": true,
        "response": "ArrowRight",
        "congruent": false,
        "gazeTowards": true,
        "gazeCondition": "towards",
        "faceOnLeft": false,
        "impliedDirection": 180,
        "testDirection": 0,
        "avgFps": 75,
        "minFps": 72,
        "maxFps": 78,
        "totalFrames": 50,
        "frameRates": 75
      },
      {
        "trial_number": 11,
        "trial_index": 148,
        "rt": 1218,
        "correct": true,
        "response": "ArrowLeft",
        "congruent": true,
        "gazeTowards": true,
        "gazeCondition": "towards",
        "faceOnLeft": false,
        "impliedDirection": 180,
        "testDirection": 180,
        "avgFps": 75,
        "minFps": 74,
        "maxFps": 137,
        "totalFrames": 91,
        "frameRates": 75
      },
      {
        "trial_number": 12,
        "trial_index": 153,
        "rt": 1185,
        "correct": true,
        "response": "ArrowLeft",
        "congruent": false,
        "gazeTowards": false,
        "gazeCondition": "away",
        "faceOnLeft": true,
        "impliedDirection": 0,
        "testDirection": 180,
        "avgFps": 75,
        "minFps": 74,
        "maxFps": 94,
        "totalFrames": 89,
        "frameRates": 75
      },
      {
        "trial_number": 13,
        "trial_index": 158,
        "rt": 701,
        "correct": true,
        "response": "ArrowRight",
        "congruent": true,
        "gazeTowards": true,
        "gazeCondition": "towards",
        "faceOnLeft": true,
        "impliedDirection": 0,
        "testDirection": 0,
        "avgFps": 76,
        "minFps": 75,
        "maxFps": 1825,
        "totalFrames": 53,
        "frameRates": 76
      },
      {
        "trial_number": 14,
        "trial_index": 163,
        "rt": 1078,
        "correct": true,
        "response": "ArrowRight",
        "congruent": false,
        "gazeTowards": true,
        "gazeCondition": "towards",
        "faceOnLeft": false,
        "impliedDirection": 180,
        "testDirection": 0,
        "avgFps": 75,
        "minFps": 72,
        "maxFps": 76,
        "totalFrames": 81,
        "frameRates": 75
      },
      {
        "trial_number": 15,
        "trial_index": 168,
        "rt": 760,
        "correct": true,
        "response": "ArrowLeft",
        "congruent": true,
        "gazeTowards": true,
        "gazeCondition": "towards",
        "faceOnLeft": false,
        "impliedDirection": 180,
        "testDirection": 180,
        "avgFps": 75,
        "minFps": 72,
        "maxFps": 78,
        "totalFrames": 57,
        "frameRates": 75
      },
      {
        "trial_number": 16,
        "trial_index": 173,
        "rt": 1200,
        "correct": false,
        "response": "ArrowRight",
        "congruent": true,
        "gazeTowards": false,
        "gazeCondition": "away",
        "faceOnLeft": false,
        "impliedDirection": 180,
        "testDirection": 180,
        "avgFps": 75,
        "minFps": 72,
        "maxFps": 76,
        "totalFrames": 90,
        "frameRates": 75
      },
      {
        "trial_number": 17,
        "trial_index": 178,
        "rt": 695,
        "correct": true,
        "response": "ArrowLeft",
        "congruent": false,
        "gazeTowards": false,
        "gazeCondition": "away",
        "faceOnLeft": true,
        "impliedDirection": 0,
        "testDirection": 180,
        "avgFps": 75,
        "minFps": 74,
        "maxFps": 94,
        "totalFrames": 52,
        "frameRates": 75
      },
      {
        "trial_number": 18,
        "trial_index": 183,
        "rt": 1030,
        "correct": true,
        "response": "ArrowRight",
        "congruent": false,
        "gazeTowards": true,
        "gazeCondition": "towards",
        "faceOnLeft": false,
        "impliedDirection": 180,
        "testDirection": 0,
        "avgFps": 75,
        "minFps": 73,
        "maxFps": 95,
        "totalFrames": 77,
        "frameRates": 75
      },
      {
        "trial_number": 19,
        "trial_index": 188,
        "rt": 1081,
        "correct": false,
        "response": "ArrowLeft",
        "congruent": true,
        "gazeTowards": true,
        "gazeCondition": "towards",
        "faceOnLeft": true,
        "impliedDirection": 0,
        "testDirection": 0,
        "avgFps": 75,
        "minFps": 71,
        "maxFps": 79,
        "totalFrames": 81,
        "frameRates": 75
      },
      {
        "trial_number": 20,
        "trial_index": 196,
        "rt": 941,
        "correct": true,
        "response": "ArrowRight",
        "congruent": false,
        "gazeTowards": false,
        "gazeCondition": "away",
        "faceOnLeft": false,
        "impliedDirection": 180,
        "testDirection": 0,
        "avgFps": 75,
        "minFps": 72,
        "maxFps": 94,
        "totalFrames": 71,
        "frameRates": 75
      },
      {
        "trial_number": 21,
        "trial_index": 201,
        "rt": 672,
        "correct": true,
        "response": "ArrowLeft",
        "congruent": true,
        "gazeTowards": true,
        "gazeCondition": "towards",
        "faceOnLeft": false,
        "impliedDirection": 180,
        "testDirection": 180,
        "avgFps": 75,
        "minFps": 72,
        "maxFps": 78,
        "totalFrames": 50,
        "frameRates": 75
      },
      {
        "trial_number": 22,
        "trial_index": 206,
        "rt": 957,
        "correct": false,
        "response": "ArrowRight",
        "congruent": false,
        "gazeTowards": true,
        "gazeCondition": "towards",
        "faceOnLeft": true,
        "impliedDirection": 0,
        "testDirection": 180,
        "avgFps": 75,
        "minFps": 74,
        "maxFps": 95,
        "totalFrames": 72,
        "frameRates": 75
      },
      {
        "trial_number": 23,
        "trial_index": 211,
        "rt": 767,
        "correct": true,
        "response": "ArrowRight",
        "congruent": false,
        "gazeTowards": true,
        "gazeCondition": "towards",
        "faceOnLeft": false,
        "impliedDirection": 180,
        "testDirection": 0,
        "avgFps": 75,
        "minFps": 72,
        "maxFps": 95,
        "totalFrames": 58,
        "frameRates": 75
      },
      {
        "trial_number": 24,
        "trial_index": 216,
        "rt": 1209,
        "correct": false,
        "response": "ArrowRight",
        "congruent": true,
        "gazeTowards": true,
        "gazeCondition": "towards",
        "faceOnLeft": false,
        "impliedDirection": 180,
        "testDirection": 180,
        "avgFps": 75,
        "minFps": 72,
        "maxFps": 78,
        "totalFrames": 91,
        "frameRates": 75
      },
      {
        "trial_number": 25,
        "trial_index": 224,
        "rt": 994,
        "correct": true,
        "response": "ArrowRight",
        "congruent": false,
        "gazeTowards": true,
        "gazeCondition": "towards",
        "faceOnLeft": false,
        "impliedDirection": 180,
        "testDirection": 0,
        "avgFps": 75,
        "minFps": 72,
        "maxFps": 78,
        "totalFrames": 74,
        "frameRates": 75
      },
      {
        "trial_number": 26,
        "trial_index": 232,
        "rt": 1398,
        "correct": false,
        "response": "ArrowRight",
        "congruent": false,
        "gazeTowards": false,
        "gazeCondition": "away",
        "faceOnLeft": true,
        "impliedDirection": 0,
        "testDirection": 180,
        "avgFps": 75,
        "minFps": 72,
        "maxFps": 77,
        "totalFrames": 105,
        "frameRates": 75
      },
      {
        "trial_number": 27,
        "trial_index": 237,
        "rt": 1384,
        "correct": false,
        "response": "ArrowRight",
        "congruent": true,
        "gazeTowards": false,
        "gazeCondition": "away",
        "faceOnLeft": false,
        "impliedDirection": 180,
        "testDirection": 180,
        "avgFps": 75,
        "minFps": 74,
        "maxFps": 94,
        "totalFrames": 103,
        "frameRates": 75
      },
      {
        "trial_number": 28,
        "trial_index": 242,
        "rt": 1335,
        "correct": false,
        "response": "ArrowRight",
        "congruent": false,
        "gazeTowards": false,
        "gazeCondition": "away",
        "faceOnLeft": true,
        "impliedDirection": 0,
        "testDirection": 180,
        "avgFps": 75,
        "minFps": 74,
        "maxFps": 139,
        "totalFrames": 100,
        "frameRates": 75
      },
      {
        "trial_number": 29,
        "trial_index": 248,
        "rt": 1121,
        "correct": true,
        "response": "ArrowLeft",
        "congruent": false,
        "gazeTowards": true,
        "gazeCondition": "towards",
        "faceOnLeft": true,
        "impliedDirection": 0,
        "testDirection": 180,
        "avgFps": 75,
        "minFps": 72,
        "maxFps": 94,
        "totalFrames": 84,
        "frameRates": 75
      },
      {
        "trial_number": 30,
        "trial_index": 253,
        "rt": 1269,
        "correct": true,
        "response": "ArrowRight",
        "congruent": true,
        "gazeTowards": true,
        "gazeCondition": "towards",
        "faceOnLeft": true,
        "impliedDirection": 0,
        "testDirection": 0,
        "avgFps": 75,
        "minFps": 72,
        "maxFps": 78,
        "totalFrames": 95,
        "frameRates": 75
      },
      {
        "trial_number": 31,
        "trial_index": 258,
        "rt": 931,
        "correct": true,
        "response": "ArrowRight",
        "congruent": true,
        "gazeTowards": true,
        "gazeCondition": "towards",
        "faceOnLeft": true,
        "impliedDirection": 0,
        "testDirection": 0,
        "avgFps": 75,
        "minFps": 72,
        "maxFps": 76,
        "totalFrames": 70,
        "frameRates": 75
      },
      {
        "trial_number": 32,
        "trial_index": 263,
        "rt": 945,
        "correct": true,
        "response": "ArrowLeft",
        "congruent": false,
        "gazeTowards": false,
        "gazeCondition": "away",
        "faceOnLeft": true,
        "impliedDirection": 0,
        "testDirection": 180,
        "avgFps": 75,
        "minFps": 72,
        "maxFps": 78,
        "totalFrames": 71,
        "frameRates": 75
      },
      {
        "trial_number": 33,
        "trial_index": 268,
        "rt": 1199,
        "correct": true,
        "response": "ArrowLeft",
        "congruent": false,
        "gazeTowards": false,
        "gazeCondition": "away",
        "faceOnLeft": true,
        "impliedDirection": 0,
        "testDirection": 180,
        "avgFps": 75,
        "minFps": 71,
        "maxFps": 78,
        "totalFrames": 89,
        "frameRates": 75
      },
      {
        "trial_number": 34,
        "trial_index": 273,
        "rt": 784,
        "correct": true,
        "response": "ArrowRight",
        "congruent": true,
        "gazeTowards": false,
        "gazeCondition": "away",
        "faceOnLeft": true,
        "impliedDirection": 0,
        "testDirection": 0,
        "avgFps": 76,
        "minFps": 73,
        "maxFps": 138,
        "totalFrames": 59,
        "frameRates": 76
      },
      {
        "trial_number": 35,
        "trial_index": 278,
        "rt": 1010,
        "correct": true,
        "response": "ArrowRight",
        "congruent": false,
        "gazeTowards": true,
        "gazeCondition": "towards",
        "faceOnLeft": false,
        "impliedDirection": 180,
        "testDirection": 0,
        "avgFps": 75,
        "minFps": 72,
        "maxFps": 76,
        "totalFrames": 76,
        "frameRates": 75
      },
      {
        "trial_number": 36,
        "trial_index": 283,
        "rt": 1200,
        "correct": true,
        "response": "ArrowRight",
        "congruent": false,
        "gazeTowards": false,
        "gazeCondition": "away",
        "faceOnLeft": false,
        "impliedDirection": 180,
        "testDirection": 0,
        "avgFps": 75,
        "minFps": 72,
        "maxFps": 78,
        "totalFrames": 90,
        "frameRates": 75
      },
      {
        "trial_number": 37,
        "trial_index": 288,
        "rt": 965,
        "correct": true,
        "response": "ArrowLeft",
        "congruent": true,
        "gazeTowards": false,
        "gazeCondition": "away",
        "faceOnLeft": false,
        "impliedDirection": 180,
        "testDirection": 180,
        "avgFps": 75,
        "minFps": 74,
        "maxFps": 95,
        "totalFrames": 72,
        "frameRates": 75
      },
      {
        "trial_number": 38,
        "trial_index": 293,
        "rt": 1351,
        "correct": false,
        "response": "ArrowRight",
        "congruent": false,
        "gazeTowards": false,
        "gazeCondition": "away",
        "faceOnLeft": true,
        "impliedDirection": 0,
        "testDirection": 180,
        "avgFps": 75,
        "minFps": 72,
        "maxFps": 78,
        "totalFrames": 101,
        "frameRates": 75
      },
      {
        "trial_number": 39,
        "trial_index": 298,
        "rt": 1495,
        "correct": true,
        "response": "ArrowLeft",
        "congruent": true,
        "gazeTowards": false,
        "gazeCondition": "away",
        "faceOnLeft": false,
        "impliedDirection": 180,
        "testDirection": 180,
        "avgFps": 75,
        "minFps": 68,
        "maxFps": 81,
        "totalFrames": 112,
        "frameRates": 75
      },
      {
        "trial_number": 40,
        "trial_index": 303,
        "rt": 1234,
        "correct": false,
        "response": "ArrowRight",
        "congruent": true,
        "gazeTowards": false,
        "gazeCondition": "away",
        "faceOnLeft": false,
        "impliedDirection": 180,
        "testDirection": 180,
        "avgFps": 75,
        "minFps": 72,
        "maxFps": 136,
        "totalFrames": 93,
        "frameRates": 75
      },
      {
        "trial_number": 41,
        "trial_index": 308,
        "rt": 1173,
        "correct": true,
        "response": "ArrowLeft",
        "congruent": true,
        "gazeTowards": true,
        "gazeCondition": "towards",
        "faceOnLeft": false,
        "impliedDirection": 180,
        "testDirection": 180,
        "avgFps": 75,
        "minFps": 72,
        "maxFps": 78,
        "totalFrames": 88,
        "frameRates": 75
      },
      {
        "trial_number": 42,
        "trial_index": 313,
        "rt": 1023,
        "correct": false,
        "response": "ArrowRight",
        "congruent": false,
        "gazeTowards": true,
        "gazeCondition": "towards",
        "faceOnLeft": true,
        "impliedDirection": 0,
        "testDirection": 180,
        "avgFps": 75,
        "minFps": 72,
        "maxFps": 76,
        "totalFrames": 77,
        "frameRates": 75
      },
      {
        "trial_number": 43,
        "trial_index": 318,
        "rt": 840,
        "correct": true,
        "response": "ArrowRight",
        "congruent": false,
        "gazeTowards": true,
        "gazeCondition": "towards",
        "faceOnLeft": false,
        "impliedDirection": 180,
        "testDirection": 0,
        "avgFps": 75,
        "minFps": 72,
        "maxFps": 76,
        "totalFrames": 63,
        "frameRates": 75
      },
      {
        "trial_number": 44,
        "trial_index": 323,
        "rt": 1365,
        "correct": false,
        "response": "ArrowRight",
        "congruent": false,
        "gazeTowards": true,
        "gazeCondition": "towards",
        "faceOnLeft": true,
        "impliedDirection": 0,
        "testDirection": 180,
        "avgFps": 75,
        "minFps": 72,
        "maxFps": 76,
        "totalFrames": 102,
        "frameRates": 75
      },
      {
        "trial_number": 45,
        "trial_index": 331,
        "rt": 1202,
        "correct": false,
        "response": "ArrowLeft",
        "congruent": true,
        "gazeTowards": true,
        "gazeCondition": "towards",
        "faceOnLeft": true,
        "impliedDirection": 0,
        "testDirection": 0,
        "avgFps": 75,
        "minFps": 72,
        "maxFps": 76,
        "totalFrames": 90,
        "frameRates": 75
      },
      {
        "trial_number": 46,
        "trial_index": 336,
        "rt": 1501,
        "correct": false,
        "response": "ArrowRight",
        "congruent": false,
        "gazeTowards": true,
        "gazeCondition": "towards",
        "faceOnLeft": true,
        "impliedDirection": 0,
        "testDirection": 180,
        "avgFps": 75,
        "minFps": 72,
        "maxFps": 94,
        "totalFrames": 113,
        "frameRates": 75
      },
      {
        "trial_number": 47,
        "trial_index": 341,
        "rt": 1201,
        "correct": false,
        "response": "ArrowRight",
        "congruent": true,
        "gazeTowards": true,
        "gazeCondition": "towards",
        "faceOnLeft": false,
        "impliedDirection": 180,
        "testDirection": 180,
        "avgFps": 75,
        "minFps": 73,
        "maxFps": 77,
        "totalFrames": 90,
        "frameRates": 75
      },
      {
        "trial_number": 48,
        "trial_index": 346,
        "rt": 1042,
        "correct": true,
        "response": "ArrowRight",
        "congruent": false,
        "gazeTowards": false,
        "gazeCondition": "away",
        "faceOnLeft": false,
        "impliedDirection": 180,
        "testDirection": 0,
        "avgFps": 75,
        "minFps": 72,
        "maxFps": 76,
        "totalFrames": 78,
        "frameRates": 75
      },
      {
        "trial_number": 49,
        "trial_index": 351,
        "rt": 1213,
        "correct": false,
        "response": "ArrowRight",
        "congruent": true,
        "gazeTowards": false,
        "gazeCondition": "away",
        "faceOnLeft": false,
        "impliedDirection": 180,
        "testDirection": 180,
        "avgFps": 75,
        "minFps": 72,
        "maxFps": 78,
        "totalFrames": 90,
        "frameRates": 75
      },
      {
        "trial_number": 50,
        "trial_index": 356,
        "rt": 1095,
        "correct": false,
        "response": "ArrowRight",
        "congruent": false,
        "gazeTowards": true,
        "gazeCondition": "towards",
        "faceOnLeft": true,
        "impliedDirection": 0,
        "testDirection": 180,
        "avgFps": 75,
        "minFps": 75,
        "maxFps": 137,
        "totalFrames": 82,
        "frameRates": 75
      },
      {
        "trial_number": 51,
        "trial_index": 361,
        "rt": 1035,
        "correct": false,
        "response": "ArrowLeft",
        "congruent": true,
        "gazeTowards": true,
        "gazeCondition": "towards",
        "faceOnLeft": true,
        "impliedDirection": 0,
        "testDirection": 0,
        "avgFps": 75,
        "minFps": 72,
        "maxFps": 78,
        "totalFrames": 77,
        "frameRates": 75
      },
      {
        "trial_number": 52,
        "trial_index": 366,
        "rt": 1312,
        "correct": false,
        "response": "ArrowRight",
        "congruent": true,
        "gazeTowards": false,
        "gazeCondition": "away",
        "faceOnLeft": false,
        "impliedDirection": 180,
        "testDirection": 180,
        "avgFps": 75,
        "minFps": 45,
        "maxFps": 84,
        "totalFrames": 98,
        "frameRates": 75
      },
      {
        "trial_number": 53,
        "trial_index": 371,
        "rt": 1031,
        "correct": true,
        "response": "ArrowRight",
        "congruent": false,
        "gazeTowards": true,
        "gazeCondition": "towards",
        "faceOnLeft": false,
        "impliedDirection": 180,
        "testDirection": 0,
        "avgFps": 75,
        "minFps": 74,
        "maxFps": 94,
        "totalFrames": 77,
        "frameRates": 75
      },
      {
        "trial_number": 54,
        "trial_index": 379,
        "rt": 1053,
        "correct": true,
        "response": "ArrowLeft",
        "congruent": true,
        "gazeTowards": true,
        "gazeCondition": "towards",
        "faceOnLeft": false,
        "impliedDirection": 180,
        "testDirection": 180,
        "avgFps": 75,
        "minFps": 72,
        "maxFps": 78,
        "totalFrames": 78,
        "frameRates": 75
      },
      {
        "trial_number": 55,
        "trial_index": 384,
        "rt": 784,
        "correct": true,
        "response": "ArrowRight",
        "congruent": false,
        "gazeTowards": false,
        "gazeCondition": "away",
        "faceOnLeft": false,
        "impliedDirection": 180,
        "testDirection": 0,
        "avgFps": 75,
        "minFps": 74,
        "maxFps": 81,
        "totalFrames": 57,
        "frameRates": 75
      },
      {
        "trial_number": 56,
        "trial_index": 392,
        "rt": 1189,
        "correct": true,
        "response": "ArrowLeft",
        "congruent": true,
        "gazeTowards": true,
        "gazeCondition": "towards",
        "faceOnLeft": false,
        "impliedDirection": 180,
        "testDirection": 180,
        "avgFps": 75,
        "minFps": 74,
        "maxFps": 94,
        "totalFrames": 89,
        "frameRates": 75
      },
      {
        "trial_number": 57,
        "trial_index": 397,
        "rt": 1528,
        "correct": true,
        "response": "ArrowRight",
        "congruent": false,
        "gazeTowards": false,
        "gazeCondition": "away",
        "faceOnLeft": false,
        "impliedDirection": 180,
        "testDirection": 0,
        "avgFps": 75,
        "minFps": 72,
        "maxFps": 145,
        "totalFrames": 115,
        "frameRates": 75
      },
      {
        "trial_number": 58,
        "trial_index": 402,
        "rt": 1039,
        "correct": true,
        "response": "ArrowLeft",
        "congruent": true,
        "gazeTowards": false,
        "gazeCondition": "away",
        "faceOnLeft": false,
        "impliedDirection": 180,
        "testDirection": 180,
        "avgFps": 75,
        "minFps": 72,
        "maxFps": 77,
        "totalFrames": 78,
        "frameRates": 75
      },
      {
        "trial_number": 59,
        "trial_index": 408,
        "rt": 947,
        "correct": true,
        "response": "ArrowLeft",
        "congruent": true,
        "gazeTowards": false,
        "gazeCondition": "away",
        "faceOnLeft": false,
        "impliedDirection": 180,
        "testDirection": 180,
        "avgFps": 75,
        "minFps": 73,
        "maxFps": 137,
        "totalFrames": 71,
        "frameRates": 75
      },
      {
        "trial_number": 60,
        "trial_index": 413,
        "rt": 988,
        "correct": false,
        "response": "ArrowRight",
        "congruent": false,
        "gazeTowards": true,
        "gazeCondition": "towards",
        "faceOnLeft": true,
        "impliedDirection": 0,
        "testDirection": 180,
        "avgFps": 75,
        "minFps": 74,
        "maxFps": 136,
        "totalFrames": 74,
        "frameRates": 75
      },
      {
        "trial_number": 61,
        "trial_index": 418,
        "rt": 893,
        "correct": false,
        "response": "ArrowRight",
        "congruent": false,
        "gazeTowards": false,
        "gazeCondition": "away",
        "faceOnLeft": true,
        "impliedDirection": 0,
        "testDirection": 180,
        "avgFps": 75,
        "minFps": 72,
        "maxFps": 76,
        "totalFrames": 67,
        "frameRates": 75
      },
      {
        "trial_number": 62,
        "trial_index": 423,
        "rt": 881,
        "correct": true,
        "response": "ArrowRight",
        "congruent": false,
        "gazeTowards": false,
        "gazeCondition": "away",
        "faceOnLeft": false,
        "impliedDirection": 180,
        "testDirection": 0,
        "avgFps": 75,
        "minFps": 74,
        "maxFps": 138,
        "totalFrames": 66,
        "frameRates": 75
      },
      {
        "trial_number": 63,
        "trial_index": 428,
        "rt": 1093,
        "correct": false,
        "response": "ArrowRight",
        "congruent": false,
        "gazeTowards": true,
        "gazeCondition": "towards",
        "faceOnLeft": true,
        "impliedDirection": 0,
        "testDirection": 180,
        "avgFps": 75,
        "minFps": 64,
        "maxFps": 87,
        "totalFrames": 81,
        "frameRates": 75
      },
      {
        "trial_number": 64,
        "trial_index": 433,
        "rt": 1574,
        "correct": true,
        "response": "ArrowRight",
        "congruent": true,
        "gazeTowards": false,
        "gazeCondition": "away",
        "faceOnLeft": true,
        "impliedDirection": 0,
        "testDirection": 0,
        "avgFps": 75,
        "minFps": 74,
        "maxFps": 95,
        "totalFrames": 118,
        "frameRates": 75
      },
      {
        "trial_number": 65,
        "trial_index": 438,
        "rt": 1045,
        "correct": true,
        "response": "ArrowLeft",
        "congruent": false,
        "gazeTowards": true,
        "gazeCondition": "towards",
        "faceOnLeft": true,
        "impliedDirection": 0,
        "testDirection": 180,
        "avgFps": 75,
        "minFps": 72,
        "maxFps": 76,
        "totalFrames": 78,
        "frameRates": 75
      },
      {
        "trial_number": 66,
        "trial_index": 443,
        "rt": 1005,
        "correct": true,
        "response": "ArrowRight",
        "congruent": false,
        "gazeTowards": true,
        "gazeCondition": "towards",
        "faceOnLeft": false,
        "impliedDirection": 180,
        "testDirection": 0,
        "avgFps": 75,
        "minFps": 74,
        "maxFps": 94,
        "totalFrames": 75,
        "frameRates": 75
      },
      {
        "trial_number": 67,
        "trial_index": 448,
        "rt": 792,
        "correct": true,
        "response": "ArrowLeft",
        "congruent": true,
        "gazeTowards": true,
        "gazeCondition": "towards",
        "faceOnLeft": false,
        "impliedDirection": 180,
        "testDirection": 180,
        "avgFps": 75,
        "minFps": 72,
        "maxFps": 77,
        "totalFrames": 59,
        "frameRates": 75
      },
      {
        "trial_number": 68,
        "trial_index": 453,
        "rt": 923,
        "correct": true,
        "response": "ArrowLeft",
        "congruent": true,
        "gazeTowards": false,
        "gazeCondition": "away",
        "faceOnLeft": false,
        "impliedDirection": 180,
        "testDirection": 180,
        "avgFps": 75,
        "minFps": 72,
        "maxFps": 77,
        "totalFrames": 69,
        "frameRates": 75
      },
      {
        "trial_number": 69,
        "trial_index": 458,
        "rt": 1004,
        "correct": false,
        "response": "ArrowRight",
        "congruent": false,
        "gazeTowards": true,
        "gazeCondition": "towards",
        "faceOnLeft": true,
        "impliedDirection": 0,
        "testDirection": 180,
        "avgFps": 75,
        "minFps": 72,
        "maxFps": 76,
        "totalFrames": 75,
        "frameRates": 75
      },
      {
        "trial_number": 70,
        "trial_index": 463,
        "rt": 1255,
        "correct": true,
        "response": "ArrowLeft",
        "congruent": false,
        "gazeTowards": false,
        "gazeCondition": "away",
        "faceOnLeft": true,
        "impliedDirection": 0,
        "testDirection": 180,
        "avgFps": 75,
        "minFps": 72,
        "maxFps": 76,
        "totalFrames": 94,
        "frameRates": 75
      },
      {
        "trial_number": 71,
        "trial_index": 468,
        "rt": 706,
        "correct": true,
        "response": "ArrowRight",
        "congruent": false,
        "gazeTowards": true,
        "gazeCondition": "towards",
        "faceOnLeft": false,
        "impliedDirection": 180,
        "testDirection": 0,
        "avgFps": 76,
        "minFps": 75,
        "maxFps": 139,
        "totalFrames": 53,
        "frameRates": 76
      },
      {
        "trial_number": 72,
        "trial_index": 473,
        "rt": 1049,
        "correct": true,
        "response": "ArrowRight",
        "congruent": true,
        "gazeTowards": true,
        "gazeCondition": "towards",
        "faceOnLeft": true,
        "impliedDirection": 0,
        "testDirection": 0,
        "avgFps": 75,
        "minFps": 72,
        "maxFps": 76,
        "totalFrames": 78,
        "frameRates": 75
      },
      {
        "trial_number": 73,
        "trial_index": 478,
        "rt": 1208,
        "correct": true,
        "response": "ArrowLeft",
        "congruent": true,
        "gazeTowards": false,
        "gazeCondition": "away",
        "faceOnLeft": false,
        "impliedDirection": 180,
        "testDirection": 180,
        "avgFps": 75,
        "minFps": 68,
        "maxFps": 80,
        "totalFrames": 90,
        "frameRates": 75
      },
      {
        "trial_number": 74,
        "trial_index": 483,
        "rt": 997,
        "correct": true,
        "response": "ArrowRight",
        "congruent": false,
        "gazeTowards": false,
        "gazeCondition": "away",
        "faceOnLeft": false,
        "impliedDirection": 180,
        "testDirection": 0,
        "avgFps": 75,
        "minFps": 72,
        "maxFps": 78,
        "totalFrames": 75,
        "frameRates": 75
      },
      {
        "trial_number": 75,
        "trial_index": 488,
        "rt": 1191,
        "correct": true,
        "response": "ArrowRight",
        "congruent": false,
        "gazeTowards": false,
        "gazeCondition": "away",
        "faceOnLeft": false,
        "impliedDirection": 180,
        "testDirection": 0,
        "avgFps": 75,
        "minFps": 71,
        "maxFps": 76,
        "totalFrames": 89,
        "frameRates": 75
      },
      {
        "trial_number": 76,
        "trial_index": 493,
        "rt": 1161,
        "correct": true,
        "response": "ArrowLeft",
        "congruent": false,
        "gazeTowards": true,
        "gazeCondition": "towards",
        "faceOnLeft": true,
        "impliedDirection": 0,
        "testDirection": 180,
        "avgFps": 75,
        "minFps": 72,
        "maxFps": 76,
        "totalFrames": 87,
        "frameRates": 75
      },
      {
        "trial_number": 77,
        "trial_index": 498,
        "rt": 679,
        "correct": true,
        "response": "ArrowRight",
        "congruent": true,
        "gazeTowards": false,
        "gazeCondition": "away",
        "faceOnLeft": true,
        "impliedDirection": 0,
        "testDirection": 0,
        "avgFps": 75,
        "minFps": 72,
        "maxFps": 78,
        "totalFrames": 51,
        "frameRates": 75
      },
      {
        "trial_number": 78,
        "trial_index": 503,
        "rt": 1170,
        "correct": true,
        "response": "ArrowLeft",
        "congruent": false,
        "gazeTowards": true,
        "gazeCondition": "towards",
        "faceOnLeft": true,
        "impliedDirection": 0,
        "testDirection": 180,
        "avgFps": 75,
        "minFps": 72,
        "maxFps": 77,
        "totalFrames": 87,
        "frameRates": 75
      },
      {
        "trial_number": 79,
        "trial_index": 508,
        "rt": 1252,
        "correct": false,
        "response": "ArrowRight",
        "congruent": false,
        "gazeTowards": false,
        "gazeCondition": "away",
        "faceOnLeft": true,
        "impliedDirection": 0,
        "testDirection": 180,
        "avgFps": 75,
        "minFps": 73,
        "maxFps": 76,
        "totalFrames": 94,
        "frameRates": 75
      },
      {
        "trial_number": 80,
        "trial_index": 513,
        "rt": 1526,
        "correct": true,
        "response": "ArrowLeft",
        "congruent": true,
        "gazeTowards": true,
        "gazeCondition": "towards",
        "faceOnLeft": false,
        "impliedDirection": 180,
        "testDirection": 180,
        "avgFps": 75,
        "minFps": 74,
        "maxFps": 81,
        "totalFrames": 113,
        "frameRates": 75
      },
      {
        "trial_number": 81,
        "trial_index": 521,
        "rt": 1183,
        "correct": true,
        "response": "ArrowRight",
        "congruent": true,
        "gazeTowards": true,
        "gazeCondition": "towards",
        "faceOnLeft": true,
        "impliedDirection": 0,
        "testDirection": 0,
        "avgFps": 75,
        "minFps": 72,
        "maxFps": 78,
        "totalFrames": 89,
        "frameRates": 75
      },
      {
        "trial_number": 82,
        "trial_index": 526,
        "rt": 813,
        "correct": true,
        "response": "ArrowLeft",
        "congruent": true,
        "gazeTowards": false,
        "gazeCondition": "away",
        "faceOnLeft": false,
        "impliedDirection": 180,
        "testDirection": 180,
        "avgFps": 76,
        "minFps": 75,
        "maxFps": 138,
        "totalFrames": 61,
        "frameRates": 76
      },
      {
        "trial_number": 83,
        "trial_index": 534,
        "rt": 898,
        "correct": true,
        "response": "ArrowRight",
        "congruent": true,
        "gazeTowards": false,
        "gazeCondition": "away",
        "faceOnLeft": true,
        "impliedDirection": 0,
        "testDirection": 0,
        "avgFps": 75,
        "minFps": 72,
        "maxFps": 77,
        "totalFrames": 67,
        "frameRates": 75
      },
      {
        "trial_number": 84,
        "trial_index": 539,
        "rt": 779,
        "correct": true,
        "response": "ArrowLeft",
        "congruent": true,
        "gazeTowards": false,
        "gazeCondition": "away",
        "faceOnLeft": false,
        "impliedDirection": 180,
        "testDirection": 180,
        "avgFps": 75,
        "minFps": 72,
        "maxFps": 76,
        "totalFrames": 58,
        "frameRates": 75
      },
      {
        "trial_number": 85,
        "trial_index": 544,
        "rt": 1090,
        "correct": true,
        "response": "ArrowRight",
        "congruent": true,
        "gazeTowards": false,
        "gazeCondition": "away",
        "faceOnLeft": true,
        "impliedDirection": 0,
        "testDirection": 0,
        "avgFps": 75,
        "minFps": 74,
        "maxFps": 95,
        "totalFrames": 81,
        "frameRates": 75
      },
      {
        "trial_number": 86,
        "trial_index": 552,
        "rt": 1138,
        "correct": true,
        "response": "ArrowLeft",
        "congruent": true,
        "gazeTowards": true,
        "gazeCondition": "towards",
        "faceOnLeft": false,
        "impliedDirection": 180,
        "testDirection": 180,
        "avgFps": 75,
        "minFps": 72,
        "maxFps": 76,
        "totalFrames": 85,
        "frameRates": 75
      },
      {
        "trial_number": 87,
        "trial_index": 557,
        "rt": 1280,
        "correct": false,
        "response": "ArrowRight",
        "congruent": true,
        "gazeTowards": true,
        "gazeCondition": "towards",
        "faceOnLeft": false,
        "impliedDirection": 180,
        "testDirection": 180,
        "avgFps": 75,
        "minFps": 74,
        "maxFps": 94,
        "totalFrames": 96,
        "frameRates": 75
      },
      {
        "trial_number": 88,
        "trial_index": 562,
        "rt": 1090,
        "correct": true,
        "response": "ArrowLeft",
        "congruent": false,
        "gazeTowards": true,
        "gazeCondition": "towards",
        "faceOnLeft": true,
        "impliedDirection": 0,
        "testDirection": 180,
        "avgFps": 75,
        "minFps": 72,
        "maxFps": 76,
        "totalFrames": 81,
        "frameRates": 75
      },
      {
        "trial_number": 89,
        "trial_index": 568,
        "rt": 703,
        "correct": true,
        "response": "ArrowRight",
        "congruent": false,
        "gazeTowards": true,
        "gazeCondition": "towards",
        "faceOnLeft": false,
        "impliedDirection": 180,
        "testDirection": 0,
        "avgFps": 76,
        "minFps": 75,
        "maxFps": 138,
        "totalFrames": 53,
        "frameRates": 76
      },
      {
        "trial_number": 90,
        "trial_index": 573,
        "rt": 681,
        "correct": true,
        "response": "ArrowLeft",
        "congruent": true,
        "gazeTowards": true,
        "gazeCondition": "towards",
        "faceOnLeft": false,
        "impliedDirection": 180,
        "testDirection": 180,
        "avgFps": 75,
        "minFps": 72,
        "maxFps": 76,
        "totalFrames": 51,
        "frameRates": 75
      },
      {
        "trial_number": 91,
        "trial_index": 578,
        "rt": 683,
        "correct": true,
        "response": "ArrowRight",
        "congruent": false,
        "gazeTowards": false,
        "gazeCondition": "away",
        "faceOnLeft": false,
        "impliedDirection": 180,
        "testDirection": 0,
        "avgFps": 75,
        "minFps": 72,
        "maxFps": 78,
        "totalFrames": 51,
        "frameRates": 75
      },
      {
        "trial_number": 92,
        "trial_index": 583,
        "rt": 826,
        "correct": true,
        "response": "ArrowRight",
        "congruent": true,
        "gazeTowards": false,
        "gazeCondition": "away",
        "faceOnLeft": true,
        "impliedDirection": 0,
        "testDirection": 0,
        "avgFps": 75,
        "minFps": 72,
        "maxFps": 94,
        "totalFrames": 62,
        "frameRates": 75
      },
      {
        "trial_number": 93,
        "trial_index": 588,
        "rt": 716,
        "correct": true,
        "response": "ArrowLeft",
        "congruent": false,
        "gazeTowards": true,
        "gazeCondition": "towards",
        "faceOnLeft": true,
        "impliedDirection": 0,
        "testDirection": 180,
        "avgFps": 75,
        "minFps": 74,
        "maxFps": 98,
        "totalFrames": 54,
        "frameRates": 75
      },
      {
        "trial_number": 94,
        "trial_index": 593,
        "rt": 894,
        "correct": true,
        "response": "ArrowLeft",
        "congruent": false,
        "gazeTowards": true,
        "gazeCondition": "towards",
        "faceOnLeft": true,
        "impliedDirection": 0,
        "testDirection": 180,
        "avgFps": 75,
        "minFps": 72,
        "maxFps": 78,
        "totalFrames": 67,
        "frameRates": 75
      },
      {
        "trial_number": 95,
        "trial_index": 598,
        "rt": 829,
        "correct": false,
        "response": "ArrowRight",
        "congruent": false,
        "gazeTowards": false,
        "gazeCondition": "away",
        "faceOnLeft": true,
        "impliedDirection": 0,
        "testDirection": 180,
        "avgFps": 75,
        "minFps": 74,
        "maxFps": 96,
        "totalFrames": 62,
        "frameRates": 75
      },
      {
        "trial_number": 96,
        "trial_index": 603,
        "rt": 1131,
        "correct": true,
        "response": "ArrowLeft",
        "congruent": true,
        "gazeTowards": true,
        "gazeCondition": "towards",
        "faceOnLeft": false,
        "impliedDirection": 180,
        "testDirection": 180,
        "avgFps": 75,
        "minFps": 72,
        "maxFps": 76,
        "totalFrames": 84,
        "frameRates": 75
      },
      {
        "trial_number": 97,
        "trial_index": 608,
        "rt": 1143,
        "correct": true,
        "response": "ArrowLeft",
        "congruent": false,
        "gazeTowards": true,
        "gazeCondition": "towards",
        "faceOnLeft": true,
        "impliedDirection": 0,
        "testDirection": 180,
        "avgFps": 75,
        "minFps": 74,
        "maxFps": 77,
        "totalFrames": 86,
        "frameRates": 75
      },
      {
        "trial_number": 98,
        "trial_index": 613,
        "rt": 800,
        "correct": true,
        "response": "ArrowLeft",
        "congruent": false,
        "gazeTowards": true,
        "gazeCondition": "towards",
        "faceOnLeft": true,
        "impliedDirection": 0,
        "testDirection": 180,
        "avgFps": 75,
        "minFps": 72,
        "maxFps": 77,
        "totalFrames": 59,
        "frameRates": 75
      },
      {
        "trial_number": 99,
        "trial_index": 621,
        "rt": 1036,
        "correct": true,
        "response": "ArrowRight",
        "congruent": false,
        "gazeTowards": false,
        "gazeCondition": "away",
        "faceOnLeft": false,
        "impliedDirection": 180,
        "testDirection": 0,
        "avgFps": 75,
        "minFps": 72,
        "maxFps": 76,
        "totalFrames": 78,
        "frameRates": 75
      },
      {
        "trial_number": 100,
        "trial_index": 629,
        "rt": 725,
        "correct": false,
        "response": "ArrowLeft",
        "congruent": false,
        "gazeTowards": true,
        "gazeCondition": "towards",
        "faceOnLeft": false,
        "impliedDirection": 180,
        "testDirection": 0,
        "avgFps": 75,
        "minFps": 72,
        "maxFps": 76,
        "totalFrames": 54,
        "frameRates": 75
      },
      {
        "trial_number": 101,
        "trial_index": 634,
        "rt": 1017,
        "correct": false,
        "response": "ArrowLeft",
        "congruent": true,
        "gazeTowards": true,
        "gazeCondition": "towards",
        "faceOnLeft": true,
        "impliedDirection": 0,
        "testDirection": 0,
        "avgFps": 75,
        "minFps": 72,
        "maxFps": 76,
        "totalFrames": 76,
        "frameRates": 75
      },
      {
        "trial_number": 102,
        "trial_index": 639,
        "rt": 1061,
        "correct": true,
        "response": "ArrowLeft",
        "congruent": false,
        "gazeTowards": false,
        "gazeCondition": "away",
        "faceOnLeft": true,
        "impliedDirection": 0,
        "testDirection": 180,
        "avgFps": 75,
        "minFps": 73,
        "maxFps": 136,
        "totalFrames": 79,
        "frameRates": 75
      },
      {
        "trial_number": 103,
        "trial_index": 644,
        "rt": 1220,
        "correct": true,
        "response": "ArrowRight",
        "congruent": true,
        "gazeTowards": true,
        "gazeCondition": "towards",
        "faceOnLeft": true,
        "impliedDirection": 0,
        "testDirection": 0,
        "avgFps": 74,
        "minFps": 40,
        "maxFps": 83,
        "totalFrames": 91,
        "frameRates": 74
      },
      {
        "trial_number": 104,
        "trial_index": 649,
        "rt": 1266,
        "correct": false,
        "response": "ArrowLeft",
        "congruent": true,
        "gazeTowards": true,
        "gazeCondition": "towards",
        "faceOnLeft": true,
        "impliedDirection": 0,
        "testDirection": 0,
        "avgFps": 75,
        "minFps": 72,
        "maxFps": 76,
        "totalFrames": 95,
        "frameRates": 75
      },
      {
        "trial_number": 105,
        "trial_index": 654,
        "rt": 718,
        "correct": true,
        "response": "ArrowLeft",
        "congruent": true,
        "gazeTowards": true,
        "gazeCondition": "towards",
        "faceOnLeft": false,
        "impliedDirection": 180,
        "testDirection": 180,
        "avgFps": 75,
        "minFps": 72,
        "maxFps": 77,
        "totalFrames": 54,
        "frameRates": 75
      },
      {
        "trial_number": 106,
        "trial_index": 659,
        "rt": 1172,
        "correct": true,
        "response": "ArrowLeft",
        "congruent": true,
        "gazeTowards": false,
        "gazeCondition": "away",
        "faceOnLeft": false,
        "impliedDirection": 180,
        "testDirection": 180,
        "avgFps": 75,
        "minFps": 74,
        "maxFps": 95,
        "totalFrames": 88,
        "frameRates": 75
      },
      {
        "trial_number": 107,
        "trial_index": 664,
        "rt": 981,
        "correct": true,
        "response": "ArrowLeft",
        "congruent": true,
        "gazeTowards": false,
        "gazeCondition": "away",
        "faceOnLeft": false,
        "impliedDirection": 180,
        "testDirection": 180,
        "avgFps": 75,
        "minFps": 72,
        "maxFps": 78,
        "totalFrames": 73,
        "frameRates": 75
      },
      {
        "trial_number": 108,
        "trial_index": 669,
        "rt": 661,
        "correct": true,
        "response": "ArrowLeft",
        "congruent": true,
        "gazeTowards": false,
        "gazeCondition": "away",
        "faceOnLeft": false,
        "impliedDirection": 180,
        "testDirection": 180,
        "avgFps": 76,
        "minFps": 74,
        "maxFps": 136,
        "totalFrames": 50,
        "frameRates": 76
      },
      {
        "trial_number": 109,
        "trial_index": 674,
        "rt": 745,
        "correct": true,
        "response": "ArrowRight",
        "congruent": true,
        "gazeTowards": false,
        "gazeCondition": "away",
        "faceOnLeft": true,
        "impliedDirection": 0,
        "testDirection": 0,
        "avgFps": 75,
        "minFps": 72,
        "maxFps": 76,
        "totalFrames": 56,
        "frameRates": 75
      },
      {
        "trial_number": 110,
        "trial_index": 679,
        "rt": 1078,
        "correct": true,
        "response": "ArrowRight",
        "congruent": false,
        "gazeTowards": false,
        "gazeCondition": "away",
        "faceOnLeft": false,
        "impliedDirection": 180,
        "testDirection": 0,
        "avgFps": 75,
        "minFps": 72,
        "maxFps": 76,
        "totalFrames": 81,
        "frameRates": 75
      },
      {
        "trial_number": 111,
        "trial_index": 684,
        "rt": 517,
        "correct": true,
        "response": "ArrowRight",
        "congruent": false,
        "gazeTowards": false,
        "gazeCondition": "away",
        "faceOnLeft": false,
        "impliedDirection": 180,
        "testDirection": 0,
        "avgFps": 75,
        "minFps": 74,
        "maxFps": 93,
        "totalFrames": 38,
        "frameRates": 75
      },
      {
        "trial_number": 112,
        "trial_index": 689,
        "rt": 628,
        "correct": true,
        "response": "ArrowRight",
        "congruent": false,
        "gazeTowards": false,
        "gazeCondition": "away",
        "faceOnLeft": false,
        "impliedDirection": 180,
        "testDirection": 0,
        "avgFps": 75,
        "minFps": 72,
        "maxFps": 76,
        "totalFrames": 47,
        "frameRates": 75
      },
      {
        "trial_number": 113,
        "trial_index": 694,
        "rt": 645,
        "correct": false,
        "response": "ArrowLeft",
        "congruent": true,
        "gazeTowards": false,
        "gazeCondition": "away",
        "faceOnLeft": true,
        "impliedDirection": 0,
        "testDirection": 0,
        "avgFps": 75,
        "minFps": 72,
        "maxFps": 76,
        "totalFrames": 48,
        "frameRates": 75
      },
      {
        "trial_number": 114,
        "trial_index": 699,
        "rt": 614,
        "correct": true,
        "response": "ArrowRight",
        "congruent": false,
        "gazeTowards": true,
        "gazeCondition": "towards",
        "faceOnLeft": false,
        "impliedDirection": 180,
        "testDirection": 0,
        "avgFps": 75,
        "minFps": 75,
        "maxFps": 94,
        "totalFrames": 46,
        "frameRates": 75
      },
      {
        "trial_number": 115,
        "trial_index": 704,
        "rt": 888,
        "correct": true,
        "response": "ArrowLeft",
        "congruent": true,
        "gazeTowards": false,
        "gazeCondition": "away",
        "faceOnLeft": false,
        "impliedDirection": 180,
        "testDirection": 180,
        "avgFps": 75,
        "minFps": 72,
        "maxFps": 78,
        "totalFrames": 67,
        "frameRates": 75
      },
      {
        "trial_number": 116,
        "trial_index": 709,
        "rt": 695,
        "correct": true,
        "response": "ArrowRight",
        "congruent": false,
        "gazeTowards": false,
        "gazeCondition": "away",
        "faceOnLeft": false,
        "impliedDirection": 180,
        "testDirection": 0,
        "avgFps": 75,
        "minFps": 74,
        "maxFps": 76,
        "totalFrames": 52,
        "frameRates": 75
      },
      {
        "trial_number": 117,
        "trial_index": 714,
        "rt": 670,
        "correct": true,
        "response": "ArrowLeft",
        "congruent": true,
        "gazeTowards": true,
        "gazeCondition": "towards",
        "faceOnLeft": false,
        "impliedDirection": 180,
        "testDirection": 180,
        "avgFps": 75,
        "minFps": 72,
        "maxFps": 77,
        "totalFrames": 50,
        "frameRates": 75
      },
      {
        "trial_number": 118,
        "trial_index": 719,
        "rt": 542,
        "correct": true,
        "response": "ArrowLeft",
        "congruent": false,
        "gazeTowards": false,
        "gazeCondition": "away",
        "faceOnLeft": true,
        "impliedDirection": 0,
        "testDirection": 180,
        "avgFps": 75,
        "minFps": 74,
        "maxFps": 97,
        "totalFrames": 41,
        "frameRates": 75
      },
      {
        "trial_number": 119,
        "trial_index": 724,
        "rt": 626,
        "correct": true,
        "response": "ArrowLeft",
        "congruent": true,
        "gazeTowards": false,
        "gazeCondition": "away",
        "faceOnLeft": false,
        "impliedDirection": 180,
        "testDirection": 180,
        "avgFps": 75,
        "minFps": 73,
        "maxFps": 77,
        "totalFrames": 47,
        "frameRates": 75
      }
    ],
    "catch": {
      "total": 12,
      "correct": 12,
      "accuracy": 100,
      "meanRT": 656,
      "trials": [
        {
          "trial_number": 0,
          "trial_index": 119,
          "rt": 789,
          "correct": true,
          "colorTarget": "face",
          "gazeTowards": false,
          "gazeCondition": "away",
          "faceOnLeft": false
        },
        {
          "trial_number": 1,
          "trial_index": 192,
          "rt": 689,
          "correct": true,
          "colorTarget": "tree",
          "gazeTowards": false,
          "gazeCondition": "away",
          "faceOnLeft": true
        },
        {
          "trial_number": 2,
          "trial_index": 220,
          "rt": 649,
          "correct": true,
          "colorTarget": "face",
          "gazeTowards": false,
          "gazeCondition": "away",
          "faceOnLeft": true
        },
        {
          "trial_number": 3,
          "trial_index": 228,
          "rt": 631,
          "correct": true,
          "colorTarget": "tree",
          "gazeTowards": false,
          "gazeCondition": "away",
          "faceOnLeft": false
        },
        {
          "trial_number": 4,
          "trial_index": 327,
          "rt": 815,
          "correct": true,
          "colorTarget": "face",
          "gazeTowards": true,
          "gazeCondition": "towards",
          "faceOnLeft": true
        },
        {
          "trial_number": 5,
          "trial_index": 375,
          "rt": 517,
          "correct": true,
          "colorTarget": "tree",
          "gazeTowards": true,
          "gazeCondition": "towards",
          "faceOnLeft": false
        },
        {
          "trial_number": 6,
          "trial_index": 388,
          "rt": 589,
          "correct": true,
          "colorTarget": "face",
          "gazeTowards": true,
          "gazeCondition": "towards",
          "faceOnLeft": false
        },
        {
          "trial_number": 7,
          "trial_index": 517,
          "rt": 688,
          "correct": true,
          "colorTarget": "face",
          "gazeTowards": true,
          "gazeCondition": "towards",
          "faceOnLeft": false
        },
        {
          "trial_number": 8,
          "trial_index": 530,
          "rt": 627,
          "correct": true,
          "colorTarget": "face",
          "gazeTowards": true,
          "gazeCondition": "towards",
          "faceOnLeft": false
        },
        {
          "trial_number": 9,
          "trial_index": 548,
          "rt": 640,
          "correct": true,
          "colorTarget": "tree",
          "gazeTowards": false,
          "gazeCondition": "away",
          "faceOnLeft": false
        },
        {
          "trial_number": 10,
          "trial_index": 617,
          "rt": 613,
          "correct": true,
          "colorTarget": "tree",
          "gazeTowards": true,
          "gazeCondition": "towards",
          "faceOnLeft": true
        },
        {
          "trial_number": 11,
          "trial_index": 625,
          "rt": 629,
          "correct": true,
          "colorTarget": "tree",
          "gazeTowards": true,
          "gazeCondition": "towards",
          "faceOnLeft": true
        }
      ]
    },
    "practice": {
      "trials": [
        {
          "trial_number": 0,
          "rt": null,
          "correct": false,
          "direction": 0
        },
        {
          "trial_number": 1,
          "rt": 753,
          "correct": true,
          "direction": 180
        },
        {
          "trial_number": 2,
          "rt": 1796,
          "correct": true,
          "direction": 180
        },
        {
          "trial_number": 3,
          "rt": 1934,
          "correct": true,
          "direction": 180
        },
        {
          "trial_number": 4,
          "rt": null,
          "correct": false,
          "direction": 180
        },
        {
          "trial_number": 5,
          "rt": 771,
          "correct": true,
          "direction": 180
        },
        {
          "trial_number": 6,
          "rt": null,
          "correct": false,
          "direction": 180
        },
        {
          "trial_number": 7,
          "rt": 912,
          "correct": true,
          "direction": 180
        },
        {
          "trial_number": 8,
          "rt": 1308,
          "correct": true,
          "direction": 180
        },
        {
          "trial_number": 9,
          "rt": 777,
          "correct": false,
          "direction": 180
        },
        {
          "trial_number": 10,
          "rt": 714,
          "correct": true,
          "direction": 0
        },
        {
          "trial_number": 11,
          "rt": 660,
          "correct": true,
          "direction": 180
        },
        {
          "trial_number": 12,
          "rt": 776,
          "correct": true,
          "direction": 180
        },
        {
          "trial_number": 13,
          "rt": 621,
          "correct": true,
          "direction": 180
        },
        {
          "trial_number": 14,
          "rt": 1221,
          "correct": true,
          "direction": 180
        },
        {
          "trial_number": 15,
          "rt": 1204,
          "correct": false,
          "direction": 180
        },
        {
          "trial_number": 16,
          "rt": 932,
          "correct": true,
          "direction": 180
        },
        {
          "trial_number": 17,
          "rt": 1137,
          "correct": true,
          "direction": 180
        },
        {
          "trial_number": 18,
          "rt": 983,
          "correct": false,
          "direction": 180
        },
        {
          "trial_number": 19,
          "rt": 1310,
          "correct": true,
          "direction": 180
        }
      ],
      "meanRT": 1048,
      "accuracy": 70
    }
  }
}