{
  "experiment": "rdk-face-1",
  "UUID": "f562f1b9-bf10-4930-ae59-adb492364c8b",
  "data": {
    "session": {
      "experiment_version": "1.8.6",
      "treatment": "faces_towards_away_catch",
      "file_version": "1.8.6",
      "totalTrials": 120,
      "totalTrialsIncludingCatch": 132,
      "conditions": {
        "gazeTowardsCount": 60,
        "gazeAwayCount": 60,
        "gazeTowardsAccuracy": 95,
        "gazeAwayAccuracy": 97
      },
      "session_group": "default",
      "browserData": {
        "os": "Linux",
        "browser": "Firefox",
        "screenResolution": "1920x1080",
        "browserViewport": "1920x1080",
        "devicePixelRatio": 1,
        "colorDepth": 24,
        "hardwareConcurrency": 16,
        "deviceMemory": "Unknown",
        "gpuRenderer": "Radeon HD 3200 Graphics, or similar",
        "measuredRefreshRateHz": 118
      },
      "attention": {
        "visibilityEvents": [
          {
            "event": "blur",
            "state": "blurred",
            "timestamp": 1772769945647
          },
          {
            "event": "focus",
            "state": "focused",
            "timestamp": 1772769946207
          },
          {
            "event": "blur",
            "state": "blurred",
            "timestamp": 1772769947131
          },
          {
            "event": "focus",
            "state": "focused",
            "timestamp": 1772769947602
          },
          {
            "event": "blur",
            "state": "blurred",
            "timestamp": 1772769950670
          },
          {
            "event": "visibilitychange",
            "state": "hidden",
            "timestamp": 1772769950970
          },
          {
            "event": "focus",
            "state": "focused",
            "timestamp": 1772769952348
          },
          {
            "event": "visibilitychange",
            "state": "visible",
            "timestamp": 1772769952350
          },
          {
            "event": "blur",
            "state": "blurred",
            "timestamp": 1772769956044
          },
          {
            "event": "focus",
            "state": "focused",
            "timestamp": 1772769956692
          },
          {
            "event": "blur",
            "state": "blurred",
            "timestamp": 1772770827664
          },
          {
            "event": "focus",
            "state": "focused",
            "timestamp": 1772770828053
          }
        ]
      },
      "calibration": {
        "monitorWidthCm": 38,
        "viewingDistanceCm": 54,
        "pixelsPerDegree": 50
      },
      "parameters": {
        "coherence": 0.4,
        "apertureDeg": 5,
        "densityDotsPerDeg2": 40,
        "dotDiameterDeg": 0.035,
        "dotSpeedDegPerSec": 3,
        "lifetimeMs": 200,
        "fixationDurationMs": 1500,
        "faceDurationMs": 1500,
        "testDurationMs": 2000,
        "catchResponseMs": 3000
      },
      "prolific": {
        "prolificPid": "5a9ae74a6219a30001d349fe",
        "studyId": "",
        "sessionId": ""
      },
      "timing": {
        "startTime": "2026-03-06T04:05:43.724Z",
        "endTime": "2026-03-06T04:22:05.221Z",
        "totalElapsedTimeMs": 981497
      }
    },
    "trials": [
      {
        "trial_number": 0,
        "trial_index": 90,
        "rt": 1813,
        "correct": true,
        "response": "ArrowRight",
        "congruent": true,
        "gazeTowards": false,
        "gazeCondition": "away",
        "faceOnLeft": true,
        "impliedDirection": 0,
        "testDirection": 0,
        "avgFps": 121,
        "minFps": 110,
        "maxFps": 2500,
        "totalFrames": 218,
        "frameRates": 121
      },
      {
        "trial_number": 1,
        "trial_index": 95,
        "rt": 1514,
        "correct": true,
        "response": "ArrowLeft",
        "congruent": true,
        "gazeTowards": false,
        "gazeCondition": "away",
        "faceOnLeft": false,
        "impliedDirection": 180,
        "testDirection": 180,
        "avgFps": 121,
        "minFps": 110,
        "maxFps": 2381,
        "totalFrames": 182,
        "frameRates": 121
      },
      {
        "trial_number": 2,
        "trial_index": 100,
        "rt": 1529,
        "correct": true,
        "response": "ArrowRight",
        "congruent": false,
        "gazeTowards": false,
        "gazeCondition": "away",
        "faceOnLeft": false,
        "impliedDirection": 180,
        "testDirection": 0,
        "avgFps": 121,
        "minFps": 109,
        "maxFps": 2778,
        "totalFrames": 184,
        "frameRates": 121
      },
      {
        "trial_number": 3,
        "trial_index": 108,
        "rt": 1454,
        "correct": true,
        "response": "ArrowRight",
        "congruent": false,
        "gazeTowards": false,
        "gazeCondition": "away",
        "faceOnLeft": false,
        "impliedDirection": 180,
        "testDirection": 0,
        "avgFps": 121,
        "minFps": 110,
        "maxFps": 3333,
        "totalFrames": 175,
        "frameRates": 121
      },
      {
        "trial_number": 4,
        "trial_index": 113,
        "rt": 1175,
        "correct": true,
        "response": "ArrowLeft",
        "congruent": false,
        "gazeTowards": true,
        "gazeCondition": "towards",
        "faceOnLeft": true,
        "impliedDirection": 0,
        "testDirection": 180,
        "avgFps": 121,
        "minFps": 109,
        "maxFps": 2381,
        "totalFrames": 142,
        "frameRates": 121
      },
      {
        "trial_number": 5,
        "trial_index": 118,
        "rt": 1643,
        "correct": true,
        "response": "ArrowRight",
        "congruent": true,
        "gazeTowards": false,
        "gazeCondition": "away",
        "faceOnLeft": true,
        "impliedDirection": 0,
        "testDirection": 0,
        "avgFps": 121,
        "minFps": 109,
        "maxFps": 3571,
        "totalFrames": 198,
        "frameRates": 121
      },
      {
        "trial_number": 6,
        "trial_index": 126,
        "rt": 1928,
        "correct": true,
        "response": "ArrowRight",
        "congruent": false,
        "gazeTowards": true,
        "gazeCondition": "towards",
        "faceOnLeft": false,
        "impliedDirection": 180,
        "testDirection": 0,
        "avgFps": 121,
        "minFps": 109,
        "maxFps": 3125,
        "totalFrames": 232,
        "frameRates": 121
      },
      {
        "trial_number": 7,
        "trial_index": 131,
        "rt": 1966,
        "correct": true,
        "response": "ArrowRight",
        "congruent": false,
        "gazeTowards": true,
        "gazeCondition": "towards",
        "faceOnLeft": false,
        "impliedDirection": 180,
        "testDirection": 0,
        "avgFps": 121,
        "minFps": 109,
        "maxFps": 2000,
        "totalFrames": 237,
        "frameRates": 121
      },
      {
        "trial_number": 8,
        "trial_index": 136,
        "rt": 1264,
        "correct": true,
        "response": "ArrowLeft",
        "congruent": false,
        "gazeTowards": false,
        "gazeCondition": "away",
        "faceOnLeft": true,
        "impliedDirection": 0,
        "testDirection": 180,
        "avgFps": 121,
        "minFps": 110,
        "maxFps": 3125,
        "totalFrames": 152,
        "frameRates": 121
      },
      {
        "trial_number": 9,
        "trial_index": 141,
        "rt": 1459,
        "correct": true,
        "response": "ArrowRight",
        "congruent": true,
        "gazeTowards": true,
        "gazeCondition": "towards",
        "faceOnLeft": true,
        "impliedDirection": 0,
        "testDirection": 0,
        "avgFps": 120,
        "minFps": 58,
        "maxFps": 1852,
        "totalFrames": 175,
        "frameRates": 120
      },
      {
        "trial_number": 10,
        "trial_index": 146,
        "rt": 1686,
        "correct": false,
        "response": "ArrowLeft",
        "congruent": true,
        "gazeTowards": false,
        "gazeCondition": "away",
        "faceOnLeft": true,
        "impliedDirection": 0,
        "testDirection": 0,
        "avgFps": 121,
        "minFps": 109,
        "maxFps": 2778,
        "totalFrames": 203,
        "frameRates": 121
      },
      {
        "trial_number": 11,
        "trial_index": 151,
        "rt": 1310,
        "correct": true,
        "response": "ArrowLeft",
        "congruent": true,
        "gazeTowards": true,
        "gazeCondition": "towards",
        "faceOnLeft": false,
        "impliedDirection": 180,
        "testDirection": 180,
        "avgFps": 121,
        "minFps": 109,
        "maxFps": 2500,
        "totalFrames": 158,
        "frameRates": 121
      },
      {
        "trial_number": 12,
        "trial_index": 159,
        "rt": 1520,
        "correct": true,
        "response": "ArrowLeft",
        "congruent": false,
        "gazeTowards": false,
        "gazeCondition": "away",
        "faceOnLeft": true,
        "impliedDirection": 0,
        "testDirection": 180,
        "avgFps": 121,
        "minFps": 109,
        "maxFps": 2000,
        "totalFrames": 183,
        "frameRates": 121
      },
      {
        "trial_number": 13,
        "trial_index": 164,
        "rt": 1301,
        "correct": true,
        "response": "ArrowLeft",
        "congruent": true,
        "gazeTowards": true,
        "gazeCondition": "towards",
        "faceOnLeft": false,
        "impliedDirection": 180,
        "testDirection": 180,
        "avgFps": 121,
        "minFps": 110,
        "maxFps": 2381,
        "totalFrames": 157,
        "frameRates": 121
      },
      {
        "trial_number": 14,
        "trial_index": 169,
        "rt": 1851,
        "correct": true,
        "response": "ArrowLeft",
        "congruent": true,
        "gazeTowards": false,
        "gazeCondition": "away",
        "faceOnLeft": false,
        "impliedDirection": 180,
        "testDirection": 180,
        "avgFps": 120,
        "minFps": 62,
        "maxFps": 2083,
        "totalFrames": 222,
        "frameRates": 120
      },
      {
        "trial_number": 15,
        "trial_index": 174,
        "rt": null,
        "correct": false,
        "response": null,
        "congruent": false,
        "gazeTowards": false,
        "gazeCondition": "away",
        "faceOnLeft": true,
        "impliedDirection": 0,
        "testDirection": 180,
        "avgFps": 120,
        "minFps": 110,
        "maxFps": 3125,
        "totalFrames": 241,
        "frameRates": 120
      },
      {
        "trial_number": 16,
        "trial_index": 179,
        "rt": 968,
        "correct": true,
        "response": "ArrowRight",
        "congruent": false,
        "gazeTowards": true,
        "gazeCondition": "towards",
        "faceOnLeft": false,
        "impliedDirection": 180,
        "testDirection": 0,
        "avgFps": 121,
        "minFps": 110,
        "maxFps": 2174,
        "totalFrames": 117,
        "frameRates": 121
      },
      {
        "trial_number": 17,
        "trial_index": 184,
        "rt": 1223,
        "correct": true,
        "response": "ArrowRight",
        "congruent": false,
        "gazeTowards": false,
        "gazeCondition": "away",
        "faceOnLeft": false,
        "impliedDirection": 180,
        "testDirection": 0,
        "avgFps": 121,
        "minFps": 110,
        "maxFps": 1786,
        "totalFrames": 147,
        "frameRates": 121
      },
      {
        "trial_number": 18,
        "trial_index": 189,
        "rt": 619,
        "correct": true,
        "response": "ArrowLeft",
        "congruent": true,
        "gazeTowards": false,
        "gazeCondition": "away",
        "faceOnLeft": false,
        "impliedDirection": 180,
        "testDirection": 180,
        "avgFps": 122,
        "minFps": 109,
        "maxFps": 2381,
        "totalFrames": 75,
        "frameRates": 122
      },
      {
        "trial_number": 19,
        "trial_index": 194,
        "rt": 655,
        "correct": true,
        "response": "ArrowRight",
        "congruent": true,
        "gazeTowards": false,
        "gazeCondition": "away",
        "faceOnLeft": true,
        "impliedDirection": 0,
        "testDirection": 0,
        "avgFps": 120,
        "minFps": 62,
        "maxFps": 2778,
        "totalFrames": 78,
        "frameRates": 120
      },
      {
        "trial_number": 20,
        "trial_index": 199,
        "rt": 897,
        "correct": true,
        "response": "ArrowRight",
        "congruent": false,
        "gazeTowards": true,
        "gazeCondition": "towards",
        "faceOnLeft": false,
        "impliedDirection": 180,
        "testDirection": 0,
        "avgFps": 121,
        "minFps": 110,
        "maxFps": 1786,
        "totalFrames": 108,
        "frameRates": 121
      },
      {
        "trial_number": 21,
        "trial_index": 204,
        "rt": 1124,
        "correct": true,
        "response": "ArrowRight",
        "congruent": true,
        "gazeTowards": true,
        "gazeCondition": "towards",
        "faceOnLeft": true,
        "impliedDirection": 0,
        "testDirection": 0,
        "avgFps": 121,
        "minFps": 110,
        "maxFps": 2000,
        "totalFrames": 135,
        "frameRates": 121
      },
      {
        "trial_number": 22,
        "trial_index": 209,
        "rt": 1297,
        "correct": false,
        "response": "ArrowLeft",
        "congruent": true,
        "gazeTowards": true,
        "gazeCondition": "towards",
        "faceOnLeft": true,
        "impliedDirection": 0,
        "testDirection": 0,
        "avgFps": 121,
        "minFps": 109,
        "maxFps": 2632,
        "totalFrames": 156,
        "frameRates": 121
      },
      {
        "trial_number": 23,
        "trial_index": 214,
        "rt": 1266,
        "correct": true,
        "response": "ArrowRight",
        "congruent": true,
        "gazeTowards": false,
        "gazeCondition": "away",
        "faceOnLeft": true,
        "impliedDirection": 0,
        "testDirection": 0,
        "avgFps": 121,
        "minFps": 109,
        "maxFps": 2941,
        "totalFrames": 152,
        "frameRates": 121
      },
      {
        "trial_number": 24,
        "trial_index": 219,
        "rt": 1400,
        "correct": true,
        "response": "ArrowRight",
        "congruent": false,
        "gazeTowards": false,
        "gazeCondition": "away",
        "faceOnLeft": false,
        "impliedDirection": 180,
        "testDirection": 0,
        "avgFps": 121,
        "minFps": 110,
        "maxFps": 1852,
        "totalFrames": 168,
        "frameRates": 121
      },
      {
        "trial_number": 25,
        "trial_index": 224,
        "rt": 996,
        "correct": true,
        "response": "ArrowLeft",
        "congruent": false,
        "gazeTowards": false,
        "gazeCondition": "away",
        "faceOnLeft": true,
        "impliedDirection": 0,
        "testDirection": 180,
        "avgFps": 121,
        "minFps": 110,
        "maxFps": 1852,
        "totalFrames": 120,
        "frameRates": 121
      },
      {
        "trial_number": 26,
        "trial_index": 229,
        "rt": 1348,
        "correct": false,
        "response": "ArrowLeft",
        "congruent": true,
        "gazeTowards": true,
        "gazeCondition": "towards",
        "faceOnLeft": true,
        "impliedDirection": 0,
        "testDirection": 0,
        "avgFps": 121,
        "minFps": 110,
        "maxFps": 2083,
        "totalFrames": 162,
        "frameRates": 121
      },
      {
        "trial_number": 27,
        "trial_index": 234,
        "rt": 1713,
        "correct": false,
        "response": "ArrowLeft",
        "congruent": false,
        "gazeTowards": true,
        "gazeCondition": "towards",
        "faceOnLeft": false,
        "impliedDirection": 180,
        "testDirection": 0,
        "avgFps": 119,
        "minFps": 31,
        "maxFps": 2632,
        "totalFrames": 203,
        "frameRates": 119
      },
      {
        "trial_number": 28,
        "trial_index": 239,
        "rt": 1527,
        "correct": true,
        "response": "ArrowLeft",
        "congruent": false,
        "gazeTowards": false,
        "gazeCondition": "away",
        "faceOnLeft": true,
        "impliedDirection": 0,
        "testDirection": 180,
        "avgFps": 121,
        "minFps": 110,
        "maxFps": 1724,
        "totalFrames": 184,
        "frameRates": 121
      },
      {
        "trial_number": 29,
        "trial_index": 244,
        "rt": 864,
        "correct": true,
        "response": "ArrowRight",
        "congruent": true,
        "gazeTowards": false,
        "gazeCondition": "away",
        "faceOnLeft": true,
        "impliedDirection": 0,
        "testDirection": 0,
        "avgFps": 121,
        "minFps": 110,
        "maxFps": 2174,
        "totalFrames": 104,
        "frameRates": 121
      },
      {
        "trial_number": 30,
        "trial_index": 250,
        "rt": 1077,
        "correct": true,
        "response": "ArrowLeft",
        "congruent": false,
        "gazeTowards": false,
        "gazeCondition": "away",
        "faceOnLeft": true,
        "impliedDirection": 0,
        "testDirection": 180,
        "avgFps": 121,
        "minFps": 110,
        "maxFps": 1786,
        "totalFrames": 130,
        "frameRates": 121
      },
      {
        "trial_number": 31,
        "trial_index": 258,
        "rt": 1231,
        "correct": true,
        "response": "ArrowLeft",
        "congruent": false,
        "gazeTowards": true,
        "gazeCondition": "towards",
        "faceOnLeft": true,
        "impliedDirection": 0,
        "testDirection": 180,
        "avgFps": 121,
        "minFps": 109,
        "maxFps": 3846,
        "totalFrames": 148,
        "frameRates": 121
      },
      {
        "trial_number": 32,
        "trial_index": 266,
        "rt": 1061,
        "correct": true,
        "response": "ArrowLeft",
        "congruent": true,
        "gazeTowards": true,
        "gazeCondition": "towards",
        "faceOnLeft": false,
        "impliedDirection": 180,
        "testDirection": 180,
        "avgFps": 121,
        "minFps": 109,
        "maxFps": 2381,
        "totalFrames": 128,
        "frameRates": 121
      },
      {
        "trial_number": 33,
        "trial_index": 271,
        "rt": 1131,
        "correct": true,
        "response": "ArrowLeft",
        "congruent": true,
        "gazeTowards": false,
        "gazeCondition": "away",
        "faceOnLeft": false,
        "impliedDirection": 180,
        "testDirection": 180,
        "avgFps": 121,
        "minFps": 110,
        "maxFps": 2381,
        "totalFrames": 136,
        "frameRates": 121
      },
      {
        "trial_number": 34,
        "trial_index": 276,
        "rt": 1332,
        "correct": true,
        "response": "ArrowLeft",
        "congruent": false,
        "gazeTowards": true,
        "gazeCondition": "towards",
        "faceOnLeft": true,
        "impliedDirection": 0,
        "testDirection": 180,
        "avgFps": 120,
        "minFps": 62,
        "maxFps": 2174,
        "totalFrames": 159,
        "frameRates": 120
      },
      {
        "trial_number": 35,
        "trial_index": 281,
        "rt": 924,
        "correct": true,
        "response": "ArrowRight",
        "congruent": true,
        "gazeTowards": false,
        "gazeCondition": "away",
        "faceOnLeft": true,
        "impliedDirection": 0,
        "testDirection": 0,
        "avgFps": 121,
        "minFps": 110,
        "maxFps": 2000,
        "totalFrames": 111,
        "frameRates": 121
      },
      {
        "trial_number": 36,
        "trial_index": 286,
        "rt": 1213,
        "correct": true,
        "response": "ArrowLeft",
        "congruent": false,
        "gazeTowards": false,
        "gazeCondition": "away",
        "faceOnLeft": true,
        "impliedDirection": 0,
        "testDirection": 180,
        "avgFps": 121,
        "minFps": 110,
        "maxFps": 2273,
        "totalFrames": 146,
        "frameRates": 121
      },
      {
        "trial_number": 37,
        "trial_index": 291,
        "rt": 1498,
        "correct": true,
        "response": "ArrowLeft",
        "congruent": false,
        "gazeTowards": false,
        "gazeCondition": "away",
        "faceOnLeft": true,
        "impliedDirection": 0,
        "testDirection": 180,
        "avgFps": 121,
        "minFps": 109,
        "maxFps": 1852,
        "totalFrames": 180,
        "frameRates": 121
      },
      {
        "trial_number": 38,
        "trial_index": 296,
        "rt": 1099,
        "correct": true,
        "response": "ArrowLeft",
        "congruent": false,
        "gazeTowards": false,
        "gazeCondition": "away",
        "faceOnLeft": true,
        "impliedDirection": 0,
        "testDirection": 180,
        "avgFps": 121,
        "minFps": 109,
        "maxFps": 1923,
        "totalFrames": 133,
        "frameRates": 121
      },
      {
        "trial_number": 39,
        "trial_index": 301,
        "rt": 1407,
        "correct": true,
        "response": "ArrowLeft",
        "congruent": false,
        "gazeTowards": true,
        "gazeCondition": "towards",
        "faceOnLeft": true,
        "impliedDirection": 0,
        "testDirection": 180,
        "avgFps": 119,
        "minFps": 41,
        "maxFps": 3846,
        "totalFrames": 167,
        "frameRates": 119
      },
      {
        "trial_number": 40,
        "trial_index": 306,
        "rt": 919,
        "correct": true,
        "response": "ArrowRight",
        "congruent": false,
        "gazeTowards": false,
        "gazeCondition": "away",
        "faceOnLeft": false,
        "impliedDirection": 180,
        "testDirection": 0,
        "avgFps": 121,
        "minFps": 109,
        "maxFps": 2083,
        "totalFrames": 111,
        "frameRates": 121
      },
      {
        "trial_number": 41,
        "trial_index": 311,
        "rt": 967,
        "correct": true,
        "response": "ArrowLeft",
        "congruent": false,
        "gazeTowards": false,
        "gazeCondition": "away",
        "faceOnLeft": true,
        "impliedDirection": 0,
        "testDirection": 180,
        "avgFps": 121,
        "minFps": 110,
        "maxFps": 2778,
        "totalFrames": 117,
        "frameRates": 121
      },
      {
        "trial_number": 42,
        "trial_index": 316,
        "rt": 941,
        "correct": true,
        "response": "ArrowRight",
        "congruent": false,
        "gazeTowards": false,
        "gazeCondition": "away",
        "faceOnLeft": false,
        "impliedDirection": 180,
        "testDirection": 0,
        "avgFps": 120,
        "minFps": 62,
        "maxFps": 3125,
        "totalFrames": 112,
        "frameRates": 120
      },
      {
        "trial_number": 43,
        "trial_index": 321,
        "rt": 957,
        "correct": true,
        "response": "ArrowRight",
        "congruent": true,
        "gazeTowards": false,
        "gazeCondition": "away",
        "faceOnLeft": true,
        "impliedDirection": 0,
        "testDirection": 0,
        "avgFps": 120,
        "minFps": 62,
        "maxFps": 2273,
        "totalFrames": 114,
        "frameRates": 120
      },
      {
        "trial_number": 44,
        "trial_index": 329,
        "rt": 1252,
        "correct": true,
        "response": "ArrowLeft",
        "congruent": true,
        "gazeTowards": true,
        "gazeCondition": "towards",
        "faceOnLeft": false,
        "impliedDirection": 180,
        "testDirection": 180,
        "avgFps": 121,
        "minFps": 109,
        "maxFps": 2000,
        "totalFrames": 151,
        "frameRates": 121
      },
      {
        "trial_number": 45,
        "trial_index": 334,
        "rt": 949,
        "correct": true,
        "response": "ArrowRight",
        "congruent": false,
        "gazeTowards": true,
        "gazeCondition": "towards",
        "faceOnLeft": false,
        "impliedDirection": 180,
        "testDirection": 0,
        "avgFps": 121,
        "minFps": 110,
        "maxFps": 1786,
        "totalFrames": 114,
        "frameRates": 121
      },
      {
        "trial_number": 46,
        "trial_index": 339,
        "rt": 1114,
        "correct": true,
        "response": "ArrowLeft",
        "congruent": true,
        "gazeTowards": true,
        "gazeCondition": "towards",
        "faceOnLeft": false,
        "impliedDirection": 180,
        "testDirection": 180,
        "avgFps": 120,
        "minFps": 62,
        "maxFps": 2778,
        "totalFrames": 133,
        "frameRates": 120
      },
      {
        "trial_number": 47,
        "trial_index": 347,
        "rt": 994,
        "correct": true,
        "response": "ArrowRight",
        "congruent": false,
        "gazeTowards": true,
        "gazeCondition": "towards",
        "faceOnLeft": false,
        "impliedDirection": 180,
        "testDirection": 0,
        "avgFps": 121,
        "minFps": 110,
        "maxFps": 1786,
        "totalFrames": 120,
        "frameRates": 121
      },
      {
        "trial_number": 48,
        "trial_index": 352,
        "rt": 1105,
        "correct": true,
        "response": "ArrowLeft",
        "congruent": true,
        "gazeTowards": true,
        "gazeCondition": "towards",
        "faceOnLeft": false,
        "impliedDirection": 180,
        "testDirection": 180,
        "avgFps": 121,
        "minFps": 110,
        "maxFps": 1667,
        "totalFrames": 133,
        "frameRates": 121
      },
      {
        "trial_number": 49,
        "trial_index": 357,
        "rt": 1407,
        "correct": true,
        "response": "ArrowLeft",
        "congruent": false,
        "gazeTowards": true,
        "gazeCondition": "towards",
        "faceOnLeft": true,
        "impliedDirection": 0,
        "testDirection": 180,
        "avgFps": 121,
        "minFps": 110,
        "maxFps": 1786,
        "totalFrames": 169,
        "frameRates": 121
      },
      {
        "trial_number": 50,
        "trial_index": 362,
        "rt": 1147,
        "correct": true,
        "response": "ArrowRight",
        "congruent": true,
        "gazeTowards": true,
        "gazeCondition": "towards",
        "faceOnLeft": true,
        "impliedDirection": 0,
        "testDirection": 0,
        "avgFps": 120,
        "minFps": 62,
        "maxFps": 2381,
        "totalFrames": 137,
        "frameRates": 120
      },
      {
        "trial_number": 51,
        "trial_index": 367,
        "rt": 1025,
        "correct": true,
        "response": "ArrowLeft",
        "congruent": false,
        "gazeTowards": false,
        "gazeCondition": "away",
        "faceOnLeft": true,
        "impliedDirection": 0,
        "testDirection": 180,
        "avgFps": 121,
        "minFps": 109,
        "maxFps": 2083,
        "totalFrames": 124,
        "frameRates": 121
      },
      {
        "trial_number": 52,
        "trial_index": 372,
        "rt": 1516,
        "correct": true,
        "response": "ArrowLeft",
        "congruent": true,
        "gazeTowards": true,
        "gazeCondition": "towards",
        "faceOnLeft": false,
        "impliedDirection": 180,
        "testDirection": 180,
        "avgFps": 121,
        "minFps": 110,
        "maxFps": 3333,
        "totalFrames": 182,
        "frameRates": 121
      },
      {
        "trial_number": 53,
        "trial_index": 377,
        "rt": 980,
        "correct": true,
        "response": "ArrowLeft",
        "congruent": false,
        "gazeTowards": true,
        "gazeCondition": "towards",
        "faceOnLeft": true,
        "impliedDirection": 0,
        "testDirection": 180,
        "avgFps": 121,
        "minFps": 109,
        "maxFps": 2500,
        "totalFrames": 118,
        "frameRates": 121
      },
      {
        "trial_number": 54,
        "trial_index": 382,
        "rt": 946,
        "correct": true,
        "response": "ArrowRight",
        "congruent": true,
        "gazeTowards": true,
        "gazeCondition": "towards",
        "faceOnLeft": true,
        "impliedDirection": 0,
        "testDirection": 0,
        "avgFps": 121,
        "minFps": 110,
        "maxFps": 1923,
        "totalFrames": 114,
        "frameRates": 121
      },
      {
        "trial_number": 55,
        "trial_index": 387,
        "rt": 1063,
        "correct": true,
        "response": "ArrowLeft",
        "congruent": false,
        "gazeTowards": false,
        "gazeCondition": "away",
        "faceOnLeft": true,
        "impliedDirection": 0,
        "testDirection": 180,
        "avgFps": 118,
        "minFps": 31,
        "maxFps": 3125,
        "totalFrames": 125,
        "frameRates": 118
      },
      {
        "trial_number": 56,
        "trial_index": 392,
        "rt": 1359,
        "correct": true,
        "response": "ArrowLeft",
        "congruent": false,
        "gazeTowards": false,
        "gazeCondition": "away",
        "faceOnLeft": true,
        "impliedDirection": 0,
        "testDirection": 180,
        "avgFps": 120,
        "minFps": 62,
        "maxFps": 3571,
        "totalFrames": 163,
        "frameRates": 120
      },
      {
        "trial_number": 57,
        "trial_index": 397,
        "rt": 1038,
        "correct": true,
        "response": "ArrowRight",
        "congruent": false,
        "gazeTowards": false,
        "gazeCondition": "away",
        "faceOnLeft": false,
        "impliedDirection": 180,
        "testDirection": 0,
        "avgFps": 120,
        "minFps": 62,
        "maxFps": 3846,
        "totalFrames": 124,
        "frameRates": 120
      },
      {
        "trial_number": 58,
        "trial_index": 402,
        "rt": 645,
        "correct": true,
        "response": "ArrowLeft",
        "congruent": false,
        "gazeTowards": true,
        "gazeCondition": "towards",
        "faceOnLeft": true,
        "impliedDirection": 0,
        "testDirection": 180,
        "avgFps": 120,
        "minFps": 58,
        "maxFps": 2273,
        "totalFrames": 77,
        "frameRates": 120
      },
      {
        "trial_number": 59,
        "trial_index": 408,
        "rt": 1131,
        "correct": true,
        "response": "ArrowRight",
        "congruent": true,
        "gazeTowards": true,
        "gazeCondition": "towards",
        "faceOnLeft": true,
        "impliedDirection": 0,
        "testDirection": 0,
        "avgFps": 121,
        "minFps": 109,
        "maxFps": 2381,
        "totalFrames": 136,
        "frameRates": 121
      },
      {
        "trial_number": 60,
        "trial_index": 413,
        "rt": 1161,
        "correct": true,
        "response": "ArrowRight",
        "congruent": false,
        "gazeTowards": false,
        "gazeCondition": "away",
        "faceOnLeft": false,
        "impliedDirection": 180,
        "testDirection": 0,
        "avgFps": 121,
        "minFps": 109,
        "maxFps": 1667,
        "totalFrames": 140,
        "frameRates": 121
      },
      {
        "trial_number": 61,
        "trial_index": 418,
        "rt": 1256,
        "correct": true,
        "response": "ArrowRight",
        "congruent": false,
        "gazeTowards": true,
        "gazeCondition": "towards",
        "faceOnLeft": false,
        "impliedDirection": 180,
        "testDirection": 0,
        "avgFps": 121,
        "minFps": 109,
        "maxFps": 1786,
        "totalFrames": 151,
        "frameRates": 121
      },
      {
        "trial_number": 62,
        "trial_index": 423,
        "rt": 1080,
        "correct": true,
        "response": "ArrowRight",
        "congruent": false,
        "gazeTowards": true,
        "gazeCondition": "towards",
        "faceOnLeft": false,
        "impliedDirection": 180,
        "testDirection": 0,
        "avgFps": 120,
        "minFps": 62,
        "maxFps": 3125,
        "totalFrames": 129,
        "frameRates": 120
      },
      {
        "trial_number": 63,
        "trial_index": 428,
        "rt": 901,
        "correct": true,
        "response": "ArrowLeft",
        "congruent": false,
        "gazeTowards": false,
        "gazeCondition": "away",
        "faceOnLeft": true,
        "impliedDirection": 0,
        "testDirection": 180,
        "avgFps": 121,
        "minFps": 110,
        "maxFps": 1786,
        "totalFrames": 109,
        "frameRates": 121
      },
      {
        "trial_number": 64,
        "trial_index": 433,
        "rt": 785,
        "correct": true,
        "response": "ArrowRight",
        "congruent": true,
        "gazeTowards": false,
        "gazeCondition": "away",
        "faceOnLeft": true,
        "impliedDirection": 0,
        "testDirection": 0,
        "avgFps": 121,
        "minFps": 110,
        "maxFps": 2083,
        "totalFrames": 95,
        "frameRates": 121
      },
      {
        "trial_number": 65,
        "trial_index": 438,
        "rt": 1342,
        "correct": true,
        "response": "ArrowLeft",
        "congruent": true,
        "gazeTowards": true,
        "gazeCondition": "towards",
        "faceOnLeft": false,
        "impliedDirection": 180,
        "testDirection": 180,
        "avgFps": 121,
        "minFps": 109,
        "maxFps": 3125,
        "totalFrames": 162,
        "frameRates": 121
      },
      {
        "trial_number": 66,
        "trial_index": 443,
        "rt": 943,
        "correct": true,
        "response": "ArrowRight",
        "congruent": true,
        "gazeTowards": true,
        "gazeCondition": "towards",
        "faceOnLeft": true,
        "impliedDirection": 0,
        "testDirection": 0,
        "avgFps": 121,
        "minFps": 109,
        "maxFps": 2500,
        "totalFrames": 114,
        "frameRates": 121
      },
      {
        "trial_number": 67,
        "trial_index": 448,
        "rt": 1426,
        "correct": true,
        "response": "ArrowRight",
        "congruent": true,
        "gazeTowards": false,
        "gazeCondition": "away",
        "faceOnLeft": true,
        "impliedDirection": 0,
        "testDirection": 0,
        "avgFps": 121,
        "minFps": 110,
        "maxFps": 2273,
        "totalFrames": 172,
        "frameRates": 121
      },
      {
        "trial_number": 68,
        "trial_index": 453,
        "rt": 1192,
        "correct": true,
        "response": "ArrowLeft",
        "congruent": false,
        "gazeTowards": false,
        "gazeCondition": "away",
        "faceOnLeft": true,
        "impliedDirection": 0,
        "testDirection": 180,
        "avgFps": 114,
        "minFps": 13,
        "maxFps": 2381,
        "totalFrames": 136,
        "frameRates": 114
      },
      {
        "trial_number": 69,
        "trial_index": 458,
        "rt": 1287,
        "correct": true,
        "response": "ArrowLeft",
        "congruent": true,
        "gazeTowards": false,
        "gazeCondition": "away",
        "faceOnLeft": false,
        "impliedDirection": 180,
        "testDirection": 180,
        "avgFps": 121,
        "minFps": 110,
        "maxFps": 1786,
        "totalFrames": 155,
        "frameRates": 121
      },
      {
        "trial_number": 70,
        "trial_index": 463,
        "rt": 1454,
        "correct": true,
        "response": "ArrowRight",
        "congruent": true,
        "gazeTowards": true,
        "gazeCondition": "towards",
        "faceOnLeft": true,
        "impliedDirection": 0,
        "testDirection": 0,
        "avgFps": 119,
        "minFps": 41,
        "maxFps": 3846,
        "totalFrames": 173,
        "frameRates": 119
      },
      {
        "trial_number": 71,
        "trial_index": 468,
        "rt": 1821,
        "correct": true,
        "response": "ArrowRight",
        "congruent": false,
        "gazeTowards": false,
        "gazeCondition": "away",
        "faceOnLeft": false,
        "impliedDirection": 180,
        "testDirection": 0,
        "avgFps": 121,
        "minFps": 110,
        "maxFps": 2174,
        "totalFrames": 219,
        "frameRates": 121
      },
      {
        "trial_number": 72,
        "trial_index": 473,
        "rt": 1252,
        "correct": true,
        "response": "ArrowRight",
        "congruent": true,
        "gazeTowards": false,
        "gazeCondition": "away",
        "faceOnLeft": true,
        "impliedDirection": 0,
        "testDirection": 0,
        "avgFps": 120,
        "minFps": 62,
        "maxFps": 1724,
        "totalFrames": 150,
        "frameRates": 120
      },
      {
        "trial_number": 73,
        "trial_index": 478,
        "rt": 889,
        "correct": true,
        "response": "ArrowRight",
        "congruent": true,
        "gazeTowards": true,
        "gazeCondition": "towards",
        "faceOnLeft": true,
        "impliedDirection": 0,
        "testDirection": 0,
        "avgFps": 121,
        "minFps": 109,
        "maxFps": 3333,
        "totalFrames": 107,
        "frameRates": 121
      },
      {
        "trial_number": 74,
        "trial_index": 483,
        "rt": 1321,
        "correct": true,
        "response": "ArrowRight",
        "congruent": false,
        "gazeTowards": false,
        "gazeCondition": "away",
        "faceOnLeft": false,
        "impliedDirection": 180,
        "testDirection": 0,
        "avgFps": 121,
        "minFps": 109,
        "maxFps": 1786,
        "totalFrames": 159,
        "frameRates": 121
      },
      {
        "trial_number": 75,
        "trial_index": 488,
        "rt": 1008,
        "correct": true,
        "response": "ArrowLeft",
        "congruent": true,
        "gazeTowards": true,
        "gazeCondition": "towards",
        "faceOnLeft": false,
        "impliedDirection": 180,
        "testDirection": 180,
        "avgFps": 118,
        "minFps": 31,
        "maxFps": 3333,
        "totalFrames": 119,
        "frameRates": 118
      },
      {
        "trial_number": 76,
        "trial_index": 493,
        "rt": 1321,
        "correct": true,
        "response": "ArrowRight",
        "congruent": true,
        "gazeTowards": false,
        "gazeCondition": "away",
        "faceOnLeft": true,
        "impliedDirection": 0,
        "testDirection": 0,
        "avgFps": 120,
        "minFps": 62,
        "maxFps": 3846,
        "totalFrames": 158,
        "frameRates": 120
      },
      {
        "trial_number": 77,
        "trial_index": 498,
        "rt": 792,
        "correct": true,
        "response": "ArrowLeft",
        "congruent": false,
        "gazeTowards": true,
        "gazeCondition": "towards",
        "faceOnLeft": true,
        "impliedDirection": 0,
        "testDirection": 180,
        "avgFps": 120,
        "minFps": 62,
        "maxFps": 3333,
        "totalFrames": 95,
        "frameRates": 120
      },
      {
        "trial_number": 78,
        "trial_index": 506,
        "rt": 1182,
        "correct": true,
        "response": "ArrowRight",
        "congruent": true,
        "gazeTowards": true,
        "gazeCondition": "towards",
        "faceOnLeft": true,
        "impliedDirection": 0,
        "testDirection": 0,
        "avgFps": 119,
        "minFps": 40,
        "maxFps": 2632,
        "totalFrames": 140,
        "frameRates": 119
      },
      {
        "trial_number": 79,
        "trial_index": 511,
        "rt": 722,
        "correct": true,
        "response": "ArrowLeft",
        "congruent": true,
        "gazeTowards": false,
        "gazeCondition": "away",
        "faceOnLeft": false,
        "impliedDirection": 180,
        "testDirection": 180,
        "avgFps": 121,
        "minFps": 110,
        "maxFps": 2083,
        "totalFrames": 87,
        "frameRates": 121
      },
      {
        "trial_number": 80,
        "trial_index": 516,
        "rt": 1420,
        "correct": true,
        "response": "ArrowRight",
        "congruent": true,
        "gazeTowards": true,
        "gazeCondition": "towards",
        "faceOnLeft": true,
        "impliedDirection": 0,
        "testDirection": 0,
        "avgFps": 121,
        "minFps": 109,
        "maxFps": 2500,
        "totalFrames": 171,
        "frameRates": 121
      },
      {
        "trial_number": 81,
        "trial_index": 524,
        "rt": 1216,
        "correct": true,
        "response": "ArrowRight",
        "congruent": false,
        "gazeTowards": true,
        "gazeCondition": "towards",
        "faceOnLeft": false,
        "impliedDirection": 180,
        "testDirection": 0,
        "avgFps": 121,
        "minFps": 109,
        "maxFps": 2273,
        "totalFrames": 147,
        "frameRates": 121
      },
      {
        "trial_number": 82,
        "trial_index": 529,
        "rt": 1157,
        "correct": true,
        "response": "ArrowRight",
        "congruent": true,
        "gazeTowards": false,
        "gazeCondition": "away",
        "faceOnLeft": true,
        "impliedDirection": 0,
        "testDirection": 0,
        "avgFps": 121,
        "minFps": 110,
        "maxFps": 5000,
        "totalFrames": 139,
        "frameRates": 121
      },
      {
        "trial_number": 83,
        "trial_index": 534,
        "rt": 827,
        "correct": true,
        "response": "ArrowLeft",
        "congruent": false,
        "gazeTowards": false,
        "gazeCondition": "away",
        "faceOnLeft": true,
        "impliedDirection": 0,
        "testDirection": 180,
        "avgFps": 120,
        "minFps": 61,
        "maxFps": 2632,
        "totalFrames": 99,
        "frameRates": 120
      },
      {
        "trial_number": 84,
        "trial_index": 539,
        "rt": 1377,
        "correct": true,
        "response": "ArrowRight",
        "congruent": false,
        "gazeTowards": true,
        "gazeCondition": "towards",
        "faceOnLeft": false,
        "impliedDirection": 180,
        "testDirection": 0,
        "avgFps": 121,
        "minFps": 110,
        "maxFps": 2174,
        "totalFrames": 166,
        "frameRates": 121
      },
      {
        "trial_number": 85,
        "trial_index": 544,
        "rt": 1352,
        "correct": true,
        "response": "ArrowRight",
        "congruent": true,
        "gazeTowards": true,
        "gazeCondition": "towards",
        "faceOnLeft": true,
        "impliedDirection": 0,
        "testDirection": 0,
        "avgFps": 121,
        "minFps": 109,
        "maxFps": 3846,
        "totalFrames": 163,
        "frameRates": 121
      },
      {
        "trial_number": 86,
        "trial_index": 549,
        "rt": 743,
        "correct": true,
        "response": "ArrowLeft",
        "congruent": false,
        "gazeTowards": false,
        "gazeCondition": "away",
        "faceOnLeft": true,
        "impliedDirection": 0,
        "testDirection": 180,
        "avgFps": 121,
        "minFps": 108,
        "maxFps": 1667,
        "totalFrames": 90,
        "frameRates": 121
      },
      {
        "trial_number": 87,
        "trial_index": 554,
        "rt": 1351,
        "correct": true,
        "response": "ArrowLeft",
        "congruent": true,
        "gazeTowards": false,
        "gazeCondition": "away",
        "faceOnLeft": false,
        "impliedDirection": 180,
        "testDirection": 180,
        "avgFps": 121,
        "minFps": 110,
        "maxFps": 1613,
        "totalFrames": 163,
        "frameRates": 121
      },
      {
        "trial_number": 88,
        "trial_index": 559,
        "rt": 1066,
        "correct": true,
        "response": "ArrowLeft",
        "congruent": false,
        "gazeTowards": true,
        "gazeCondition": "towards",
        "faceOnLeft": true,
        "impliedDirection": 0,
        "testDirection": 180,
        "avgFps": 121,
        "minFps": 109,
        "maxFps": 1852,
        "totalFrames": 128,
        "frameRates": 121
      },
      {
        "trial_number": 89,
        "trial_index": 564,
        "rt": 1244,
        "correct": true,
        "response": "ArrowRight",
        "congruent": true,
        "gazeTowards": false,
        "gazeCondition": "away",
        "faceOnLeft": true,
        "impliedDirection": 0,
        "testDirection": 0,
        "avgFps": 121,
        "minFps": 110,
        "maxFps": 2632,
        "totalFrames": 150,
        "frameRates": 121
      },
      {
        "trial_number": 90,
        "trial_index": 570,
        "rt": 985,
        "correct": true,
        "response": "ArrowRight",
        "congruent": true,
        "gazeTowards": false,
        "gazeCondition": "away",
        "faceOnLeft": true,
        "impliedDirection": 0,
        "testDirection": 0,
        "avgFps": 121,
        "minFps": 110,
        "maxFps": 2381,
        "totalFrames": 119,
        "frameRates": 121
      },
      {
        "trial_number": 91,
        "trial_index": 575,
        "rt": 882,
        "correct": true,
        "response": "ArrowLeft",
        "congruent": true,
        "gazeTowards": true,
        "gazeCondition": "towards",
        "faceOnLeft": false,
        "impliedDirection": 180,
        "testDirection": 180,
        "avgFps": 121,
        "minFps": 110,
        "maxFps": 2381,
        "totalFrames": 106,
        "frameRates": 121
      },
      {
        "trial_number": 92,
        "trial_index": 580,
        "rt": 1105,
        "correct": true,
        "response": "ArrowRight",
        "congruent": false,
        "gazeTowards": true,
        "gazeCondition": "towards",
        "faceOnLeft": false,
        "impliedDirection": 180,
        "testDirection": 0,
        "avgFps": 121,
        "minFps": 109,
        "maxFps": 2381,
        "totalFrames": 133,
        "frameRates": 121
      },
      {
        "trial_number": 93,
        "trial_index": 585,
        "rt": 1539,
        "correct": true,
        "response": "ArrowRight",
        "congruent": false,
        "gazeTowards": true,
        "gazeCondition": "towards",
        "faceOnLeft": false,
        "impliedDirection": 180,
        "testDirection": 0,
        "avgFps": 117,
        "minFps": 20,
        "maxFps": 3571,
        "totalFrames": 180,
        "frameRates": 117
      },
      {
        "trial_number": 94,
        "trial_index": 590,
        "rt": 949,
        "correct": true,
        "response": "ArrowLeft",
        "congruent": true,
        "gazeTowards": false,
        "gazeCondition": "away",
        "faceOnLeft": false,
        "impliedDirection": 180,
        "testDirection": 180,
        "avgFps": 120,
        "minFps": 62,
        "maxFps": 2273,
        "totalFrames": 113,
        "frameRates": 120
      },
      {
        "trial_number": 95,
        "trial_index": 595,
        "rt": 1783,
        "correct": true,
        "response": "ArrowLeft",
        "congruent": true,
        "gazeTowards": false,
        "gazeCondition": "away",
        "faceOnLeft": false,
        "impliedDirection": 180,
        "testDirection": 180,
        "avgFps": 121,
        "minFps": 109,
        "maxFps": 2381,
        "totalFrames": 215,
        "frameRates": 121
      },
      {
        "trial_number": 96,
        "trial_index": 600,
        "rt": 1317,
        "correct": true,
        "response": "ArrowLeft",
        "congruent": true,
        "gazeTowards": true,
        "gazeCondition": "towards",
        "faceOnLeft": false,
        "impliedDirection": 180,
        "testDirection": 180,
        "avgFps": 121,
        "minFps": 110,
        "maxFps": 2500,
        "totalFrames": 159,
        "frameRates": 121
      },
      {
        "trial_number": 97,
        "trial_index": 605,
        "rt": 1194,
        "correct": true,
        "response": "ArrowLeft",
        "congruent": false,
        "gazeTowards": false,
        "gazeCondition": "away",
        "faceOnLeft": true,
        "impliedDirection": 0,
        "testDirection": 180,
        "avgFps": 120,
        "minFps": 110,
        "maxFps": 124,
        "totalFrames": 143,
        "frameRates": 120
      },
      {
        "trial_number": 98,
        "trial_index": 610,
        "rt": 1103,
        "correct": true,
        "response": "ArrowLeft",
        "congruent": true,
        "gazeTowards": true,
        "gazeCondition": "towards",
        "faceOnLeft": false,
        "impliedDirection": 180,
        "testDirection": 180,
        "avgFps": 121,
        "minFps": 110,
        "maxFps": 2174,
        "totalFrames": 133,
        "frameRates": 121
      },
      {
        "trial_number": 99,
        "trial_index": 615,
        "rt": 899,
        "correct": true,
        "response": "ArrowRight",
        "congruent": true,
        "gazeTowards": false,
        "gazeCondition": "away",
        "faceOnLeft": true,
        "impliedDirection": 0,
        "testDirection": 0,
        "avgFps": 121,
        "minFps": 109,
        "maxFps": 3125,
        "totalFrames": 108,
        "frameRates": 121
      },
      {
        "trial_number": 100,
        "trial_index": 620,
        "rt": 1004,
        "correct": true,
        "response": "ArrowRight",
        "congruent": false,
        "gazeTowards": true,
        "gazeCondition": "towards",
        "faceOnLeft": false,
        "impliedDirection": 180,
        "testDirection": 0,
        "avgFps": 120,
        "minFps": 62,
        "maxFps": 3125,
        "totalFrames": 120,
        "frameRates": 120
      },
      {
        "trial_number": 101,
        "trial_index": 628,
        "rt": 1423,
        "correct": true,
        "response": "ArrowLeft",
        "congruent": true,
        "gazeTowards": true,
        "gazeCondition": "towards",
        "faceOnLeft": false,
        "impliedDirection": 180,
        "testDirection": 180,
        "avgFps": 121,
        "minFps": 109,
        "maxFps": 3125,
        "totalFrames": 171,
        "frameRates": 121
      },
      {
        "trial_number": 102,
        "trial_index": 633,
        "rt": 1309,
        "correct": true,
        "response": "ArrowRight",
        "congruent": true,
        "gazeTowards": true,
        "gazeCondition": "towards",
        "faceOnLeft": true,
        "impliedDirection": 0,
        "testDirection": 0,
        "avgFps": 120,
        "minFps": 62,
        "maxFps": 2941,
        "totalFrames": 157,
        "frameRates": 120
      },
      {
        "trial_number": 103,
        "trial_index": 638,
        "rt": 1353,
        "correct": true,
        "response": "ArrowRight",
        "congruent": false,
        "gazeTowards": true,
        "gazeCondition": "towards",
        "faceOnLeft": false,
        "impliedDirection": 180,
        "testDirection": 0,
        "avgFps": 121,
        "minFps": 110,
        "maxFps": 2381,
        "totalFrames": 163,
        "frameRates": 121
      },
      {
        "trial_number": 104,
        "trial_index": 643,
        "rt": 953,
        "correct": true,
        "response": "ArrowLeft",
        "congruent": false,
        "gazeTowards": true,
        "gazeCondition": "towards",
        "faceOnLeft": true,
        "impliedDirection": 0,
        "testDirection": 180,
        "avgFps": 120,
        "minFps": 62,
        "maxFps": 3125,
        "totalFrames": 114,
        "frameRates": 120
      },
      {
        "trial_number": 105,
        "trial_index": 648,
        "rt": 1258,
        "correct": true,
        "response": "ArrowLeft",
        "congruent": true,
        "gazeTowards": true,
        "gazeCondition": "towards",
        "faceOnLeft": false,
        "impliedDirection": 180,
        "testDirection": 180,
        "avgFps": 121,
        "minFps": 110,
        "maxFps": 2632,
        "totalFrames": 151,
        "frameRates": 121
      },
      {
        "trial_number": 106,
        "trial_index": 653,
        "rt": 1023,
        "correct": true,
        "response": "ArrowLeft",
        "congruent": true,
        "gazeTowards": true,
        "gazeCondition": "towards",
        "faceOnLeft": false,
        "impliedDirection": 180,
        "testDirection": 180,
        "avgFps": 121,
        "minFps": 110,
        "maxFps": 2778,
        "totalFrames": 123,
        "frameRates": 121
      },
      {
        "trial_number": 107,
        "trial_index": 658,
        "rt": 1141,
        "correct": true,
        "response": "ArrowLeft",
        "congruent": true,
        "gazeTowards": true,
        "gazeCondition": "towards",
        "faceOnLeft": false,
        "impliedDirection": 180,
        "testDirection": 180,
        "avgFps": 120,
        "minFps": 58,
        "maxFps": 3333,
        "totalFrames": 136,
        "frameRates": 120
      },
      {
        "trial_number": 108,
        "trial_index": 663,
        "rt": 1478,
        "correct": true,
        "response": "ArrowLeft",
        "congruent": true,
        "gazeTowards": false,
        "gazeCondition": "away",
        "faceOnLeft": false,
        "impliedDirection": 180,
        "testDirection": 180,
        "avgFps": 120,
        "minFps": 62,
        "maxFps": 2778,
        "totalFrames": 177,
        "frameRates": 120
      },
      {
        "trial_number": 109,
        "trial_index": 668,
        "rt": 1360,
        "correct": true,
        "response": "ArrowLeft",
        "congruent": false,
        "gazeTowards": true,
        "gazeCondition": "towards",
        "faceOnLeft": true,
        "impliedDirection": 0,
        "testDirection": 180,
        "avgFps": 121,
        "minFps": 109,
        "maxFps": 2941,
        "totalFrames": 164,
        "frameRates": 121
      },
      {
        "trial_number": 110,
        "trial_index": 673,
        "rt": 1150,
        "correct": true,
        "response": "ArrowLeft",
        "congruent": true,
        "gazeTowards": false,
        "gazeCondition": "away",
        "faceOnLeft": false,
        "impliedDirection": 180,
        "testDirection": 180,
        "avgFps": 121,
        "minFps": 110,
        "maxFps": 1923,
        "totalFrames": 139,
        "frameRates": 121
      },
      {
        "trial_number": 111,
        "trial_index": 678,
        "rt": 975,
        "correct": true,
        "response": "ArrowRight",
        "congruent": true,
        "gazeTowards": false,
        "gazeCondition": "away",
        "faceOnLeft": true,
        "impliedDirection": 0,
        "testDirection": 0,
        "avgFps": 121,
        "minFps": 110,
        "maxFps": 1923,
        "totalFrames": 118,
        "frameRates": 121
      },
      {
        "trial_number": 112,
        "trial_index": 683,
        "rt": 1223,
        "correct": true,
        "response": "ArrowLeft",
        "congruent": false,
        "gazeTowards": true,
        "gazeCondition": "towards",
        "faceOnLeft": true,
        "impliedDirection": 0,
        "testDirection": 180,
        "avgFps": 121,
        "minFps": 109,
        "maxFps": 1786,
        "totalFrames": 147,
        "frameRates": 121
      },
      {
        "trial_number": 113,
        "trial_index": 688,
        "rt": 1019,
        "correct": true,
        "response": "ArrowLeft",
        "congruent": false,
        "gazeTowards": false,
        "gazeCondition": "away",
        "faceOnLeft": true,
        "impliedDirection": 0,
        "testDirection": 180,
        "avgFps": 121,
        "minFps": 109,
        "maxFps": 2000,
        "totalFrames": 123,
        "frameRates": 121
      },
      {
        "trial_number": 114,
        "trial_index": 693,
        "rt": 1640,
        "correct": true,
        "response": "ArrowLeft",
        "congruent": false,
        "gazeTowards": false,
        "gazeCondition": "away",
        "faceOnLeft": true,
        "impliedDirection": 0,
        "testDirection": 180,
        "avgFps": 121,
        "minFps": 110,
        "maxFps": 2941,
        "totalFrames": 197,
        "frameRates": 121
      },
      {
        "trial_number": 115,
        "trial_index": 704,
        "rt": 1120,
        "correct": true,
        "response": "ArrowRight",
        "congruent": true,
        "gazeTowards": false,
        "gazeCondition": "away",
        "faceOnLeft": true,
        "impliedDirection": 0,
        "testDirection": 0,
        "avgFps": 121,
        "minFps": 109,
        "maxFps": 3333,
        "totalFrames": 135,
        "frameRates": 121
      },
      {
        "trial_number": 116,
        "trial_index": 709,
        "rt": 1669,
        "correct": true,
        "response": "ArrowRight",
        "congruent": false,
        "gazeTowards": true,
        "gazeCondition": "towards",
        "faceOnLeft": false,
        "impliedDirection": 180,
        "testDirection": 0,
        "avgFps": 121,
        "minFps": 109,
        "maxFps": 1724,
        "totalFrames": 201,
        "frameRates": 121
      },
      {
        "trial_number": 117,
        "trial_index": 714,
        "rt": 1208,
        "correct": true,
        "response": "ArrowLeft",
        "congruent": false,
        "gazeTowards": true,
        "gazeCondition": "towards",
        "faceOnLeft": true,
        "impliedDirection": 0,
        "testDirection": 180,
        "avgFps": 120,
        "minFps": 62,
        "maxFps": 2273,
        "totalFrames": 144,
        "frameRates": 120
      },
      {
        "trial_number": 118,
        "trial_index": 719,
        "rt": 771,
        "correct": true,
        "response": "ArrowRight",
        "congruent": false,
        "gazeTowards": true,
        "gazeCondition": "towards",
        "faceOnLeft": false,
        "impliedDirection": 180,
        "testDirection": 0,
        "avgFps": 121,
        "minFps": 110,
        "maxFps": 2632,
        "totalFrames": 93,
        "frameRates": 121
      },
      {
        "trial_number": 119,
        "trial_index": 724,
        "rt": 793,
        "correct": true,
        "response": "ArrowRight",
        "congruent": true,
        "gazeTowards": false,
        "gazeCondition": "away",
        "faceOnLeft": true,
        "impliedDirection": 0,
        "testDirection": 0,
        "avgFps": 121,
        "minFps": 109,
        "maxFps": 3125,
        "totalFrames": 96,
        "frameRates": 121
      }
    ],
    "catch": {
      "total": 12,
      "correct": 12,
      "accuracy": 100,
      "meanRT": 751,
      "trials": [
        {
          "trial_number": 0,
          "trial_index": 104,
          "rt": 983,
          "correct": true,
          "colorTarget": "face",
          "gazeTowards": false,
          "gazeCondition": "away",
          "faceOnLeft": true
        },
        {
          "trial_number": 1,
          "trial_index": 122,
          "rt": 992,
          "correct": true,
          "colorTarget": "tree",
          "gazeTowards": true,
          "gazeCondition": "towards",
          "faceOnLeft": true
        },
        {
          "trial_number": 2,
          "trial_index": 155,
          "rt": 509,
          "correct": true,
          "colorTarget": "tree",
          "gazeTowards": true,
          "gazeCondition": "towards",
          "faceOnLeft": false
        },
        {
          "trial_number": 3,
          "trial_index": 254,
          "rt": 552,
          "correct": true,
          "colorTarget": "tree",
          "gazeTowards": false,
          "gazeCondition": "away",
          "faceOnLeft": true
        },
        {
          "trial_number": 4,
          "trial_index": 262,
          "rt": 907,
          "correct": true,
          "colorTarget": "face",
          "gazeTowards": true,
          "gazeCondition": "towards",
          "faceOnLeft": true
        },
        {
          "trial_number": 5,
          "trial_index": 325,
          "rt": 552,
          "correct": true,
          "colorTarget": "face",
          "gazeTowards": false,
          "gazeCondition": "away",
          "faceOnLeft": true
        },
        {
          "trial_number": 6,
          "trial_index": 343,
          "rt": 545,
          "correct": true,
          "colorTarget": "face",
          "gazeTowards": false,
          "gazeCondition": "away",
          "faceOnLeft": false
        },
        {
          "trial_number": 7,
          "trial_index": 502,
          "rt": 1183,
          "correct": true,
          "colorTarget": "tree",
          "gazeTowards": true,
          "gazeCondition": "towards",
          "faceOnLeft": true
        },
        {
          "trial_number": 8,
          "trial_index": 520,
          "rt": 1086,
          "correct": true,
          "colorTarget": "face",
          "gazeTowards": true,
          "gazeCondition": "towards",
          "faceOnLeft": false
        },
        {
          "trial_number": 9,
          "trial_index": 624,
          "rt": 524,
          "correct": true,
          "colorTarget": "tree",
          "gazeTowards": false,
          "gazeCondition": "away",
          "faceOnLeft": true
        },
        {
          "trial_number": 10,
          "trial_index": 697,
          "rt": 477,
          "correct": true,
          "colorTarget": "tree",
          "gazeTowards": true,
          "gazeCondition": "towards",
          "faceOnLeft": true
        },
        {
          "trial_number": 11,
          "trial_index": 700,
          "rt": 705,
          "correct": true,
          "colorTarget": "face",
          "gazeTowards": true,
          "gazeCondition": "towards",
          "faceOnLeft": true
        }
      ]
    },
    "practice": {
      "trials": [
        {
          "trial_number": 0,
          "rt": null,
          "correct": false,
          "direction": 0
        },
        {
          "trial_number": 1,
          "rt": 1080,
          "correct": false,
          "direction": 180
        },
        {
          "trial_number": 2,
          "rt": 1175,
          "correct": true,
          "direction": 180
        },
        {
          "trial_number": 3,
          "rt": 1951,
          "correct": true,
          "direction": 180
        },
        {
          "trial_number": 4,
          "rt": 1356,
          "correct": true,
          "direction": 0
        },
        {
          "trial_number": 5,
          "rt": 1324,
          "correct": true,
          "direction": 180
        },
        {
          "trial_number": 6,
          "rt": 1545,
          "correct": true,
          "direction": 0
        },
        {
          "trial_number": 7,
          "rt": 1778,
          "correct": true,
          "direction": 0
        },
        {
          "trial_number": 8,
          "rt": 1880,
          "correct": false,
          "direction": 0
        },
        {
          "trial_number": 9,
          "rt": null,
          "correct": false,
          "direction": 0
        },
        {
          "trial_number": 10,
          "rt": 1506,
          "correct": true,
          "direction": 0
        },
        {
          "trial_number": 11,
          "rt": 1349,
          "correct": true,
          "direction": 180
        },
        {
          "trial_number": 12,
          "rt": 1263,
          "correct": true,
          "direction": 180
        },
        {
          "trial_number": 13,
          "rt": 1305,
          "correct": true,
          "direction": 180
        },
        {
          "trial_number": 14,
          "rt": 1298,
          "correct": true,
          "direction": 0
        },
        {
          "trial_number": 15,
          "rt": 1266,
          "correct": true,
          "direction": 180
        },
        {
          "trial_number": 16,
          "rt": 1346,
          "correct": true,
          "direction": 0
        },
        {
          "trial_number": 17,
          "rt": 1256,
          "correct": false,
          "direction": 0
        },
        {
          "trial_number": 18,
          "rt": 1412,
          "correct": true,
          "direction": 0
        },
        {
          "trial_number": 19,
          "rt": 1505,
          "correct": true,
          "direction": 0
        }
      ],
      "meanRT": 1422,
      "accuracy": 75
    }
  }
}