{
  "experiment": "rdk-face-1",
  "UUID": "90f10e83-281f-4f2d-80f9-d3b95d08071e",
  "data": {
    "session": {
      "experiment_version": "1.8.6",
      "treatment": "faces_towards_away_catch",
      "file_version": "1.8.6",
      "totalTrials": 120,
      "totalTrialsIncludingCatch": 132,
      "conditions": {
        "gazeTowardsCount": 60,
        "gazeAwayCount": 60,
        "gazeTowardsAccuracy": 92,
        "gazeAwayAccuracy": 88
      },
      "session_group": "default",
      "browserData": {
        "os": "Windows",
        "browser": "Chrome",
        "screenResolution": "1920x1080",
        "browserViewport": "1920x1080",
        "devicePixelRatio": 1,
        "colorDepth": 32,
        "hardwareConcurrency": 16,
        "deviceMemory": 8,
        "gpuRenderer": "ANGLE (AMD, AMD Radeon (TM) Graphics (0x000015E7) Direct3D11 vs_5_0 ps_5_0, D3D11)",
        "measuredRefreshRateHz": 44
      },
      "attention": {
        "visibilityEvents": [
          {
            "event": "visibilitychange",
            "state": "hidden",
            "timestamp": 1772775962490
          },
          {
            "event": "blur",
            "state": "blurred",
            "timestamp": 1772775962648
          },
          {
            "event": "visibilitychange",
            "state": "visible",
            "timestamp": 1772776092030
          },
          {
            "event": "focus",
            "state": "focused",
            "timestamp": 1772776093567
          },
          {
            "event": "visibilitychange",
            "state": "hidden",
            "timestamp": 1772776274387
          },
          {
            "event": "blur",
            "state": "blurred",
            "timestamp": 1772776275026
          },
          {
            "event": "visibilitychange",
            "state": "visible",
            "timestamp": 1772776716506
          },
          {
            "event": "focus",
            "state": "focused",
            "timestamp": 1772776718366
          }
        ]
      },
      "calibration": {
        "monitorWidthCm": 38,
        "viewingDistanceCm": 54,
        "pixelsPerDegree": 50
      },
      "parameters": {
        "coherence": 0.4,
        "apertureDeg": 5,
        "densityDotsPerDeg2": 40,
        "dotDiameterDeg": 0.035,
        "dotSpeedDegPerSec": 3,
        "lifetimeMs": 200,
        "fixationDurationMs": 1500,
        "faceDurationMs": 1500,
        "testDurationMs": 2000,
        "catchResponseMs": 3000
      },
      "prolific": {
        "prolificPid": "663a5efc3be407346e417ff2",
        "studyId": "",
        "sessionId": ""
      },
      "timing": {
        "startTime": "2026-03-06T05:42:04.483Z",
        "endTime": "2026-03-06T06:11:47.836Z",
        "totalElapsedTimeMs": 1783353
      }
    },
    "trials": [
      {
        "trial_number": 0,
        "trial_index": 49,
        "rt": 766,
        "correct": true,
        "response": "ArrowLeft",
        "congruent": false,
        "gazeTowards": false,
        "gazeCondition": "away",
        "faceOnLeft": true,
        "impliedDirection": 0,
        "testDirection": 180,
        "avgFps": 60,
        "minFps": 53,
        "maxFps": 70,
        "totalFrames": 46,
        "frameRates": 60
      },
      {
        "trial_number": 1,
        "trial_index": 54,
        "rt": 847,
        "correct": true,
        "response": "ArrowLeft",
        "congruent": false,
        "gazeTowards": true,
        "gazeCondition": "towards",
        "faceOnLeft": true,
        "impliedDirection": 0,
        "testDirection": 180,
        "avgFps": 60,
        "minFps": 51,
        "maxFps": 71,
        "totalFrames": 50,
        "frameRates": 60
      },
      {
        "trial_number": 2,
        "trial_index": 59,
        "rt": 906,
        "correct": true,
        "response": "ArrowLeft",
        "congruent": true,
        "gazeTowards": true,
        "gazeCondition": "towards",
        "faceOnLeft": false,
        "impliedDirection": 180,
        "testDirection": 180,
        "avgFps": 61,
        "minFps": 56,
        "maxFps": null,
        "totalFrames": 55,
        "frameRates": 61
      },
      {
        "trial_number": 3,
        "trial_index": 64,
        "rt": 748,
        "correct": true,
        "response": "ArrowLeft",
        "congruent": true,
        "gazeTowards": true,
        "gazeCondition": "towards",
        "faceOnLeft": false,
        "impliedDirection": 180,
        "testDirection": 180,
        "avgFps": 60,
        "minFps": 57,
        "maxFps": 65,
        "totalFrames": 45,
        "frameRates": 60
      },
      {
        "trial_number": 4,
        "trial_index": 69,
        "rt": 828,
        "correct": true,
        "response": "ArrowLeft",
        "congruent": false,
        "gazeTowards": false,
        "gazeCondition": "away",
        "faceOnLeft": true,
        "impliedDirection": 0,
        "testDirection": 180,
        "avgFps": 60,
        "minFps": 53,
        "maxFps": 68,
        "totalFrames": 50,
        "frameRates": 60
      },
      {
        "trial_number": 5,
        "trial_index": 77,
        "rt": 791,
        "correct": true,
        "response": "ArrowLeft",
        "congruent": false,
        "gazeTowards": true,
        "gazeCondition": "towards",
        "faceOnLeft": true,
        "impliedDirection": 0,
        "testDirection": 180,
        "avgFps": 60,
        "minFps": 58,
        "maxFps": 63,
        "totalFrames": 48,
        "frameRates": 60
      },
      {
        "trial_number": 6,
        "trial_index": 82,
        "rt": 807,
        "correct": true,
        "response": "ArrowLeft",
        "congruent": true,
        "gazeTowards": false,
        "gazeCondition": "away",
        "faceOnLeft": false,
        "impliedDirection": 180,
        "testDirection": 180,
        "avgFps": 60,
        "minFps": 57,
        "maxFps": 64,
        "totalFrames": 48,
        "frameRates": 60
      },
      {
        "trial_number": 7,
        "trial_index": 87,
        "rt": 853,
        "correct": true,
        "response": "ArrowLeft",
        "congruent": false,
        "gazeTowards": true,
        "gazeCondition": "towards",
        "faceOnLeft": true,
        "impliedDirection": 0,
        "testDirection": 180,
        "avgFps": 60,
        "minFps": 52,
        "maxFps": 71,
        "totalFrames": 51,
        "frameRates": 60
      },
      {
        "trial_number": 8,
        "trial_index": 92,
        "rt": 620,
        "correct": true,
        "response": "ArrowRight",
        "congruent": true,
        "gazeTowards": false,
        "gazeCondition": "away",
        "faceOnLeft": true,
        "impliedDirection": 0,
        "testDirection": 0,
        "avgFps": 60,
        "minFps": 58,
        "maxFps": 62,
        "totalFrames": 37,
        "frameRates": 60
      },
      {
        "trial_number": 9,
        "trial_index": 97,
        "rt": 757,
        "correct": false,
        "response": "ArrowLeft",
        "congruent": false,
        "gazeTowards": false,
        "gazeCondition": "away",
        "faceOnLeft": false,
        "impliedDirection": 180,
        "testDirection": 0,
        "avgFps": 60,
        "minFps": 57,
        "maxFps": 63,
        "totalFrames": 45,
        "frameRates": 60
      },
      {
        "trial_number": 10,
        "trial_index": 102,
        "rt": 808,
        "correct": true,
        "response": "ArrowRight",
        "congruent": false,
        "gazeTowards": false,
        "gazeCondition": "away",
        "faceOnLeft": false,
        "impliedDirection": 180,
        "testDirection": 0,
        "avgFps": 60,
        "minFps": 56,
        "maxFps": 66,
        "totalFrames": 49,
        "frameRates": 60
      },
      {
        "trial_number": 11,
        "trial_index": 110,
        "rt": 905,
        "correct": true,
        "response": "ArrowRight",
        "congruent": true,
        "gazeTowards": true,
        "gazeCondition": "towards",
        "faceOnLeft": true,
        "impliedDirection": 0,
        "testDirection": 0,
        "avgFps": 60,
        "minFps": 52,
        "maxFps": 70,
        "totalFrames": 54,
        "frameRates": 60
      },
      {
        "trial_number": 12,
        "trial_index": 118,
        "rt": 699,
        "correct": true,
        "response": "ArrowRight",
        "congruent": false,
        "gazeTowards": false,
        "gazeCondition": "away",
        "faceOnLeft": false,
        "impliedDirection": 180,
        "testDirection": 0,
        "avgFps": 60,
        "minFps": 58,
        "maxFps": 62,
        "totalFrames": 42,
        "frameRates": 60
      },
      {
        "trial_number": 13,
        "trial_index": 126,
        "rt": 807,
        "correct": true,
        "response": "ArrowLeft",
        "congruent": true,
        "gazeTowards": false,
        "gazeCondition": "away",
        "faceOnLeft": false,
        "impliedDirection": 180,
        "testDirection": 180,
        "avgFps": 60,
        "minFps": 58,
        "maxFps": 62,
        "totalFrames": 49,
        "frameRates": 60
      },
      {
        "trial_number": 14,
        "trial_index": 131,
        "rt": 723,
        "correct": true,
        "response": "ArrowRight",
        "congruent": true,
        "gazeTowards": false,
        "gazeCondition": "away",
        "faceOnLeft": true,
        "impliedDirection": 0,
        "testDirection": 0,
        "avgFps": 60,
        "minFps": 53,
        "maxFps": 66,
        "totalFrames": 44,
        "frameRates": 60
      },
      {
        "trial_number": 15,
        "trial_index": 136,
        "rt": 656,
        "correct": true,
        "response": "ArrowRight",
        "congruent": false,
        "gazeTowards": true,
        "gazeCondition": "towards",
        "faceOnLeft": false,
        "impliedDirection": 180,
        "testDirection": 0,
        "avgFps": 60,
        "minFps": 58,
        "maxFps": 63,
        "totalFrames": 40,
        "frameRates": 60
      },
      {
        "trial_number": 16,
        "trial_index": 141,
        "rt": 753,
        "correct": true,
        "response": "ArrowRight",
        "congruent": true,
        "gazeTowards": true,
        "gazeCondition": "towards",
        "faceOnLeft": true,
        "impliedDirection": 0,
        "testDirection": 0,
        "avgFps": 60,
        "minFps": 58,
        "maxFps": 62,
        "totalFrames": 45,
        "frameRates": 60
      },
      {
        "trial_number": 17,
        "trial_index": 146,
        "rt": 667,
        "correct": true,
        "response": "ArrowRight",
        "congruent": false,
        "gazeTowards": true,
        "gazeCondition": "towards",
        "faceOnLeft": false,
        "impliedDirection": 180,
        "testDirection": 0,
        "avgFps": 60,
        "minFps": 58,
        "maxFps": 62,
        "totalFrames": 40,
        "frameRates": 60
      },
      {
        "trial_number": 18,
        "trial_index": 151,
        "rt": 607,
        "correct": true,
        "response": "ArrowLeft",
        "congruent": false,
        "gazeTowards": false,
        "gazeCondition": "away",
        "faceOnLeft": true,
        "impliedDirection": 0,
        "testDirection": 180,
        "avgFps": 60,
        "minFps": 52,
        "maxFps": 74,
        "totalFrames": 36,
        "frameRates": 60
      },
      {
        "trial_number": 19,
        "trial_index": 156,
        "rt": 719,
        "correct": true,
        "response": "ArrowRight",
        "congruent": false,
        "gazeTowards": true,
        "gazeCondition": "towards",
        "faceOnLeft": false,
        "impliedDirection": 180,
        "testDirection": 0,
        "avgFps": 60,
        "minFps": 58,
        "maxFps": 70,
        "totalFrames": 43,
        "frameRates": 60
      },
      {
        "trial_number": 20,
        "trial_index": 161,
        "rt": 624,
        "correct": true,
        "response": "ArrowLeft",
        "congruent": true,
        "gazeTowards": true,
        "gazeCondition": "towards",
        "faceOnLeft": false,
        "impliedDirection": 180,
        "testDirection": 180,
        "avgFps": 60,
        "minFps": 57,
        "maxFps": 63,
        "totalFrames": 37,
        "frameRates": 60
      },
      {
        "trial_number": 21,
        "trial_index": 166,
        "rt": 866,
        "correct": true,
        "response": "ArrowLeft",
        "congruent": true,
        "gazeTowards": true,
        "gazeCondition": "towards",
        "faceOnLeft": false,
        "impliedDirection": 180,
        "testDirection": 180,
        "avgFps": 60,
        "minFps": 54,
        "maxFps": 70,
        "totalFrames": 52,
        "frameRates": 60
      },
      {
        "trial_number": 22,
        "trial_index": 171,
        "rt": 761,
        "correct": true,
        "response": "ArrowLeft",
        "congruent": true,
        "gazeTowards": true,
        "gazeCondition": "towards",
        "faceOnLeft": false,
        "impliedDirection": 180,
        "testDirection": 180,
        "avgFps": 60,
        "minFps": 51,
        "maxFps": 74,
        "totalFrames": 45,
        "frameRates": 60
      },
      {
        "trial_number": 23,
        "trial_index": 176,
        "rt": 621,
        "correct": true,
        "response": "ArrowRight",
        "congruent": false,
        "gazeTowards": true,
        "gazeCondition": "towards",
        "faceOnLeft": false,
        "impliedDirection": 180,
        "testDirection": 0,
        "avgFps": 60,
        "minFps": 58,
        "maxFps": 72,
        "totalFrames": 37,
        "frameRates": 60
      },
      {
        "trial_number": 24,
        "trial_index": 181,
        "rt": 668,
        "correct": true,
        "response": "ArrowRight",
        "congruent": false,
        "gazeTowards": true,
        "gazeCondition": "towards",
        "faceOnLeft": false,
        "impliedDirection": 180,
        "testDirection": 0,
        "avgFps": 60,
        "minFps": 57,
        "maxFps": 62,
        "totalFrames": 40,
        "frameRates": 60
      },
      {
        "trial_number": 25,
        "trial_index": 186,
        "rt": 815,
        "correct": true,
        "response": "ArrowLeft",
        "congruent": true,
        "gazeTowards": false,
        "gazeCondition": "away",
        "faceOnLeft": false,
        "impliedDirection": 180,
        "testDirection": 180,
        "avgFps": 60,
        "minFps": 54,
        "maxFps": 68,
        "totalFrames": 48,
        "frameRates": 60
      },
      {
        "trial_number": 26,
        "trial_index": 194,
        "rt": 668,
        "correct": true,
        "response": "ArrowLeft",
        "congruent": true,
        "gazeTowards": false,
        "gazeCondition": "away",
        "faceOnLeft": false,
        "impliedDirection": 180,
        "testDirection": 180,
        "avgFps": 60,
        "minFps": 54,
        "maxFps": 67,
        "totalFrames": 40,
        "frameRates": 60
      },
      {
        "trial_number": 27,
        "trial_index": 199,
        "rt": 603,
        "correct": true,
        "response": "ArrowRight",
        "congruent": true,
        "gazeTowards": true,
        "gazeCondition": "towards",
        "faceOnLeft": true,
        "impliedDirection": 0,
        "testDirection": 0,
        "avgFps": 60,
        "minFps": 57,
        "maxFps": 63,
        "totalFrames": 36,
        "frameRates": 60
      },
      {
        "trial_number": 28,
        "trial_index": 205,
        "rt": 635,
        "correct": true,
        "response": "ArrowLeft",
        "congruent": false,
        "gazeTowards": false,
        "gazeCondition": "away",
        "faceOnLeft": true,
        "impliedDirection": 0,
        "testDirection": 180,
        "avgFps": 60,
        "minFps": 57,
        "maxFps": 62,
        "totalFrames": 38,
        "frameRates": 60
      },
      {
        "trial_number": 29,
        "trial_index": 210,
        "rt": 683,
        "correct": true,
        "response": "ArrowLeft",
        "congruent": true,
        "gazeTowards": true,
        "gazeCondition": "towards",
        "faceOnLeft": false,
        "impliedDirection": 180,
        "testDirection": 180,
        "avgFps": 60,
        "minFps": 58,
        "maxFps": 63,
        "totalFrames": 41,
        "frameRates": 60
      },
      {
        "trial_number": 30,
        "trial_index": 215,
        "rt": 880,
        "correct": true,
        "response": "ArrowLeft",
        "congruent": true,
        "gazeTowards": true,
        "gazeCondition": "towards",
        "faceOnLeft": false,
        "impliedDirection": 180,
        "testDirection": 180,
        "avgFps": 60,
        "minFps": 58,
        "maxFps": 64,
        "totalFrames": 53,
        "frameRates": 60
      },
      {
        "trial_number": 31,
        "trial_index": 220,
        "rt": 974,
        "correct": true,
        "response": "ArrowLeft",
        "congruent": false,
        "gazeTowards": false,
        "gazeCondition": "away",
        "faceOnLeft": true,
        "impliedDirection": 0,
        "testDirection": 180,
        "avgFps": 60,
        "minFps": 58,
        "maxFps": 62,
        "totalFrames": 58,
        "frameRates": 60
      },
      {
        "trial_number": 32,
        "trial_index": 225,
        "rt": 852,
        "correct": true,
        "response": "ArrowLeft",
        "congruent": false,
        "gazeTowards": false,
        "gazeCondition": "away",
        "faceOnLeft": true,
        "impliedDirection": 0,
        "testDirection": 180,
        "avgFps": 60,
        "minFps": 56,
        "maxFps": 65,
        "totalFrames": 51,
        "frameRates": 60
      },
      {
        "trial_number": 33,
        "trial_index": 230,
        "rt": 742,
        "correct": true,
        "response": "ArrowLeft",
        "congruent": false,
        "gazeTowards": false,
        "gazeCondition": "away",
        "faceOnLeft": true,
        "impliedDirection": 0,
        "testDirection": 180,
        "avgFps": 60,
        "minFps": 57,
        "maxFps": 63,
        "totalFrames": 44,
        "frameRates": 60
      },
      {
        "trial_number": 34,
        "trial_index": 235,
        "rt": 808,
        "correct": false,
        "response": "ArrowLeft",
        "congruent": false,
        "gazeTowards": true,
        "gazeCondition": "towards",
        "faceOnLeft": false,
        "impliedDirection": 180,
        "testDirection": 0,
        "avgFps": 60,
        "minFps": 58,
        "maxFps": 64,
        "totalFrames": 49,
        "frameRates": 60
      },
      {
        "trial_number": 35,
        "trial_index": 240,
        "rt": 1157,
        "correct": true,
        "response": "ArrowLeft",
        "congruent": true,
        "gazeTowards": false,
        "gazeCondition": "away",
        "faceOnLeft": false,
        "impliedDirection": 180,
        "testDirection": 180,
        "avgFps": 60,
        "minFps": 55,
        "maxFps": 67,
        "totalFrames": 69,
        "frameRates": 60
      },
      {
        "trial_number": 36,
        "trial_index": 245,
        "rt": 1417,
        "correct": true,
        "response": "ArrowRight",
        "congruent": true,
        "gazeTowards": true,
        "gazeCondition": "towards",
        "faceOnLeft": true,
        "impliedDirection": 0,
        "testDirection": 0,
        "avgFps": 60,
        "minFps": 52,
        "maxFps": 75,
        "totalFrames": 85,
        "frameRates": 60
      },
      {
        "trial_number": 37,
        "trial_index": 250,
        "rt": 920,
        "correct": false,
        "response": "ArrowRight",
        "congruent": true,
        "gazeTowards": false,
        "gazeCondition": "away",
        "faceOnLeft": false,
        "impliedDirection": 180,
        "testDirection": 180,
        "avgFps": 60,
        "minFps": 58,
        "maxFps": 63,
        "totalFrames": 55,
        "frameRates": 60
      },
      {
        "trial_number": 38,
        "trial_index": 255,
        "rt": 1423,
        "correct": false,
        "response": "ArrowRight",
        "congruent": false,
        "gazeTowards": false,
        "gazeCondition": "away",
        "faceOnLeft": true,
        "impliedDirection": 0,
        "testDirection": 180,
        "avgFps": 60,
        "minFps": 51,
        "maxFps": 103,
        "totalFrames": 85,
        "frameRates": 60
      },
      {
        "trial_number": 39,
        "trial_index": 260,
        "rt": 1101,
        "correct": true,
        "response": "ArrowRight",
        "congruent": false,
        "gazeTowards": false,
        "gazeCondition": "away",
        "faceOnLeft": false,
        "impliedDirection": 180,
        "testDirection": 0,
        "avgFps": 60,
        "minFps": 57,
        "maxFps": 62,
        "totalFrames": 66,
        "frameRates": 60
      },
      {
        "trial_number": 40,
        "trial_index": 265,
        "rt": 1844,
        "correct": false,
        "response": "ArrowRight",
        "congruent": false,
        "gazeTowards": true,
        "gazeCondition": "towards",
        "faceOnLeft": true,
        "impliedDirection": 0,
        "testDirection": 180,
        "avgFps": 60,
        "minFps": 55,
        "maxFps": 104,
        "totalFrames": 111,
        "frameRates": 60
      },
      {
        "trial_number": 41,
        "trial_index": 270,
        "rt": 1395,
        "correct": true,
        "response": "ArrowRight",
        "congruent": true,
        "gazeTowards": true,
        "gazeCondition": "towards",
        "faceOnLeft": true,
        "impliedDirection": 0,
        "testDirection": 0,
        "avgFps": 60,
        "minFps": 53,
        "maxFps": 69,
        "totalFrames": 84,
        "frameRates": 60
      },
      {
        "trial_number": 42,
        "trial_index": 275,
        "rt": 1459,
        "correct": true,
        "response": "ArrowLeft",
        "congruent": true,
        "gazeTowards": false,
        "gazeCondition": "away",
        "faceOnLeft": false,
        "impliedDirection": 180,
        "testDirection": 180,
        "avgFps": 60,
        "minFps": 58,
        "maxFps": 63,
        "totalFrames": 88,
        "frameRates": 60
      },
      {
        "trial_number": 43,
        "trial_index": 280,
        "rt": 1882,
        "correct": true,
        "response": "ArrowRight",
        "congruent": true,
        "gazeTowards": true,
        "gazeCondition": "towards",
        "faceOnLeft": true,
        "impliedDirection": 0,
        "testDirection": 0,
        "avgFps": 60,
        "minFps": 52,
        "maxFps": 72,
        "totalFrames": 113,
        "frameRates": 60
      },
      {
        "trial_number": 44,
        "trial_index": 285,
        "rt": 1852,
        "correct": true,
        "response": "ArrowLeft",
        "congruent": false,
        "gazeTowards": true,
        "gazeCondition": "towards",
        "faceOnLeft": true,
        "impliedDirection": 0,
        "testDirection": 180,
        "avgFps": 60,
        "minFps": 57,
        "maxFps": 62,
        "totalFrames": 111,
        "frameRates": 60
      },
      {
        "trial_number": 45,
        "trial_index": 290,
        "rt": 834,
        "correct": true,
        "response": "ArrowRight",
        "congruent": false,
        "gazeTowards": false,
        "gazeCondition": "away",
        "faceOnLeft": false,
        "impliedDirection": 180,
        "testDirection": 0,
        "avgFps": 60,
        "minFps": 58,
        "maxFps": 62,
        "totalFrames": 50,
        "frameRates": 60
      },
      {
        "trial_number": 46,
        "trial_index": 295,
        "rt": 897,
        "correct": true,
        "response": "ArrowLeft",
        "congruent": true,
        "gazeTowards": false,
        "gazeCondition": "away",
        "faceOnLeft": false,
        "impliedDirection": 180,
        "testDirection": 180,
        "avgFps": 60,
        "minFps": 54,
        "maxFps": 70,
        "totalFrames": 53,
        "frameRates": 60
      },
      {
        "trial_number": 47,
        "trial_index": 300,
        "rt": 1127,
        "correct": true,
        "response": "ArrowRight",
        "congruent": false,
        "gazeTowards": false,
        "gazeCondition": "away",
        "faceOnLeft": false,
        "impliedDirection": 180,
        "testDirection": 0,
        "avgFps": 60,
        "minFps": 56,
        "maxFps": 65,
        "totalFrames": 68,
        "frameRates": 60
      },
      {
        "trial_number": 48,
        "trial_index": 305,
        "rt": 1728,
        "correct": true,
        "response": "ArrowLeft",
        "congruent": false,
        "gazeTowards": false,
        "gazeCondition": "away",
        "faceOnLeft": true,
        "impliedDirection": 0,
        "testDirection": 180,
        "avgFps": 60,
        "minFps": 58,
        "maxFps": 63,
        "totalFrames": 103,
        "frameRates": 60
      },
      {
        "trial_number": 49,
        "trial_index": 310,
        "rt": 1084,
        "correct": true,
        "response": "ArrowRight",
        "congruent": false,
        "gazeTowards": true,
        "gazeCondition": "towards",
        "faceOnLeft": false,
        "impliedDirection": 180,
        "testDirection": 0,
        "avgFps": 60,
        "minFps": 58,
        "maxFps": 63,
        "totalFrames": 65,
        "frameRates": 60
      },
      {
        "trial_number": 50,
        "trial_index": 318,
        "rt": 819,
        "correct": true,
        "response": "ArrowLeft",
        "congruent": true,
        "gazeTowards": false,
        "gazeCondition": "away",
        "faceOnLeft": false,
        "impliedDirection": 180,
        "testDirection": 180,
        "avgFps": 60,
        "minFps": 57,
        "maxFps": 63,
        "totalFrames": 49,
        "frameRates": 60
      },
      {
        "trial_number": 51,
        "trial_index": 323,
        "rt": 822,
        "correct": true,
        "response": "ArrowLeft",
        "congruent": true,
        "gazeTowards": false,
        "gazeCondition": "away",
        "faceOnLeft": false,
        "impliedDirection": 180,
        "testDirection": 180,
        "avgFps": 60,
        "minFps": 57,
        "maxFps": 64,
        "totalFrames": 49,
        "frameRates": 60
      },
      {
        "trial_number": 52,
        "trial_index": 328,
        "rt": 624,
        "correct": true,
        "response": "ArrowRight",
        "congruent": false,
        "gazeTowards": false,
        "gazeCondition": "away",
        "faceOnLeft": false,
        "impliedDirection": 180,
        "testDirection": 0,
        "avgFps": 60,
        "minFps": 58,
        "maxFps": 62,
        "totalFrames": 38,
        "frameRates": 60
      },
      {
        "trial_number": 53,
        "trial_index": 333,
        "rt": 649,
        "correct": true,
        "response": "ArrowLeft",
        "congruent": true,
        "gazeTowards": false,
        "gazeCondition": "away",
        "faceOnLeft": false,
        "impliedDirection": 180,
        "testDirection": 180,
        "avgFps": 60,
        "minFps": 55,
        "maxFps": 64,
        "totalFrames": 39,
        "frameRates": 60
      },
      {
        "trial_number": 54,
        "trial_index": 341,
        "rt": 655,
        "correct": true,
        "response": "ArrowRight",
        "congruent": true,
        "gazeTowards": false,
        "gazeCondition": "away",
        "faceOnLeft": true,
        "impliedDirection": 0,
        "testDirection": 0,
        "avgFps": 60,
        "minFps": 58,
        "maxFps": 62,
        "totalFrames": 39,
        "frameRates": 60
      },
      {
        "trial_number": 55,
        "trial_index": 349,
        "rt": 1065,
        "correct": true,
        "response": "ArrowLeft",
        "congruent": true,
        "gazeTowards": true,
        "gazeCondition": "towards",
        "faceOnLeft": false,
        "impliedDirection": 180,
        "testDirection": 180,
        "avgFps": 60,
        "minFps": 58,
        "maxFps": 63,
        "totalFrames": 64,
        "frameRates": 60
      },
      {
        "trial_number": 56,
        "trial_index": 354,
        "rt": 898,
        "correct": true,
        "response": "ArrowRight",
        "congruent": true,
        "gazeTowards": false,
        "gazeCondition": "away",
        "faceOnLeft": true,
        "impliedDirection": 0,
        "testDirection": 0,
        "avgFps": 60,
        "minFps": 58,
        "maxFps": 63,
        "totalFrames": 52,
        "frameRates": 60
      },
      {
        "trial_number": 57,
        "trial_index": 363,
        "rt": 953,
        "correct": true,
        "response": "ArrowRight",
        "congruent": false,
        "gazeTowards": true,
        "gazeCondition": "towards",
        "faceOnLeft": false,
        "impliedDirection": 180,
        "testDirection": 0,
        "avgFps": 60,
        "minFps": 58,
        "maxFps": 63,
        "totalFrames": 57,
        "frameRates": 60
      },
      {
        "trial_number": 58,
        "trial_index": 368,
        "rt": 958,
        "correct": true,
        "response": "ArrowLeft",
        "congruent": false,
        "gazeTowards": false,
        "gazeCondition": "away",
        "faceOnLeft": true,
        "impliedDirection": 0,
        "testDirection": 180,
        "avgFps": 60,
        "minFps": 58,
        "maxFps": 63,
        "totalFrames": 57,
        "frameRates": 60
      },
      {
        "trial_number": 59,
        "trial_index": 373,
        "rt": 891,
        "correct": true,
        "response": "ArrowRight",
        "congruent": false,
        "gazeTowards": true,
        "gazeCondition": "towards",
        "faceOnLeft": false,
        "impliedDirection": 180,
        "testDirection": 0,
        "avgFps": 60,
        "minFps": 58,
        "maxFps": 62,
        "totalFrames": 53,
        "frameRates": 60
      },
      {
        "trial_number": 60,
        "trial_index": 378,
        "rt": 665,
        "correct": true,
        "response": "ArrowRight",
        "congruent": true,
        "gazeTowards": true,
        "gazeCondition": "towards",
        "faceOnLeft": true,
        "impliedDirection": 0,
        "testDirection": 0,
        "avgFps": 60,
        "minFps": 55,
        "maxFps": 66,
        "totalFrames": 40,
        "frameRates": 60
      },
      {
        "trial_number": 61,
        "trial_index": 383,
        "rt": 611,
        "correct": true,
        "response": "ArrowRight",
        "congruent": false,
        "gazeTowards": true,
        "gazeCondition": "towards",
        "faceOnLeft": false,
        "impliedDirection": 180,
        "testDirection": 0,
        "avgFps": 60,
        "minFps": 58,
        "maxFps": 63,
        "totalFrames": 36,
        "frameRates": 60
      },
      {
        "trial_number": 62,
        "trial_index": 388,
        "rt": 597,
        "correct": true,
        "response": "ArrowLeft",
        "congruent": true,
        "gazeTowards": true,
        "gazeCondition": "towards",
        "faceOnLeft": false,
        "impliedDirection": 180,
        "testDirection": 180,
        "avgFps": 62,
        "minFps": 57,
        "maxFps": null,
        "totalFrames": 36,
        "frameRates": 62
      },
      {
        "trial_number": 63,
        "trial_index": 393,
        "rt": 839,
        "correct": true,
        "response": "ArrowRight",
        "congruent": false,
        "gazeTowards": true,
        "gazeCondition": "towards",
        "faceOnLeft": false,
        "impliedDirection": 180,
        "testDirection": 0,
        "avgFps": 60,
        "minFps": 53,
        "maxFps": 70,
        "totalFrames": 50,
        "frameRates": 60
      },
      {
        "trial_number": 64,
        "trial_index": 398,
        "rt": 1734,
        "correct": true,
        "response": "ArrowRight",
        "congruent": false,
        "gazeTowards": true,
        "gazeCondition": "towards",
        "faceOnLeft": false,
        "impliedDirection": 180,
        "testDirection": 0,
        "avgFps": 60,
        "minFps": 47,
        "maxFps": 83,
        "totalFrames": 104,
        "frameRates": 60
      },
      {
        "trial_number": 65,
        "trial_index": 406,
        "rt": 1457,
        "correct": true,
        "response": "ArrowLeft",
        "congruent": true,
        "gazeTowards": false,
        "gazeCondition": "away",
        "faceOnLeft": false,
        "impliedDirection": 180,
        "testDirection": 180,
        "avgFps": 60,
        "minFps": 56,
        "maxFps": 64,
        "totalFrames": 87,
        "frameRates": 60
      },
      {
        "trial_number": 66,
        "trial_index": 411,
        "rt": 775,
        "correct": true,
        "response": "ArrowRight",
        "congruent": false,
        "gazeTowards": false,
        "gazeCondition": "away",
        "faceOnLeft": false,
        "impliedDirection": 180,
        "testDirection": 0,
        "avgFps": 60,
        "minFps": 58,
        "maxFps": 62,
        "totalFrames": 47,
        "frameRates": 60
      },
      {
        "trial_number": 67,
        "trial_index": 416,
        "rt": 1193,
        "correct": true,
        "response": "ArrowRight",
        "congruent": false,
        "gazeTowards": false,
        "gazeCondition": "away",
        "faceOnLeft": false,
        "impliedDirection": 180,
        "testDirection": 0,
        "avgFps": 59,
        "minFps": 26,
        "maxFps": 81,
        "totalFrames": 71,
        "frameRates": 59
      },
      {
        "trial_number": 68,
        "trial_index": 421,
        "rt": 795,
        "correct": true,
        "response": "ArrowLeft",
        "congruent": false,
        "gazeTowards": false,
        "gazeCondition": "away",
        "faceOnLeft": true,
        "impliedDirection": 0,
        "testDirection": 180,
        "avgFps": 60,
        "minFps": 57,
        "maxFps": 63,
        "totalFrames": 46,
        "frameRates": 60
      },
      {
        "trial_number": 69,
        "trial_index": 426,
        "rt": 1153,
        "correct": true,
        "response": "ArrowLeft",
        "congruent": true,
        "gazeTowards": false,
        "gazeCondition": "away",
        "faceOnLeft": false,
        "impliedDirection": 180,
        "testDirection": 180,
        "avgFps": 60,
        "minFps": 57,
        "maxFps": 63,
        "totalFrames": 69,
        "frameRates": 60
      },
      {
        "trial_number": 70,
        "trial_index": 431,
        "rt": 1103,
        "correct": true,
        "response": "ArrowRight",
        "congruent": true,
        "gazeTowards": true,
        "gazeCondition": "towards",
        "faceOnLeft": true,
        "impliedDirection": 0,
        "testDirection": 0,
        "avgFps": 60,
        "minFps": 57,
        "maxFps": 63,
        "totalFrames": 66,
        "frameRates": 60
      },
      {
        "trial_number": 71,
        "trial_index": 436,
        "rt": 1375,
        "correct": false,
        "response": "ArrowRight",
        "congruent": true,
        "gazeTowards": true,
        "gazeCondition": "towards",
        "faceOnLeft": false,
        "impliedDirection": 180,
        "testDirection": 180,
        "avgFps": 60,
        "minFps": 53,
        "maxFps": 69,
        "totalFrames": 82,
        "frameRates": 60
      },
      {
        "trial_number": 72,
        "trial_index": 441,
        "rt": 1287,
        "correct": true,
        "response": "ArrowLeft",
        "congruent": false,
        "gazeTowards": true,
        "gazeCondition": "towards",
        "faceOnLeft": true,
        "impliedDirection": 0,
        "testDirection": 180,
        "avgFps": 60,
        "minFps": 58,
        "maxFps": 62,
        "totalFrames": 76,
        "frameRates": 60
      },
      {
        "trial_number": 73,
        "trial_index": 446,
        "rt": 1783,
        "correct": true,
        "response": "ArrowLeft",
        "congruent": true,
        "gazeTowards": true,
        "gazeCondition": "towards",
        "faceOnLeft": false,
        "impliedDirection": 180,
        "testDirection": 180,
        "avgFps": 60,
        "minFps": 56,
        "maxFps": 64,
        "totalFrames": 107,
        "frameRates": 60
      },
      {
        "trial_number": 74,
        "trial_index": 451,
        "rt": 680,
        "correct": true,
        "response": "ArrowRight",
        "congruent": false,
        "gazeTowards": false,
        "gazeCondition": "away",
        "faceOnLeft": false,
        "impliedDirection": 180,
        "testDirection": 0,
        "avgFps": 60,
        "minFps": 58,
        "maxFps": 65,
        "totalFrames": 41,
        "frameRates": 60
      },
      {
        "trial_number": 75,
        "trial_index": 456,
        "rt": 676,
        "correct": true,
        "response": "ArrowRight",
        "congruent": false,
        "gazeTowards": true,
        "gazeCondition": "towards",
        "faceOnLeft": false,
        "impliedDirection": 180,
        "testDirection": 0,
        "avgFps": 60,
        "minFps": 58,
        "maxFps": 62,
        "totalFrames": 40,
        "frameRates": 60
      },
      {
        "trial_number": 76,
        "trial_index": 461,
        "rt": 666,
        "correct": true,
        "response": "ArrowRight",
        "congruent": true,
        "gazeTowards": true,
        "gazeCondition": "towards",
        "faceOnLeft": true,
        "impliedDirection": 0,
        "testDirection": 0,
        "avgFps": 62,
        "minFps": 58,
        "maxFps": null,
        "totalFrames": 40,
        "frameRates": 62
      },
      {
        "trial_number": 77,
        "trial_index": 466,
        "rt": 1086,
        "correct": true,
        "response": "ArrowRight",
        "congruent": false,
        "gazeTowards": false,
        "gazeCondition": "away",
        "faceOnLeft": false,
        "impliedDirection": 180,
        "testDirection": 0,
        "avgFps": 60,
        "minFps": 54,
        "maxFps": 65,
        "totalFrames": 65,
        "frameRates": 60
      },
      {
        "trial_number": 78,
        "trial_index": 471,
        "rt": 668,
        "correct": true,
        "response": "ArrowLeft",
        "congruent": false,
        "gazeTowards": false,
        "gazeCondition": "away",
        "faceOnLeft": true,
        "impliedDirection": 0,
        "testDirection": 180,
        "avgFps": 60,
        "minFps": 58,
        "maxFps": 62,
        "totalFrames": 40,
        "frameRates": 60
      },
      {
        "trial_number": 79,
        "trial_index": 476,
        "rt": 1114,
        "correct": true,
        "response": "ArrowLeft",
        "congruent": false,
        "gazeTowards": true,
        "gazeCondition": "towards",
        "faceOnLeft": true,
        "impliedDirection": 0,
        "testDirection": 180,
        "avgFps": 60,
        "minFps": 58,
        "maxFps": 63,
        "totalFrames": 66,
        "frameRates": 60
      },
      {
        "trial_number": 80,
        "trial_index": 481,
        "rt": 1102,
        "correct": true,
        "response": "ArrowRight",
        "congruent": false,
        "gazeTowards": true,
        "gazeCondition": "towards",
        "faceOnLeft": false,
        "impliedDirection": 180,
        "testDirection": 0,
        "avgFps": 60,
        "minFps": 57,
        "maxFps": 63,
        "totalFrames": 66,
        "frameRates": 60
      },
      {
        "trial_number": 81,
        "trial_index": 486,
        "rt": null,
        "correct": false,
        "response": null,
        "congruent": false,
        "gazeTowards": false,
        "gazeCondition": "away",
        "faceOnLeft": true,
        "impliedDirection": 0,
        "testDirection": 180,
        "avgFps": 60,
        "minFps": 58,
        "maxFps": 63,
        "totalFrames": 120,
        "frameRates": 60
      },
      {
        "trial_number": 82,
        "trial_index": 491,
        "rt": 570,
        "correct": true,
        "response": "ArrowRight",
        "congruent": true,
        "gazeTowards": true,
        "gazeCondition": "towards",
        "faceOnLeft": true,
        "impliedDirection": 0,
        "testDirection": 0,
        "avgFps": 60,
        "minFps": 57,
        "maxFps": 63,
        "totalFrames": 34,
        "frameRates": 60
      },
      {
        "trial_number": 83,
        "trial_index": 496,
        "rt": 593,
        "correct": true,
        "response": "ArrowLeft",
        "congruent": true,
        "gazeTowards": false,
        "gazeCondition": "away",
        "faceOnLeft": false,
        "impliedDirection": 180,
        "testDirection": 180,
        "avgFps": 60,
        "minFps": 58,
        "maxFps": 62,
        "totalFrames": 36,
        "frameRates": 60
      },
      {
        "trial_number": 84,
        "trial_index": 501,
        "rt": 852,
        "correct": true,
        "response": "ArrowRight",
        "congruent": false,
        "gazeTowards": true,
        "gazeCondition": "towards",
        "faceOnLeft": false,
        "impliedDirection": 180,
        "testDirection": 0,
        "avgFps": 60,
        "minFps": 53,
        "maxFps": 67,
        "totalFrames": 51,
        "frameRates": 60
      },
      {
        "trial_number": 85,
        "trial_index": 506,
        "rt": 802,
        "correct": true,
        "response": "ArrowLeft",
        "congruent": false,
        "gazeTowards": false,
        "gazeCondition": "away",
        "faceOnLeft": true,
        "impliedDirection": 0,
        "testDirection": 180,
        "avgFps": 60,
        "minFps": 56,
        "maxFps": 66,
        "totalFrames": 48,
        "frameRates": 60
      },
      {
        "trial_number": 86,
        "trial_index": 511,
        "rt": 700,
        "correct": true,
        "response": "ArrowRight",
        "congruent": false,
        "gazeTowards": true,
        "gazeCondition": "towards",
        "faceOnLeft": false,
        "impliedDirection": 180,
        "testDirection": 0,
        "avgFps": 60,
        "minFps": 57,
        "maxFps": 63,
        "totalFrames": 42,
        "frameRates": 60
      },
      {
        "trial_number": 87,
        "trial_index": 516,
        "rt": 1101,
        "correct": true,
        "response": "ArrowLeft",
        "congruent": false,
        "gazeTowards": true,
        "gazeCondition": "towards",
        "faceOnLeft": true,
        "impliedDirection": 0,
        "testDirection": 180,
        "avgFps": 60,
        "minFps": 57,
        "maxFps": 93,
        "totalFrames": 66,
        "frameRates": 60
      },
      {
        "trial_number": 88,
        "trial_index": 521,
        "rt": 733,
        "correct": true,
        "response": "ArrowRight",
        "congruent": false,
        "gazeTowards": false,
        "gazeCondition": "away",
        "faceOnLeft": false,
        "impliedDirection": 180,
        "testDirection": 0,
        "avgFps": 60,
        "minFps": 57,
        "maxFps": 62,
        "totalFrames": 44,
        "frameRates": 60
      },
      {
        "trial_number": 89,
        "trial_index": 527,
        "rt": 941,
        "correct": false,
        "response": "ArrowRight",
        "congruent": true,
        "gazeTowards": false,
        "gazeCondition": "away",
        "faceOnLeft": false,
        "impliedDirection": 180,
        "testDirection": 180,
        "avgFps": 60,
        "minFps": 52,
        "maxFps": 71,
        "totalFrames": 56,
        "frameRates": 60
      },
      {
        "trial_number": 90,
        "trial_index": 532,
        "rt": 819,
        "correct": true,
        "response": "ArrowRight",
        "congruent": true,
        "gazeTowards": true,
        "gazeCondition": "towards",
        "faceOnLeft": true,
        "impliedDirection": 0,
        "testDirection": 0,
        "avgFps": 60,
        "minFps": 53,
        "maxFps": 70,
        "totalFrames": 49,
        "frameRates": 60
      },
      {
        "trial_number": 91,
        "trial_index": 540,
        "rt": 872,
        "correct": true,
        "response": "ArrowLeft",
        "congruent": true,
        "gazeTowards": false,
        "gazeCondition": "away",
        "faceOnLeft": false,
        "impliedDirection": 180,
        "testDirection": 180,
        "avgFps": 60,
        "minFps": 56,
        "maxFps": 64,
        "totalFrames": 52,
        "frameRates": 60
      },
      {
        "trial_number": 92,
        "trial_index": 545,
        "rt": 857,
        "correct": true,
        "response": "ArrowLeft",
        "congruent": true,
        "gazeTowards": true,
        "gazeCondition": "towards",
        "faceOnLeft": false,
        "impliedDirection": 180,
        "testDirection": 180,
        "avgFps": 60,
        "minFps": 54,
        "maxFps": 64,
        "totalFrames": 52,
        "frameRates": 60
      },
      {
        "trial_number": 93,
        "trial_index": 550,
        "rt": 820,
        "correct": true,
        "response": "ArrowRight",
        "congruent": true,
        "gazeTowards": false,
        "gazeCondition": "away",
        "faceOnLeft": true,
        "impliedDirection": 0,
        "testDirection": 0,
        "avgFps": 60,
        "minFps": 52,
        "maxFps": 71,
        "totalFrames": 49,
        "frameRates": 60
      },
      {
        "trial_number": 94,
        "trial_index": 555,
        "rt": 642,
        "correct": true,
        "response": "ArrowLeft",
        "congruent": true,
        "gazeTowards": true,
        "gazeCondition": "towards",
        "faceOnLeft": false,
        "impliedDirection": 180,
        "testDirection": 180,
        "avgFps": 60,
        "minFps": 58,
        "maxFps": 62,
        "totalFrames": 39,
        "frameRates": 60
      },
      {
        "trial_number": 95,
        "trial_index": 560,
        "rt": 547,
        "correct": true,
        "response": "ArrowLeft",
        "congruent": true,
        "gazeTowards": false,
        "gazeCondition": "away",
        "faceOnLeft": false,
        "impliedDirection": 180,
        "testDirection": 180,
        "avgFps": 60,
        "minFps": 52,
        "maxFps": 72,
        "totalFrames": 33,
        "frameRates": 60
      },
      {
        "trial_number": 96,
        "trial_index": 565,
        "rt": 933,
        "correct": true,
        "response": "ArrowRight",
        "congruent": false,
        "gazeTowards": false,
        "gazeCondition": "away",
        "faceOnLeft": false,
        "impliedDirection": 180,
        "testDirection": 0,
        "avgFps": 60,
        "minFps": 54,
        "maxFps": 65,
        "totalFrames": 56,
        "frameRates": 60
      },
      {
        "trial_number": 97,
        "trial_index": 570,
        "rt": 717,
        "correct": true,
        "response": "ArrowRight",
        "congruent": false,
        "gazeTowards": false,
        "gazeCondition": "away",
        "faceOnLeft": false,
        "impliedDirection": 180,
        "testDirection": 0,
        "avgFps": 60,
        "minFps": 53,
        "maxFps": 68,
        "totalFrames": 43,
        "frameRates": 60
      },
      {
        "trial_number": 98,
        "trial_index": 575,
        "rt": 630,
        "correct": true,
        "response": "ArrowRight",
        "congruent": true,
        "gazeTowards": false,
        "gazeCondition": "away",
        "faceOnLeft": true,
        "impliedDirection": 0,
        "testDirection": 0,
        "avgFps": 60,
        "minFps": 54,
        "maxFps": 68,
        "totalFrames": 38,
        "frameRates": 60
      },
      {
        "trial_number": 99,
        "trial_index": 580,
        "rt": 850,
        "correct": false,
        "response": "ArrowRight",
        "congruent": false,
        "gazeTowards": true,
        "gazeCondition": "towards",
        "faceOnLeft": true,
        "impliedDirection": 0,
        "testDirection": 180,
        "avgFps": 60,
        "minFps": 52,
        "maxFps": 72,
        "totalFrames": 51,
        "frameRates": 60
      },
      {
        "trial_number": 100,
        "trial_index": 585,
        "rt": 653,
        "correct": true,
        "response": "ArrowRight",
        "congruent": true,
        "gazeTowards": false,
        "gazeCondition": "away",
        "faceOnLeft": true,
        "impliedDirection": 0,
        "testDirection": 0,
        "avgFps": 60,
        "minFps": 58,
        "maxFps": 63,
        "totalFrames": 39,
        "frameRates": 60
      },
      {
        "trial_number": 101,
        "trial_index": 590,
        "rt": 824,
        "correct": false,
        "response": "ArrowRight",
        "congruent": false,
        "gazeTowards": false,
        "gazeCondition": "away",
        "faceOnLeft": true,
        "impliedDirection": 0,
        "testDirection": 180,
        "avgFps": 60,
        "minFps": 51,
        "maxFps": 74,
        "totalFrames": 50,
        "frameRates": 60
      },
      {
        "trial_number": 102,
        "trial_index": 595,
        "rt": 843,
        "correct": true,
        "response": "ArrowLeft",
        "congruent": true,
        "gazeTowards": true,
        "gazeCondition": "towards",
        "faceOnLeft": false,
        "impliedDirection": 180,
        "testDirection": 180,
        "avgFps": 60,
        "minFps": 55,
        "maxFps": 68,
        "totalFrames": 51,
        "frameRates": 60
      },
      {
        "trial_number": 103,
        "trial_index": 600,
        "rt": 910,
        "correct": true,
        "response": "ArrowLeft",
        "congruent": false,
        "gazeTowards": true,
        "gazeCondition": "towards",
        "faceOnLeft": true,
        "impliedDirection": 0,
        "testDirection": 180,
        "avgFps": 60,
        "minFps": 58,
        "maxFps": 62,
        "totalFrames": 54,
        "frameRates": 60
      },
      {
        "trial_number": 104,
        "trial_index": 605,
        "rt": 1049,
        "correct": true,
        "response": "ArrowRight",
        "congruent": true,
        "gazeTowards": false,
        "gazeCondition": "away",
        "faceOnLeft": true,
        "impliedDirection": 0,
        "testDirection": 0,
        "avgFps": 60,
        "minFps": 58,
        "maxFps": 63,
        "totalFrames": 63,
        "frameRates": 60
      },
      {
        "trial_number": 105,
        "trial_index": 610,
        "rt": 980,
        "correct": true,
        "response": "ArrowLeft",
        "congruent": true,
        "gazeTowards": false,
        "gazeCondition": "away",
        "faceOnLeft": false,
        "impliedDirection": 180,
        "testDirection": 180,
        "avgFps": 60,
        "minFps": 58,
        "maxFps": 63,
        "totalFrames": 59,
        "frameRates": 60
      },
      {
        "trial_number": 106,
        "trial_index": 615,
        "rt": 864,
        "correct": true,
        "response": "ArrowRight",
        "congruent": false,
        "gazeTowards": true,
        "gazeCondition": "towards",
        "faceOnLeft": false,
        "impliedDirection": 180,
        "testDirection": 0,
        "avgFps": 60,
        "minFps": 57,
        "maxFps": 63,
        "totalFrames": 52,
        "frameRates": 60
      },
      {
        "trial_number": 107,
        "trial_index": 620,
        "rt": 855,
        "correct": true,
        "response": "ArrowLeft",
        "congruent": false,
        "gazeTowards": true,
        "gazeCondition": "towards",
        "faceOnLeft": true,
        "impliedDirection": 0,
        "testDirection": 180,
        "avgFps": 60,
        "minFps": 54,
        "maxFps": 68,
        "totalFrames": 51,
        "frameRates": 60
      },
      {
        "trial_number": 108,
        "trial_index": 625,
        "rt": 635,
        "correct": true,
        "response": "ArrowLeft",
        "congruent": true,
        "gazeTowards": false,
        "gazeCondition": "away",
        "faceOnLeft": false,
        "impliedDirection": 180,
        "testDirection": 180,
        "avgFps": 60,
        "minFps": 58,
        "maxFps": 63,
        "totalFrames": 38,
        "frameRates": 60
      },
      {
        "trial_number": 109,
        "trial_index": 630,
        "rt": 1013,
        "correct": true,
        "response": "ArrowRight",
        "congruent": true,
        "gazeTowards": true,
        "gazeCondition": "towards",
        "faceOnLeft": true,
        "impliedDirection": 0,
        "testDirection": 0,
        "avgFps": 60,
        "minFps": 53,
        "maxFps": 69,
        "totalFrames": 61,
        "frameRates": 60
      },
      {
        "trial_number": 110,
        "trial_index": 638,
        "rt": 801,
        "correct": true,
        "response": "ArrowLeft",
        "congruent": true,
        "gazeTowards": false,
        "gazeCondition": "away",
        "faceOnLeft": false,
        "impliedDirection": 180,
        "testDirection": 180,
        "avgFps": 60,
        "minFps": 58,
        "maxFps": 63,
        "totalFrames": 48,
        "frameRates": 60
      },
      {
        "trial_number": 111,
        "trial_index": 643,
        "rt": 641,
        "correct": true,
        "response": "ArrowRight",
        "congruent": true,
        "gazeTowards": true,
        "gazeCondition": "towards",
        "faceOnLeft": true,
        "impliedDirection": 0,
        "testDirection": 0,
        "avgFps": 60,
        "minFps": 51,
        "maxFps": 69,
        "totalFrames": 38,
        "frameRates": 60
      },
      {
        "trial_number": 112,
        "trial_index": 648,
        "rt": 931,
        "correct": true,
        "response": "ArrowRight",
        "congruent": false,
        "gazeTowards": true,
        "gazeCondition": "towards",
        "faceOnLeft": false,
        "impliedDirection": 180,
        "testDirection": 0,
        "avgFps": 60,
        "minFps": 54,
        "maxFps": 69,
        "totalFrames": 56,
        "frameRates": 60
      },
      {
        "trial_number": 113,
        "trial_index": 653,
        "rt": 851,
        "correct": true,
        "response": "ArrowLeft",
        "congruent": false,
        "gazeTowards": true,
        "gazeCondition": "towards",
        "faceOnLeft": true,
        "impliedDirection": 0,
        "testDirection": 180,
        "avgFps": 60,
        "minFps": 50,
        "maxFps": 74,
        "totalFrames": 51,
        "frameRates": 60
      },
      {
        "trial_number": 114,
        "trial_index": 658,
        "rt": 897,
        "correct": false,
        "response": "ArrowRight",
        "congruent": false,
        "gazeTowards": false,
        "gazeCondition": "away",
        "faceOnLeft": true,
        "impliedDirection": 0,
        "testDirection": 180,
        "avgFps": 60,
        "minFps": 56,
        "maxFps": 66,
        "totalFrames": 53,
        "frameRates": 60
      },
      {
        "trial_number": 115,
        "trial_index": 663,
        "rt": 1044,
        "correct": true,
        "response": "ArrowLeft",
        "congruent": true,
        "gazeTowards": true,
        "gazeCondition": "towards",
        "faceOnLeft": false,
        "impliedDirection": 180,
        "testDirection": 180,
        "avgFps": 60,
        "minFps": 57,
        "maxFps": 63,
        "totalFrames": 62,
        "frameRates": 60
      },
      {
        "trial_number": 116,
        "trial_index": 668,
        "rt": 1005,
        "correct": false,
        "response": "ArrowRight",
        "congruent": true,
        "gazeTowards": true,
        "gazeCondition": "towards",
        "faceOnLeft": false,
        "impliedDirection": 180,
        "testDirection": 180,
        "avgFps": 60,
        "minFps": 55,
        "maxFps": 65,
        "totalFrames": 60,
        "frameRates": 60
      },
      {
        "trial_number": 117,
        "trial_index": 673,
        "rt": 1036,
        "correct": true,
        "response": "ArrowRight",
        "congruent": true,
        "gazeTowards": false,
        "gazeCondition": "away",
        "faceOnLeft": true,
        "impliedDirection": 0,
        "testDirection": 0,
        "avgFps": 60,
        "minFps": 54,
        "maxFps": 69,
        "totalFrames": 62,
        "frameRates": 60
      },
      {
        "trial_number": 118,
        "trial_index": 678,
        "rt": 871,
        "correct": true,
        "response": "ArrowLeft",
        "congruent": true,
        "gazeTowards": true,
        "gazeCondition": "towards",
        "faceOnLeft": false,
        "impliedDirection": 180,
        "testDirection": 180,
        "avgFps": 60,
        "minFps": 58,
        "maxFps": 62,
        "totalFrames": 52,
        "frameRates": 60
      },
      {
        "trial_number": 119,
        "trial_index": 683,
        "rt": 875,
        "correct": true,
        "response": "ArrowRight",
        "congruent": true,
        "gazeTowards": false,
        "gazeCondition": "away",
        "faceOnLeft": true,
        "impliedDirection": 0,
        "testDirection": 0,
        "avgFps": 60,
        "minFps": 56,
        "maxFps": 64,
        "totalFrames": 52,
        "frameRates": 60
      }
    ],
    "catch": {
      "total": 12,
      "correct": 12,
      "accuracy": 100,
      "meanRT": 666,
      "trials": [
        {
          "trial_number": 0,
          "trial_index": 73,
          "rt": 852,
          "correct": true,
          "colorTarget": "face",
          "gazeTowards": false,
          "gazeCondition": "away",
          "faceOnLeft": true
        },
        {
          "trial_number": 1,
          "trial_index": 106,
          "rt": 926,
          "correct": true,
          "colorTarget": "tree",
          "gazeTowards": true,
          "gazeCondition": "towards",
          "faceOnLeft": false
        },
        {
          "trial_number": 2,
          "trial_index": 114,
          "rt": 547,
          "correct": true,
          "colorTarget": "tree",
          "gazeTowards": false,
          "gazeCondition": "away",
          "faceOnLeft": true
        },
        {
          "trial_number": 3,
          "trial_index": 122,
          "rt": 452,
          "correct": true,
          "colorTarget": "face",
          "gazeTowards": false,
          "gazeCondition": "away",
          "faceOnLeft": true
        },
        {
          "trial_number": 4,
          "trial_index": 190,
          "rt": 674,
          "correct": true,
          "colorTarget": "face",
          "gazeTowards": true,
          "gazeCondition": "towards",
          "faceOnLeft": false
        },
        {
          "trial_number": 5,
          "trial_index": 314,
          "rt": 681,
          "correct": true,
          "colorTarget": "tree",
          "gazeTowards": true,
          "gazeCondition": "towards",
          "faceOnLeft": false
        },
        {
          "trial_number": 6,
          "trial_index": 337,
          "rt": 635,
          "correct": true,
          "colorTarget": "face",
          "gazeTowards": false,
          "gazeCondition": "away",
          "faceOnLeft": false
        },
        {
          "trial_number": 7,
          "trial_index": 345,
          "rt": 594,
          "correct": true,
          "colorTarget": "tree",
          "gazeTowards": true,
          "gazeCondition": "towards",
          "faceOnLeft": false
        },
        {
          "trial_number": 8,
          "trial_index": 358,
          "rt": 611,
          "correct": true,
          "colorTarget": "face",
          "gazeTowards": true,
          "gazeCondition": "towards",
          "faceOnLeft": false
        },
        {
          "trial_number": 9,
          "trial_index": 402,
          "rt": 594,
          "correct": true,
          "colorTarget": "face",
          "gazeTowards": false,
          "gazeCondition": "away",
          "faceOnLeft": true
        },
        {
          "trial_number": 10,
          "trial_index": 536,
          "rt": 808,
          "correct": true,
          "colorTarget": "tree",
          "gazeTowards": true,
          "gazeCondition": "towards",
          "faceOnLeft": false
        },
        {
          "trial_number": 11,
          "trial_index": 634,
          "rt": 620,
          "correct": true,
          "colorTarget": "tree",
          "gazeTowards": false,
          "gazeCondition": "away",
          "faceOnLeft": false
        }
      ]
    },
    "practice": {
      "trials": [
        {
          "trial_number": 0,
          "rt": null,
          "correct": false,
          "direction": 0
        },
        {
          "trial_number": 1,
          "rt": 928,
          "correct": true,
          "direction": 180
        },
        {
          "trial_number": 2,
          "rt": 944,
          "correct": true,
          "direction": 180
        },
        {
          "trial_number": 3,
          "rt": 933,
          "correct": true,
          "direction": 180
        },
        {
          "trial_number": 4,
          "rt": 796,
          "correct": true,
          "direction": 180
        },
        {
          "trial_number": 5,
          "rt": 795,
          "correct": true,
          "direction": 180
        },
        {
          "trial_number": 6,
          "rt": 916,
          "correct": true,
          "direction": 0
        },
        {
          "trial_number": 7,
          "rt": 1107,
          "correct": true,
          "direction": 180
        },
        {
          "trial_number": 8,
          "rt": 1333,
          "correct": true,
          "direction": 0
        },
        {
          "trial_number": 9,
          "rt": 990,
          "correct": true,
          "direction": 180
        }
      ],
      "meanRT": 971,
      "accuracy": 90
    }
  }
}