{
  "experiment": "rdk-face-1",
  "UUID": "93a0033b-45b4-4577-a2e8-e17b15131c95",
  "data": {
    "session": {
      "experiment_version": "1.8.6",
      "treatment": "faces_towards_away_catch",
      "file_version": "1.8.6",
      "totalTrials": 120,
      "totalTrialsIncludingCatch": 132,
      "conditions": {
        "gazeTowardsCount": 60,
        "gazeAwayCount": 60,
        "gazeTowardsAccuracy": 100,
        "gazeAwayAccuracy": 100
      },
      "session_group": "default",
      "browserData": {
        "os": "Windows",
        "browser": "Chrome",
        "screenResolution": "1920x1080",
        "browserViewport": "1920x1080",
        "devicePixelRatio": 1,
        "colorDepth": 32,
        "hardwareConcurrency": 16,
        "deviceMemory": 8,
        "gpuRenderer": "ANGLE (Microsoft, Microsoft Basic Render Driver (0x0000008C) Direct3D11 vs_5_0 ps_5_0, D3D11)",
        "measuredRefreshRateHz": 67
      },
      "attention": {
        "visibilityEvents": []
      },
      "calibration": {
        "monitorWidthCm": 38,
        "viewingDistanceCm": 54,
        "pixelsPerDegree": 50
      },
      "parameters": {
        "coherence": 0.4,
        "apertureDeg": 5,
        "densityDotsPerDeg2": 40,
        "dotDiameterDeg": 0.035,
        "dotSpeedDegPerSec": 3,
        "lifetimeMs": 200,
        "fixationDurationMs": 1500,
        "faceDurationMs": 1500,
        "testDurationMs": 2000,
        "catchResponseMs": 3000
      },
      "prolific": {
        "prolificPid": "67647a6f150f0ed3725ef4dc",
        "studyId": "",
        "sessionId": ""
      },
      "timing": {
        "startTime": "2026-03-06T02:50:33.964Z",
        "endTime": "2026-03-06T03:03:31.063Z",
        "totalElapsedTimeMs": 777099
      }
    },
    "trials": [
      {
        "trial_number": 0,
        "trial_index": 49,
        "rt": 1034,
        "correct": true,
        "response": "ArrowLeft",
        "congruent": true,
        "gazeTowards": false,
        "gazeCondition": "away",
        "faceOnLeft": false,
        "impliedDirection": 180,
        "testDirection": 180,
        "avgFps": 75,
        "minFps": 74,
        "maxFps": 148,
        "totalFrames": 78,
        "frameRates": 75
      },
      {
        "trial_number": 1,
        "trial_index": 54,
        "rt": 919,
        "correct": true,
        "response": "ArrowLeft",
        "congruent": true,
        "gazeTowards": true,
        "gazeCondition": "towards",
        "faceOnLeft": false,
        "impliedDirection": 180,
        "testDirection": 180,
        "avgFps": 75,
        "minFps": 74,
        "maxFps": 76,
        "totalFrames": 69,
        "frameRates": 75
      },
      {
        "trial_number": 2,
        "trial_index": 59,
        "rt": 829,
        "correct": true,
        "response": "ArrowLeft",
        "congruent": false,
        "gazeTowards": true,
        "gazeCondition": "towards",
        "faceOnLeft": true,
        "impliedDirection": 0,
        "testDirection": 180,
        "avgFps": 75,
        "minFps": 74,
        "maxFps": 76,
        "totalFrames": 62,
        "frameRates": 75
      },
      {
        "trial_number": 3,
        "trial_index": 64,
        "rt": 723,
        "correct": true,
        "response": "ArrowLeft",
        "congruent": true,
        "gazeTowards": false,
        "gazeCondition": "away",
        "faceOnLeft": false,
        "impliedDirection": 180,
        "testDirection": 180,
        "avgFps": 75,
        "minFps": 75,
        "maxFps": 76,
        "totalFrames": 54,
        "frameRates": 75
      },
      {
        "trial_number": 4,
        "trial_index": 69,
        "rt": 826,
        "correct": true,
        "response": "ArrowLeft",
        "congruent": true,
        "gazeTowards": true,
        "gazeCondition": "towards",
        "faceOnLeft": false,
        "impliedDirection": 180,
        "testDirection": 180,
        "avgFps": 75,
        "minFps": 75,
        "maxFps": 75,
        "totalFrames": 62,
        "frameRates": 75
      },
      {
        "trial_number": 5,
        "trial_index": 74,
        "rt": 612,
        "correct": true,
        "response": "ArrowRight",
        "congruent": true,
        "gazeTowards": false,
        "gazeCondition": "away",
        "faceOnLeft": true,
        "impliedDirection": 0,
        "testDirection": 0,
        "avgFps": 76,
        "minFps": 74,
        "maxFps": 295,
        "totalFrames": 46,
        "frameRates": 76
      },
      {
        "trial_number": 6,
        "trial_index": 79,
        "rt": 687,
        "correct": true,
        "response": "ArrowLeft",
        "congruent": true,
        "gazeTowards": true,
        "gazeCondition": "towards",
        "faceOnLeft": false,
        "impliedDirection": 180,
        "testDirection": 180,
        "avgFps": 75,
        "minFps": 75,
        "maxFps": 76,
        "totalFrames": 51,
        "frameRates": 75
      },
      {
        "trial_number": 7,
        "trial_index": 84,
        "rt": 927,
        "correct": true,
        "response": "ArrowRight",
        "congruent": true,
        "gazeTowards": true,
        "gazeCondition": "towards",
        "faceOnLeft": true,
        "impliedDirection": 0,
        "testDirection": 0,
        "avgFps": 75,
        "minFps": 75,
        "maxFps": 100,
        "totalFrames": 70,
        "frameRates": 75
      },
      {
        "trial_number": 8,
        "trial_index": 89,
        "rt": 785,
        "correct": true,
        "response": "ArrowRight",
        "congruent": false,
        "gazeTowards": false,
        "gazeCondition": "away",
        "faceOnLeft": false,
        "impliedDirection": 180,
        "testDirection": 0,
        "avgFps": 76,
        "minFps": 74,
        "maxFps": 304,
        "totalFrames": 59,
        "frameRates": 76
      },
      {
        "trial_number": 9,
        "trial_index": 94,
        "rt": 674,
        "correct": true,
        "response": "ArrowLeft",
        "congruent": false,
        "gazeTowards": false,
        "gazeCondition": "away",
        "faceOnLeft": true,
        "impliedDirection": 0,
        "testDirection": 180,
        "avgFps": 75,
        "minFps": 75,
        "maxFps": 100,
        "totalFrames": 51,
        "frameRates": 75
      },
      {
        "trial_number": 10,
        "trial_index": 99,
        "rt": 1161,
        "correct": true,
        "response": "ArrowLeft",
        "congruent": false,
        "gazeTowards": false,
        "gazeCondition": "away",
        "faceOnLeft": true,
        "impliedDirection": 0,
        "testDirection": 180,
        "avgFps": 75,
        "minFps": 74,
        "maxFps": 100,
        "totalFrames": 87,
        "frameRates": 75
      },
      {
        "trial_number": 11,
        "trial_index": 104,
        "rt": 646,
        "correct": true,
        "response": "ArrowRight",
        "congruent": true,
        "gazeTowards": true,
        "gazeCondition": "towards",
        "faceOnLeft": true,
        "impliedDirection": 0,
        "testDirection": 0,
        "avgFps": 75,
        "minFps": 74,
        "maxFps": 76,
        "totalFrames": 48,
        "frameRates": 75
      },
      {
        "trial_number": 12,
        "trial_index": 109,
        "rt": 612,
        "correct": true,
        "response": "ArrowRight",
        "congruent": true,
        "gazeTowards": true,
        "gazeCondition": "towards",
        "faceOnLeft": true,
        "impliedDirection": 0,
        "testDirection": 0,
        "avgFps": 76,
        "minFps": 75,
        "maxFps": 150,
        "totalFrames": 46,
        "frameRates": 76
      },
      {
        "trial_number": 13,
        "trial_index": 114,
        "rt": 760,
        "correct": true,
        "response": "ArrowRight",
        "congruent": false,
        "gazeTowards": false,
        "gazeCondition": "away",
        "faceOnLeft": false,
        "impliedDirection": 180,
        "testDirection": 0,
        "avgFps": 75,
        "minFps": 75,
        "maxFps": 76,
        "totalFrames": 57,
        "frameRates": 75
      },
      {
        "trial_number": 14,
        "trial_index": 119,
        "rt": 941,
        "correct": true,
        "response": "ArrowLeft",
        "congruent": true,
        "gazeTowards": false,
        "gazeCondition": "away",
        "faceOnLeft": false,
        "impliedDirection": 180,
        "testDirection": 180,
        "avgFps": 76,
        "minFps": 75,
        "maxFps": 150,
        "totalFrames": 71,
        "frameRates": 76
      },
      {
        "trial_number": 15,
        "trial_index": 124,
        "rt": 946,
        "correct": true,
        "response": "ArrowRight",
        "congruent": true,
        "gazeTowards": true,
        "gazeCondition": "towards",
        "faceOnLeft": true,
        "impliedDirection": 0,
        "testDirection": 0,
        "avgFps": 75,
        "minFps": 75,
        "maxFps": 76,
        "totalFrames": 71,
        "frameRates": 75
      },
      {
        "trial_number": 16,
        "trial_index": 129,
        "rt": 691,
        "correct": true,
        "response": "ArrowLeft",
        "congruent": true,
        "gazeTowards": false,
        "gazeCondition": "away",
        "faceOnLeft": false,
        "impliedDirection": 180,
        "testDirection": 180,
        "avgFps": 75,
        "minFps": 75,
        "maxFps": 76,
        "totalFrames": 52,
        "frameRates": 75
      },
      {
        "trial_number": 17,
        "trial_index": 134,
        "rt": 769,
        "correct": true,
        "response": "ArrowLeft",
        "congruent": false,
        "gazeTowards": true,
        "gazeCondition": "towards",
        "faceOnLeft": true,
        "impliedDirection": 0,
        "testDirection": 180,
        "avgFps": 76,
        "minFps": 74,
        "maxFps": 295,
        "totalFrames": 58,
        "frameRates": 76
      },
      {
        "trial_number": 18,
        "trial_index": 139,
        "rt": 879,
        "correct": true,
        "response": "ArrowLeft",
        "congruent": true,
        "gazeTowards": true,
        "gazeCondition": "towards",
        "faceOnLeft": false,
        "impliedDirection": 180,
        "testDirection": 180,
        "avgFps": 75,
        "minFps": 75,
        "maxFps": 76,
        "totalFrames": 66,
        "frameRates": 75
      },
      {
        "trial_number": 19,
        "trial_index": 144,
        "rt": 891,
        "correct": true,
        "response": "ArrowRight",
        "congruent": false,
        "gazeTowards": true,
        "gazeCondition": "towards",
        "faceOnLeft": false,
        "impliedDirection": 180,
        "testDirection": 0,
        "avgFps": 75,
        "minFps": 75,
        "maxFps": 76,
        "totalFrames": 67,
        "frameRates": 75
      },
      {
        "trial_number": 20,
        "trial_index": 152,
        "rt": 817,
        "correct": true,
        "response": "ArrowRight",
        "congruent": true,
        "gazeTowards": false,
        "gazeCondition": "away",
        "faceOnLeft": true,
        "impliedDirection": 0,
        "testDirection": 0,
        "avgFps": 73,
        "minFps": 25,
        "maxFps": 76,
        "totalFrames": 59,
        "frameRates": 73
      },
      {
        "trial_number": 21,
        "trial_index": 157,
        "rt": 661,
        "correct": true,
        "response": "ArrowLeft",
        "congruent": false,
        "gazeTowards": true,
        "gazeCondition": "towards",
        "faceOnLeft": true,
        "impliedDirection": 0,
        "testDirection": 180,
        "avgFps": 75,
        "minFps": 75,
        "maxFps": 75,
        "totalFrames": 50,
        "frameRates": 75
      },
      {
        "trial_number": 22,
        "trial_index": 165,
        "rt": 762,
        "correct": true,
        "response": "ArrowLeft",
        "congruent": false,
        "gazeTowards": true,
        "gazeCondition": "towards",
        "faceOnLeft": true,
        "impliedDirection": 0,
        "testDirection": 180,
        "avgFps": 75,
        "minFps": 75,
        "maxFps": 99,
        "totalFrames": 57,
        "frameRates": 75
      },
      {
        "trial_number": 23,
        "trial_index": 170,
        "rt": 675,
        "correct": true,
        "response": "ArrowRight",
        "congruent": true,
        "gazeTowards": true,
        "gazeCondition": "towards",
        "faceOnLeft": true,
        "impliedDirection": 0,
        "testDirection": 0,
        "avgFps": 75,
        "minFps": 74,
        "maxFps": 76,
        "totalFrames": 51,
        "frameRates": 75
      },
      {
        "trial_number": 24,
        "trial_index": 178,
        "rt": 701,
        "correct": true,
        "response": "ArrowRight",
        "congruent": false,
        "gazeTowards": false,
        "gazeCondition": "away",
        "faceOnLeft": false,
        "impliedDirection": 180,
        "testDirection": 0,
        "avgFps": 76,
        "minFps": 75,
        "maxFps": 295,
        "totalFrames": 53,
        "frameRates": 76
      },
      {
        "trial_number": 25,
        "trial_index": 183,
        "rt": 736,
        "correct": true,
        "response": "ArrowLeft",
        "congruent": false,
        "gazeTowards": true,
        "gazeCondition": "towards",
        "faceOnLeft": true,
        "impliedDirection": 0,
        "testDirection": 180,
        "avgFps": 76,
        "minFps": 75,
        "maxFps": 295,
        "totalFrames": 55,
        "frameRates": 76
      },
      {
        "trial_number": 26,
        "trial_index": 188,
        "rt": 577,
        "correct": true,
        "response": "ArrowLeft",
        "congruent": true,
        "gazeTowards": false,
        "gazeCondition": "away",
        "faceOnLeft": false,
        "impliedDirection": 180,
        "testDirection": 180,
        "avgFps": 75,
        "minFps": 75,
        "maxFps": 76,
        "totalFrames": 43,
        "frameRates": 75
      },
      {
        "trial_number": 27,
        "trial_index": 193,
        "rt": 673,
        "correct": true,
        "response": "ArrowRight",
        "congruent": false,
        "gazeTowards": false,
        "gazeCondition": "away",
        "faceOnLeft": false,
        "impliedDirection": 180,
        "testDirection": 0,
        "avgFps": 76,
        "minFps": 74,
        "maxFps": 295,
        "totalFrames": 51,
        "frameRates": 76
      },
      {
        "trial_number": 28,
        "trial_index": 198,
        "rt": 675,
        "correct": true,
        "response": "ArrowLeft",
        "congruent": false,
        "gazeTowards": true,
        "gazeCondition": "towards",
        "faceOnLeft": true,
        "impliedDirection": 0,
        "testDirection": 180,
        "avgFps": 75,
        "minFps": 75,
        "maxFps": 76,
        "totalFrames": 50,
        "frameRates": 75
      },
      {
        "trial_number": 29,
        "trial_index": 203,
        "rt": 676,
        "correct": true,
        "response": "ArrowLeft",
        "congruent": true,
        "gazeTowards": true,
        "gazeCondition": "towards",
        "faceOnLeft": false,
        "impliedDirection": 180,
        "testDirection": 180,
        "avgFps": 75,
        "minFps": 75,
        "maxFps": 76,
        "totalFrames": 50,
        "frameRates": 75
      },
      {
        "trial_number": 30,
        "trial_index": 209,
        "rt": 663,
        "correct": true,
        "response": "ArrowLeft",
        "congruent": true,
        "gazeTowards": false,
        "gazeCondition": "away",
        "faceOnLeft": false,
        "impliedDirection": 180,
        "testDirection": 180,
        "avgFps": 75,
        "minFps": 75,
        "maxFps": 76,
        "totalFrames": 50,
        "frameRates": 75
      },
      {
        "trial_number": 31,
        "trial_index": 214,
        "rt": 594,
        "correct": true,
        "response": "ArrowRight",
        "congruent": false,
        "gazeTowards": true,
        "gazeCondition": "towards",
        "faceOnLeft": false,
        "impliedDirection": 180,
        "testDirection": 0,
        "avgFps": 75,
        "minFps": 75,
        "maxFps": 98,
        "totalFrames": 44,
        "frameRates": 75
      },
      {
        "trial_number": 32,
        "trial_index": 219,
        "rt": 859,
        "correct": true,
        "response": "ArrowRight",
        "congruent": true,
        "gazeTowards": true,
        "gazeCondition": "towards",
        "faceOnLeft": true,
        "impliedDirection": 0,
        "testDirection": 0,
        "avgFps": 75,
        "minFps": 75,
        "maxFps": 76,
        "totalFrames": 64,
        "frameRates": 75
      },
      {
        "trial_number": 33,
        "trial_index": 224,
        "rt": 1038,
        "correct": true,
        "response": "ArrowLeft",
        "congruent": false,
        "gazeTowards": false,
        "gazeCondition": "away",
        "faceOnLeft": true,
        "impliedDirection": 0,
        "testDirection": 180,
        "avgFps": 75,
        "minFps": 74,
        "maxFps": 76,
        "totalFrames": 77,
        "frameRates": 75
      },
      {
        "trial_number": 34,
        "trial_index": 229,
        "rt": 990,
        "correct": true,
        "response": "ArrowLeft",
        "congruent": false,
        "gazeTowards": false,
        "gazeCondition": "away",
        "faceOnLeft": true,
        "impliedDirection": 0,
        "testDirection": 180,
        "avgFps": 75,
        "minFps": 75,
        "maxFps": 76,
        "totalFrames": 74,
        "frameRates": 75
      },
      {
        "trial_number": 35,
        "trial_index": 234,
        "rt": 1473,
        "correct": true,
        "response": "ArrowLeft",
        "congruent": false,
        "gazeTowards": false,
        "gazeCondition": "away",
        "faceOnLeft": true,
        "impliedDirection": 0,
        "testDirection": 180,
        "avgFps": 76,
        "minFps": 74,
        "maxFps": 295,
        "totalFrames": 111,
        "frameRates": 76
      },
      {
        "trial_number": 36,
        "trial_index": 239,
        "rt": 1202,
        "correct": true,
        "response": "ArrowLeft",
        "congruent": true,
        "gazeTowards": true,
        "gazeCondition": "towards",
        "faceOnLeft": false,
        "impliedDirection": 180,
        "testDirection": 180,
        "avgFps": 75,
        "minFps": 74,
        "maxFps": 76,
        "totalFrames": 90,
        "frameRates": 75
      },
      {
        "trial_number": 37,
        "trial_index": 244,
        "rt": 910,
        "correct": true,
        "response": "ArrowLeft",
        "congruent": true,
        "gazeTowards": true,
        "gazeCondition": "towards",
        "faceOnLeft": false,
        "impliedDirection": 180,
        "testDirection": 180,
        "avgFps": 75,
        "minFps": 75,
        "maxFps": 76,
        "totalFrames": 68,
        "frameRates": 75
      },
      {
        "trial_number": 38,
        "trial_index": 249,
        "rt": 1449,
        "correct": true,
        "response": "ArrowLeft",
        "congruent": false,
        "gazeTowards": false,
        "gazeCondition": "away",
        "faceOnLeft": true,
        "impliedDirection": 0,
        "testDirection": 180,
        "avgFps": 75,
        "minFps": 75,
        "maxFps": 76,
        "totalFrames": 108,
        "frameRates": 75
      },
      {
        "trial_number": 39,
        "trial_index": 254,
        "rt": 1426,
        "correct": true,
        "response": "ArrowLeft",
        "congruent": true,
        "gazeTowards": false,
        "gazeCondition": "away",
        "faceOnLeft": false,
        "impliedDirection": 180,
        "testDirection": 180,
        "avgFps": 75,
        "minFps": 75,
        "maxFps": 76,
        "totalFrames": 107,
        "frameRates": 75
      },
      {
        "trial_number": 40,
        "trial_index": 259,
        "rt": 918,
        "correct": true,
        "response": "ArrowRight",
        "congruent": false,
        "gazeTowards": true,
        "gazeCondition": "towards",
        "faceOnLeft": false,
        "impliedDirection": 180,
        "testDirection": 0,
        "avgFps": 75,
        "minFps": 75,
        "maxFps": 76,
        "totalFrames": 69,
        "frameRates": 75
      },
      {
        "trial_number": 41,
        "trial_index": 264,
        "rt": 938,
        "correct": true,
        "response": "ArrowLeft",
        "congruent": false,
        "gazeTowards": true,
        "gazeCondition": "towards",
        "faceOnLeft": true,
        "impliedDirection": 0,
        "testDirection": 180,
        "avgFps": 76,
        "minFps": 75,
        "maxFps": 150,
        "totalFrames": 71,
        "frameRates": 76
      },
      {
        "trial_number": 42,
        "trial_index": 269,
        "rt": 1085,
        "correct": true,
        "response": "ArrowRight",
        "congruent": true,
        "gazeTowards": false,
        "gazeCondition": "away",
        "faceOnLeft": true,
        "impliedDirection": 0,
        "testDirection": 0,
        "avgFps": 75,
        "minFps": 75,
        "maxFps": 76,
        "totalFrames": 82,
        "frameRates": 75
      },
      {
        "trial_number": 43,
        "trial_index": 274,
        "rt": 933,
        "correct": true,
        "response": "ArrowLeft",
        "congruent": false,
        "gazeTowards": true,
        "gazeCondition": "towards",
        "faceOnLeft": true,
        "impliedDirection": 0,
        "testDirection": 180,
        "avgFps": 76,
        "minFps": 75,
        "maxFps": 150,
        "totalFrames": 70,
        "frameRates": 76
      },
      {
        "trial_number": 44,
        "trial_index": 279,
        "rt": 1083,
        "correct": true,
        "response": "ArrowLeft",
        "congruent": true,
        "gazeTowards": true,
        "gazeCondition": "towards",
        "faceOnLeft": false,
        "impliedDirection": 180,
        "testDirection": 180,
        "avgFps": 75,
        "minFps": 75,
        "maxFps": 76,
        "totalFrames": 81,
        "frameRates": 75
      },
      {
        "trial_number": 45,
        "trial_index": 284,
        "rt": 737,
        "correct": true,
        "response": "ArrowRight",
        "congruent": true,
        "gazeTowards": false,
        "gazeCondition": "away",
        "faceOnLeft": true,
        "impliedDirection": 0,
        "testDirection": 0,
        "avgFps": 76,
        "minFps": 75,
        "maxFps": 304,
        "totalFrames": 56,
        "frameRates": 76
      },
      {
        "trial_number": 46,
        "trial_index": 289,
        "rt": 651,
        "correct": true,
        "response": "ArrowLeft",
        "congruent": false,
        "gazeTowards": true,
        "gazeCondition": "towards",
        "faceOnLeft": true,
        "impliedDirection": 0,
        "testDirection": 180,
        "avgFps": 75,
        "minFps": 75,
        "maxFps": 76,
        "totalFrames": 49,
        "frameRates": 75
      },
      {
        "trial_number": 47,
        "trial_index": 294,
        "rt": 850,
        "correct": true,
        "response": "ArrowRight",
        "congruent": true,
        "gazeTowards": true,
        "gazeCondition": "towards",
        "faceOnLeft": true,
        "impliedDirection": 0,
        "testDirection": 0,
        "avgFps": 75,
        "minFps": 75,
        "maxFps": 76,
        "totalFrames": 64,
        "frameRates": 75
      },
      {
        "trial_number": 48,
        "trial_index": 299,
        "rt": 1127,
        "correct": true,
        "response": "ArrowLeft",
        "congruent": true,
        "gazeTowards": true,
        "gazeCondition": "towards",
        "faceOnLeft": false,
        "impliedDirection": 180,
        "testDirection": 180,
        "avgFps": 75,
        "minFps": 74,
        "maxFps": 76,
        "totalFrames": 84,
        "frameRates": 75
      },
      {
        "trial_number": 49,
        "trial_index": 304,
        "rt": 1107,
        "correct": true,
        "response": "ArrowLeft",
        "congruent": true,
        "gazeTowards": true,
        "gazeCondition": "towards",
        "faceOnLeft": false,
        "impliedDirection": 180,
        "testDirection": 180,
        "avgFps": 75,
        "minFps": 74,
        "maxFps": 150,
        "totalFrames": 83,
        "frameRates": 75
      },
      {
        "trial_number": 50,
        "trial_index": 312,
        "rt": 830,
        "correct": true,
        "response": "ArrowRight",
        "congruent": false,
        "gazeTowards": true,
        "gazeCondition": "towards",
        "faceOnLeft": false,
        "impliedDirection": 180,
        "testDirection": 0,
        "avgFps": 76,
        "minFps": 74,
        "maxFps": 295,
        "totalFrames": 63,
        "frameRates": 76
      },
      {
        "trial_number": 51,
        "trial_index": 317,
        "rt": 777,
        "correct": true,
        "response": "ArrowRight",
        "congruent": true,
        "gazeTowards": false,
        "gazeCondition": "away",
        "faceOnLeft": true,
        "impliedDirection": 0,
        "testDirection": 0,
        "avgFps": 75,
        "minFps": 74,
        "maxFps": 76,
        "totalFrames": 58,
        "frameRates": 75
      },
      {
        "trial_number": 52,
        "trial_index": 322,
        "rt": 767,
        "correct": true,
        "response": "ArrowRight",
        "congruent": false,
        "gazeTowards": true,
        "gazeCondition": "towards",
        "faceOnLeft": false,
        "impliedDirection": 180,
        "testDirection": 0,
        "avgFps": 75,
        "minFps": 74,
        "maxFps": 76,
        "totalFrames": 57,
        "frameRates": 75
      },
      {
        "trial_number": 53,
        "trial_index": 330,
        "rt": 663,
        "correct": true,
        "response": "ArrowRight",
        "congruent": true,
        "gazeTowards": false,
        "gazeCondition": "away",
        "faceOnLeft": true,
        "impliedDirection": 0,
        "testDirection": 0,
        "avgFps": 75,
        "minFps": 75,
        "maxFps": 76,
        "totalFrames": 49,
        "frameRates": 75
      },
      {
        "trial_number": 54,
        "trial_index": 338,
        "rt": 760,
        "correct": true,
        "response": "ArrowRight",
        "congruent": false,
        "gazeTowards": false,
        "gazeCondition": "away",
        "faceOnLeft": false,
        "impliedDirection": 180,
        "testDirection": 0,
        "avgFps": 75,
        "minFps": 75,
        "maxFps": 76,
        "totalFrames": 57,
        "frameRates": 75
      },
      {
        "trial_number": 55,
        "trial_index": 343,
        "rt": 846,
        "correct": true,
        "response": "ArrowRight",
        "congruent": true,
        "gazeTowards": false,
        "gazeCondition": "away",
        "faceOnLeft": true,
        "impliedDirection": 0,
        "testDirection": 0,
        "avgFps": 76,
        "minFps": 75,
        "maxFps": 295,
        "totalFrames": 64,
        "frameRates": 76
      },
      {
        "trial_number": 56,
        "trial_index": 348,
        "rt": 1022,
        "correct": true,
        "response": "ArrowLeft",
        "congruent": true,
        "gazeTowards": true,
        "gazeCondition": "towards",
        "faceOnLeft": false,
        "impliedDirection": 180,
        "testDirection": 180,
        "avgFps": 75,
        "minFps": 74,
        "maxFps": 99,
        "totalFrames": 76,
        "frameRates": 75
      },
      {
        "trial_number": 57,
        "trial_index": 359,
        "rt": 967,
        "correct": true,
        "response": "ArrowLeft",
        "congruent": false,
        "gazeTowards": false,
        "gazeCondition": "away",
        "faceOnLeft": true,
        "impliedDirection": 0,
        "testDirection": 180,
        "avgFps": 76,
        "minFps": 74,
        "maxFps": 148,
        "totalFrames": 73,
        "frameRates": 76
      },
      {
        "trial_number": 58,
        "trial_index": 365,
        "rt": 1210,
        "correct": true,
        "response": "ArrowLeft",
        "congruent": false,
        "gazeTowards": false,
        "gazeCondition": "away",
        "faceOnLeft": true,
        "impliedDirection": 0,
        "testDirection": 180,
        "avgFps": 75,
        "minFps": 74,
        "maxFps": 76,
        "totalFrames": 91,
        "frameRates": 75
      },
      {
        "trial_number": 59,
        "trial_index": 370,
        "rt": 687,
        "correct": true,
        "response": "ArrowRight",
        "congruent": true,
        "gazeTowards": true,
        "gazeCondition": "towards",
        "faceOnLeft": true,
        "impliedDirection": 0,
        "testDirection": 0,
        "avgFps": 75,
        "minFps": 75,
        "maxFps": 76,
        "totalFrames": 51,
        "frameRates": 75
      },
      {
        "trial_number": 60,
        "trial_index": 375,
        "rt": 815,
        "correct": true,
        "response": "ArrowRight",
        "congruent": false,
        "gazeTowards": true,
        "gazeCondition": "towards",
        "faceOnLeft": false,
        "impliedDirection": 180,
        "testDirection": 0,
        "avgFps": 75,
        "minFps": 75,
        "maxFps": 76,
        "totalFrames": 61,
        "frameRates": 75
      },
      {
        "trial_number": 61,
        "trial_index": 380,
        "rt": 808,
        "correct": true,
        "response": "ArrowLeft",
        "congruent": true,
        "gazeTowards": false,
        "gazeCondition": "away",
        "faceOnLeft": false,
        "impliedDirection": 180,
        "testDirection": 180,
        "avgFps": 75,
        "minFps": 75,
        "maxFps": 76,
        "totalFrames": 60,
        "frameRates": 75
      },
      {
        "trial_number": 62,
        "trial_index": 385,
        "rt": 788,
        "correct": true,
        "response": "ArrowRight",
        "congruent": true,
        "gazeTowards": false,
        "gazeCondition": "away",
        "faceOnLeft": true,
        "impliedDirection": 0,
        "testDirection": 0,
        "avgFps": 75,
        "minFps": 75,
        "maxFps": 76,
        "totalFrames": 59,
        "frameRates": 75
      },
      {
        "trial_number": 63,
        "trial_index": 390,
        "rt": 694,
        "correct": true,
        "response": "ArrowRight",
        "congruent": true,
        "gazeTowards": true,
        "gazeCondition": "towards",
        "faceOnLeft": true,
        "impliedDirection": 0,
        "testDirection": 0,
        "avgFps": 76,
        "minFps": 75,
        "maxFps": 150,
        "totalFrames": 52,
        "frameRates": 76
      },
      {
        "trial_number": 64,
        "trial_index": 395,
        "rt": 760,
        "correct": true,
        "response": "ArrowLeft",
        "congruent": false,
        "gazeTowards": false,
        "gazeCondition": "away",
        "faceOnLeft": true,
        "impliedDirection": 0,
        "testDirection": 180,
        "avgFps": 75,
        "minFps": 75,
        "maxFps": 99,
        "totalFrames": 57,
        "frameRates": 75
      },
      {
        "trial_number": 65,
        "trial_index": 400,
        "rt": 957,
        "correct": true,
        "response": "ArrowRight",
        "congruent": false,
        "gazeTowards": false,
        "gazeCondition": "away",
        "faceOnLeft": false,
        "impliedDirection": 180,
        "testDirection": 0,
        "avgFps": 75,
        "minFps": 75,
        "maxFps": 76,
        "totalFrames": 72,
        "frameRates": 75
      },
      {
        "trial_number": 66,
        "trial_index": 405,
        "rt": 888,
        "correct": true,
        "response": "ArrowRight",
        "congruent": true,
        "gazeTowards": false,
        "gazeCondition": "away",
        "faceOnLeft": true,
        "impliedDirection": 0,
        "testDirection": 0,
        "avgFps": 75,
        "minFps": 75,
        "maxFps": 76,
        "totalFrames": 67,
        "frameRates": 75
      },
      {
        "trial_number": 67,
        "trial_index": 410,
        "rt": 907,
        "correct": true,
        "response": "ArrowRight",
        "congruent": true,
        "gazeTowards": true,
        "gazeCondition": "towards",
        "faceOnLeft": true,
        "impliedDirection": 0,
        "testDirection": 0,
        "avgFps": 75,
        "minFps": 74,
        "maxFps": 76,
        "totalFrames": 68,
        "frameRates": 75
      },
      {
        "trial_number": 68,
        "trial_index": 415,
        "rt": 981,
        "correct": true,
        "response": "ArrowRight",
        "congruent": true,
        "gazeTowards": false,
        "gazeCondition": "away",
        "faceOnLeft": true,
        "impliedDirection": 0,
        "testDirection": 0,
        "avgFps": 75,
        "minFps": 75,
        "maxFps": 76,
        "totalFrames": 73,
        "frameRates": 75
      },
      {
        "trial_number": 69,
        "trial_index": 420,
        "rt": 989,
        "correct": true,
        "response": "ArrowRight",
        "congruent": false,
        "gazeTowards": true,
        "gazeCondition": "towards",
        "faceOnLeft": false,
        "impliedDirection": 180,
        "testDirection": 0,
        "avgFps": 75,
        "minFps": 74,
        "maxFps": 99,
        "totalFrames": 74,
        "frameRates": 75
      },
      {
        "trial_number": 70,
        "trial_index": 425,
        "rt": 1250,
        "correct": true,
        "response": "ArrowRight",
        "congruent": true,
        "gazeTowards": false,
        "gazeCondition": "away",
        "faceOnLeft": true,
        "impliedDirection": 0,
        "testDirection": 0,
        "avgFps": 76,
        "minFps": 75,
        "maxFps": 295,
        "totalFrames": 94,
        "frameRates": 76
      },
      {
        "trial_number": 71,
        "trial_index": 430,
        "rt": 734,
        "correct": true,
        "response": "ArrowRight",
        "congruent": false,
        "gazeTowards": false,
        "gazeCondition": "away",
        "faceOnLeft": false,
        "impliedDirection": 180,
        "testDirection": 0,
        "avgFps": 75,
        "minFps": 75,
        "maxFps": 76,
        "totalFrames": 55,
        "frameRates": 75
      },
      {
        "trial_number": 72,
        "trial_index": 435,
        "rt": 816,
        "correct": true,
        "response": "ArrowLeft",
        "congruent": true,
        "gazeTowards": true,
        "gazeCondition": "towards",
        "faceOnLeft": false,
        "impliedDirection": 180,
        "testDirection": 180,
        "avgFps": 76,
        "minFps": 75,
        "maxFps": 148,
        "totalFrames": 62,
        "frameRates": 76
      },
      {
        "trial_number": 73,
        "trial_index": 440,
        "rt": 943,
        "correct": true,
        "response": "ArrowLeft",
        "congruent": true,
        "gazeTowards": false,
        "gazeCondition": "away",
        "faceOnLeft": false,
        "impliedDirection": 180,
        "testDirection": 180,
        "avgFps": 75,
        "minFps": 75,
        "maxFps": 75,
        "totalFrames": 71,
        "frameRates": 75
      },
      {
        "trial_number": 74,
        "trial_index": 445,
        "rt": 797,
        "correct": true,
        "response": "ArrowLeft",
        "congruent": false,
        "gazeTowards": false,
        "gazeCondition": "away",
        "faceOnLeft": true,
        "impliedDirection": 0,
        "testDirection": 180,
        "avgFps": 75,
        "minFps": 75,
        "maxFps": 76,
        "totalFrames": 59,
        "frameRates": 75
      },
      {
        "trial_number": 75,
        "trial_index": 450,
        "rt": 790,
        "correct": true,
        "response": "ArrowRight",
        "congruent": true,
        "gazeTowards": true,
        "gazeCondition": "towards",
        "faceOnLeft": true,
        "impliedDirection": 0,
        "testDirection": 0,
        "avgFps": 76,
        "minFps": 75,
        "maxFps": 305,
        "totalFrames": 60,
        "frameRates": 76
      },
      {
        "trial_number": 76,
        "trial_index": 455,
        "rt": 763,
        "correct": true,
        "response": "ArrowLeft",
        "congruent": true,
        "gazeTowards": false,
        "gazeCondition": "away",
        "faceOnLeft": false,
        "impliedDirection": 180,
        "testDirection": 180,
        "avgFps": 76,
        "minFps": 74,
        "maxFps": 295,
        "totalFrames": 58,
        "frameRates": 76
      },
      {
        "trial_number": 77,
        "trial_index": 460,
        "rt": 862,
        "correct": true,
        "response": "ArrowRight",
        "congruent": false,
        "gazeTowards": false,
        "gazeCondition": "away",
        "faceOnLeft": false,
        "impliedDirection": 180,
        "testDirection": 0,
        "avgFps": 75,
        "minFps": 75,
        "maxFps": 76,
        "totalFrames": 64,
        "frameRates": 75
      },
      {
        "trial_number": 78,
        "trial_index": 465,
        "rt": 731,
        "correct": true,
        "response": "ArrowLeft",
        "congruent": true,
        "gazeTowards": true,
        "gazeCondition": "towards",
        "faceOnLeft": false,
        "impliedDirection": 180,
        "testDirection": 180,
        "avgFps": 75,
        "minFps": 75,
        "maxFps": 76,
        "totalFrames": 54,
        "frameRates": 75
      },
      {
        "trial_number": 79,
        "trial_index": 470,
        "rt": 724,
        "correct": true,
        "response": "ArrowRight",
        "congruent": false,
        "gazeTowards": false,
        "gazeCondition": "away",
        "faceOnLeft": false,
        "impliedDirection": 180,
        "testDirection": 0,
        "avgFps": 75,
        "minFps": 75,
        "maxFps": 76,
        "totalFrames": 54,
        "frameRates": 75
      },
      {
        "trial_number": 80,
        "trial_index": 475,
        "rt": 768,
        "correct": true,
        "response": "ArrowLeft",
        "congruent": false,
        "gazeTowards": true,
        "gazeCondition": "towards",
        "faceOnLeft": true,
        "impliedDirection": 0,
        "testDirection": 180,
        "avgFps": 75,
        "minFps": 75,
        "maxFps": 76,
        "totalFrames": 58,
        "frameRates": 75
      },
      {
        "trial_number": 81,
        "trial_index": 480,
        "rt": 989,
        "correct": true,
        "response": "ArrowRight",
        "congruent": false,
        "gazeTowards": false,
        "gazeCondition": "away",
        "faceOnLeft": false,
        "impliedDirection": 180,
        "testDirection": 0,
        "avgFps": 75,
        "minFps": 74,
        "maxFps": 99,
        "totalFrames": 74,
        "frameRates": 75
      },
      {
        "trial_number": 82,
        "trial_index": 485,
        "rt": 923,
        "correct": true,
        "response": "ArrowLeft",
        "congruent": false,
        "gazeTowards": false,
        "gazeCondition": "away",
        "faceOnLeft": true,
        "impliedDirection": 0,
        "testDirection": 180,
        "avgFps": 76,
        "minFps": 75,
        "maxFps": 304,
        "totalFrames": 69,
        "frameRates": 76
      },
      {
        "trial_number": 83,
        "trial_index": 490,
        "rt": 814,
        "correct": true,
        "response": "ArrowLeft",
        "congruent": true,
        "gazeTowards": true,
        "gazeCondition": "towards",
        "faceOnLeft": false,
        "impliedDirection": 180,
        "testDirection": 180,
        "avgFps": 75,
        "minFps": 74,
        "maxFps": 76,
        "totalFrames": 61,
        "frameRates": 75
      },
      {
        "trial_number": 84,
        "trial_index": 495,
        "rt": 1064,
        "correct": true,
        "response": "ArrowLeft",
        "congruent": false,
        "gazeTowards": false,
        "gazeCondition": "away",
        "faceOnLeft": true,
        "impliedDirection": 0,
        "testDirection": 180,
        "avgFps": 75,
        "minFps": 75,
        "maxFps": 76,
        "totalFrames": 79,
        "frameRates": 75
      },
      {
        "trial_number": 85,
        "trial_index": 500,
        "rt": 971,
        "correct": true,
        "response": "ArrowRight",
        "congruent": false,
        "gazeTowards": true,
        "gazeCondition": "towards",
        "faceOnLeft": false,
        "impliedDirection": 180,
        "testDirection": 0,
        "avgFps": 75,
        "minFps": 75,
        "maxFps": 75,
        "totalFrames": 72,
        "frameRates": 75
      },
      {
        "trial_number": 86,
        "trial_index": 505,
        "rt": 1076,
        "correct": true,
        "response": "ArrowRight",
        "congruent": false,
        "gazeTowards": false,
        "gazeCondition": "away",
        "faceOnLeft": false,
        "impliedDirection": 180,
        "testDirection": 0,
        "avgFps": 75,
        "minFps": 75,
        "maxFps": 76,
        "totalFrames": 81,
        "frameRates": 75
      },
      {
        "trial_number": 87,
        "trial_index": 513,
        "rt": 789,
        "correct": true,
        "response": "ArrowLeft",
        "congruent": false,
        "gazeTowards": false,
        "gazeCondition": "away",
        "faceOnLeft": true,
        "impliedDirection": 0,
        "testDirection": 180,
        "avgFps": 75,
        "minFps": 74,
        "maxFps": 76,
        "totalFrames": 59,
        "frameRates": 75
      },
      {
        "trial_number": 88,
        "trial_index": 518,
        "rt": 775,
        "correct": true,
        "response": "ArrowRight",
        "congruent": true,
        "gazeTowards": false,
        "gazeCondition": "away",
        "faceOnLeft": true,
        "impliedDirection": 0,
        "testDirection": 0,
        "avgFps": 75,
        "minFps": 75,
        "maxFps": 76,
        "totalFrames": 58,
        "frameRates": 75
      },
      {
        "trial_number": 89,
        "trial_index": 527,
        "rt": 813,
        "correct": true,
        "response": "ArrowRight",
        "congruent": false,
        "gazeTowards": true,
        "gazeCondition": "towards",
        "faceOnLeft": false,
        "impliedDirection": 180,
        "testDirection": 0,
        "avgFps": 75,
        "minFps": 74,
        "maxFps": 76,
        "totalFrames": 61,
        "frameRates": 75
      },
      {
        "trial_number": 90,
        "trial_index": 532,
        "rt": 800,
        "correct": true,
        "response": "ArrowRight",
        "congruent": false,
        "gazeTowards": true,
        "gazeCondition": "towards",
        "faceOnLeft": false,
        "impliedDirection": 180,
        "testDirection": 0,
        "avgFps": 75,
        "minFps": 75,
        "maxFps": 76,
        "totalFrames": 60,
        "frameRates": 75
      },
      {
        "trial_number": 91,
        "trial_index": 537,
        "rt": 810,
        "correct": true,
        "response": "ArrowRight",
        "congruent": false,
        "gazeTowards": false,
        "gazeCondition": "away",
        "faceOnLeft": false,
        "impliedDirection": 180,
        "testDirection": 0,
        "avgFps": 75,
        "minFps": 75,
        "maxFps": 76,
        "totalFrames": 60,
        "frameRates": 75
      },
      {
        "trial_number": 92,
        "trial_index": 542,
        "rt": 798,
        "correct": true,
        "response": "ArrowRight",
        "congruent": false,
        "gazeTowards": true,
        "gazeCondition": "towards",
        "faceOnLeft": false,
        "impliedDirection": 180,
        "testDirection": 0,
        "avgFps": 75,
        "minFps": 75,
        "maxFps": 75,
        "totalFrames": 60,
        "frameRates": 75
      },
      {
        "trial_number": 93,
        "trial_index": 547,
        "rt": 897,
        "correct": true,
        "response": "ArrowRight",
        "congruent": true,
        "gazeTowards": false,
        "gazeCondition": "away",
        "faceOnLeft": true,
        "impliedDirection": 0,
        "testDirection": 0,
        "avgFps": 75,
        "minFps": 75,
        "maxFps": 76,
        "totalFrames": 67,
        "frameRates": 75
      },
      {
        "trial_number": 94,
        "trial_index": 552,
        "rt": 1037,
        "correct": true,
        "response": "ArrowRight",
        "congruent": false,
        "gazeTowards": false,
        "gazeCondition": "away",
        "faceOnLeft": false,
        "impliedDirection": 180,
        "testDirection": 0,
        "avgFps": 76,
        "minFps": 75,
        "maxFps": 304,
        "totalFrames": 78,
        "frameRates": 76
      },
      {
        "trial_number": 95,
        "trial_index": 557,
        "rt": 914,
        "correct": true,
        "response": "ArrowRight",
        "congruent": true,
        "gazeTowards": true,
        "gazeCondition": "towards",
        "faceOnLeft": true,
        "impliedDirection": 0,
        "testDirection": 0,
        "avgFps": 75,
        "minFps": 75,
        "maxFps": 76,
        "totalFrames": 69,
        "frameRates": 75
      },
      {
        "trial_number": 96,
        "trial_index": 565,
        "rt": 659,
        "correct": true,
        "response": "ArrowLeft",
        "congruent": true,
        "gazeTowards": true,
        "gazeCondition": "towards",
        "faceOnLeft": false,
        "impliedDirection": 180,
        "testDirection": 180,
        "avgFps": 75,
        "minFps": 75,
        "maxFps": 76,
        "totalFrames": 49,
        "frameRates": 75
      },
      {
        "trial_number": 97,
        "trial_index": 570,
        "rt": 881,
        "correct": true,
        "response": "ArrowLeft",
        "congruent": true,
        "gazeTowards": false,
        "gazeCondition": "away",
        "faceOnLeft": false,
        "impliedDirection": 180,
        "testDirection": 180,
        "avgFps": 75,
        "minFps": 75,
        "maxFps": 76,
        "totalFrames": 66,
        "frameRates": 75
      },
      {
        "trial_number": 98,
        "trial_index": 575,
        "rt": 599,
        "correct": true,
        "response": "ArrowRight",
        "congruent": true,
        "gazeTowards": false,
        "gazeCondition": "away",
        "faceOnLeft": true,
        "impliedDirection": 0,
        "testDirection": 0,
        "avgFps": 75,
        "minFps": 75,
        "maxFps": 76,
        "totalFrames": 45,
        "frameRates": 75
      },
      {
        "trial_number": 99,
        "trial_index": 580,
        "rt": 956,
        "correct": true,
        "response": "ArrowRight",
        "congruent": true,
        "gazeTowards": false,
        "gazeCondition": "away",
        "faceOnLeft": true,
        "impliedDirection": 0,
        "testDirection": 0,
        "avgFps": 75,
        "minFps": 74,
        "maxFps": 76,
        "totalFrames": 72,
        "frameRates": 75
      },
      {
        "trial_number": 100,
        "trial_index": 585,
        "rt": 647,
        "correct": true,
        "response": "ArrowRight",
        "congruent": true,
        "gazeTowards": false,
        "gazeCondition": "away",
        "faceOnLeft": true,
        "impliedDirection": 0,
        "testDirection": 0,
        "avgFps": 75,
        "minFps": 75,
        "maxFps": 99,
        "totalFrames": 49,
        "frameRates": 75
      },
      {
        "trial_number": 101,
        "trial_index": 590,
        "rt": 1099,
        "correct": true,
        "response": "ArrowLeft",
        "congruent": false,
        "gazeTowards": true,
        "gazeCondition": "towards",
        "faceOnLeft": true,
        "impliedDirection": 0,
        "testDirection": 180,
        "avgFps": 75,
        "minFps": 75,
        "maxFps": 76,
        "totalFrames": 82,
        "frameRates": 75
      },
      {
        "trial_number": 102,
        "trial_index": 595,
        "rt": 1005,
        "correct": true,
        "response": "ArrowLeft",
        "congruent": true,
        "gazeTowards": true,
        "gazeCondition": "towards",
        "faceOnLeft": false,
        "impliedDirection": 180,
        "testDirection": 180,
        "avgFps": 75,
        "minFps": 74,
        "maxFps": 76,
        "totalFrames": 75,
        "frameRates": 75
      },
      {
        "trial_number": 103,
        "trial_index": 600,
        "rt": 748,
        "correct": true,
        "response": "ArrowRight",
        "congruent": false,
        "gazeTowards": true,
        "gazeCondition": "towards",
        "faceOnLeft": false,
        "impliedDirection": 180,
        "testDirection": 0,
        "avgFps": 75,
        "minFps": 75,
        "maxFps": 76,
        "totalFrames": 56,
        "frameRates": 75
      },
      {
        "trial_number": 104,
        "trial_index": 605,
        "rt": 875,
        "correct": true,
        "response": "ArrowLeft",
        "congruent": false,
        "gazeTowards": false,
        "gazeCondition": "away",
        "faceOnLeft": true,
        "impliedDirection": 0,
        "testDirection": 180,
        "avgFps": 75,
        "minFps": 75,
        "maxFps": 76,
        "totalFrames": 65,
        "frameRates": 75
      },
      {
        "trial_number": 105,
        "trial_index": 610,
        "rt": 1009,
        "correct": true,
        "response": "ArrowLeft",
        "congruent": true,
        "gazeTowards": false,
        "gazeCondition": "away",
        "faceOnLeft": false,
        "impliedDirection": 180,
        "testDirection": 180,
        "avgFps": 75,
        "minFps": 75,
        "maxFps": 75,
        "totalFrames": 76,
        "frameRates": 75
      },
      {
        "trial_number": 106,
        "trial_index": 615,
        "rt": 589,
        "correct": true,
        "response": "ArrowRight",
        "congruent": true,
        "gazeTowards": true,
        "gazeCondition": "towards",
        "faceOnLeft": true,
        "impliedDirection": 0,
        "testDirection": 0,
        "avgFps": 76,
        "minFps": 75,
        "maxFps": 304,
        "totalFrames": 44,
        "frameRates": 76
      },
      {
        "trial_number": 107,
        "trial_index": 620,
        "rt": 816,
        "correct": true,
        "response": "ArrowLeft",
        "congruent": false,
        "gazeTowards": true,
        "gazeCondition": "towards",
        "faceOnLeft": true,
        "impliedDirection": 0,
        "testDirection": 180,
        "avgFps": 75,
        "minFps": 75,
        "maxFps": 76,
        "totalFrames": 61,
        "frameRates": 75
      },
      {
        "trial_number": 108,
        "trial_index": 625,
        "rt": 724,
        "correct": true,
        "response": "ArrowRight",
        "congruent": true,
        "gazeTowards": false,
        "gazeCondition": "away",
        "faceOnLeft": true,
        "impliedDirection": 0,
        "testDirection": 0,
        "avgFps": 75,
        "minFps": 75,
        "maxFps": 76,
        "totalFrames": 54,
        "frameRates": 75
      },
      {
        "trial_number": 109,
        "trial_index": 630,
        "rt": 913,
        "correct": true,
        "response": "ArrowLeft",
        "congruent": false,
        "gazeTowards": true,
        "gazeCondition": "towards",
        "faceOnLeft": true,
        "impliedDirection": 0,
        "testDirection": 180,
        "avgFps": 75,
        "minFps": 75,
        "maxFps": 76,
        "totalFrames": 68,
        "frameRates": 75
      },
      {
        "trial_number": 110,
        "trial_index": 635,
        "rt": 843,
        "correct": true,
        "response": "ArrowLeft",
        "congruent": false,
        "gazeTowards": true,
        "gazeCondition": "towards",
        "faceOnLeft": true,
        "impliedDirection": 0,
        "testDirection": 180,
        "avgFps": 75,
        "minFps": 74,
        "maxFps": 76,
        "totalFrames": 63,
        "frameRates": 75
      },
      {
        "trial_number": 111,
        "trial_index": 640,
        "rt": 1018,
        "correct": true,
        "response": "ArrowLeft",
        "congruent": false,
        "gazeTowards": false,
        "gazeCondition": "away",
        "faceOnLeft": true,
        "impliedDirection": 0,
        "testDirection": 180,
        "avgFps": 75,
        "minFps": 75,
        "maxFps": 99,
        "totalFrames": 77,
        "frameRates": 75
      },
      {
        "trial_number": 112,
        "trial_index": 645,
        "rt": 692,
        "correct": true,
        "response": "ArrowRight",
        "congruent": false,
        "gazeTowards": true,
        "gazeCondition": "towards",
        "faceOnLeft": false,
        "impliedDirection": 180,
        "testDirection": 0,
        "avgFps": 75,
        "minFps": 74,
        "maxFps": 76,
        "totalFrames": 52,
        "frameRates": 75
      },
      {
        "trial_number": 113,
        "trial_index": 650,
        "rt": 834,
        "correct": true,
        "response": "ArrowLeft",
        "congruent": false,
        "gazeTowards": true,
        "gazeCondition": "towards",
        "faceOnLeft": true,
        "impliedDirection": 0,
        "testDirection": 180,
        "avgFps": 75,
        "minFps": 74,
        "maxFps": 76,
        "totalFrames": 62,
        "frameRates": 75
      },
      {
        "trial_number": 114,
        "trial_index": 655,
        "rt": 930,
        "correct": true,
        "response": "ArrowRight",
        "congruent": false,
        "gazeTowards": true,
        "gazeCondition": "towards",
        "faceOnLeft": false,
        "impliedDirection": 180,
        "testDirection": 0,
        "avgFps": 76,
        "minFps": 74,
        "maxFps": 150,
        "totalFrames": 70,
        "frameRates": 76
      },
      {
        "trial_number": 115,
        "trial_index": 660,
        "rt": 935,
        "correct": true,
        "response": "ArrowRight",
        "congruent": true,
        "gazeTowards": true,
        "gazeCondition": "towards",
        "faceOnLeft": true,
        "impliedDirection": 0,
        "testDirection": 0,
        "avgFps": 75,
        "minFps": 75,
        "maxFps": 76,
        "totalFrames": 70,
        "frameRates": 75
      },
      {
        "trial_number": 116,
        "trial_index": 665,
        "rt": 642,
        "correct": true,
        "response": "ArrowLeft",
        "congruent": false,
        "gazeTowards": false,
        "gazeCondition": "away",
        "faceOnLeft": true,
        "impliedDirection": 0,
        "testDirection": 180,
        "avgFps": 75,
        "minFps": 75,
        "maxFps": 76,
        "totalFrames": 48,
        "frameRates": 75
      },
      {
        "trial_number": 117,
        "trial_index": 670,
        "rt": 1070,
        "correct": true,
        "response": "ArrowLeft",
        "congruent": true,
        "gazeTowards": false,
        "gazeCondition": "away",
        "faceOnLeft": false,
        "impliedDirection": 180,
        "testDirection": 180,
        "avgFps": 75,
        "minFps": 75,
        "maxFps": 76,
        "totalFrames": 80,
        "frameRates": 75
      },
      {
        "trial_number": 118,
        "trial_index": 678,
        "rt": 615,
        "correct": true,
        "response": "ArrowLeft",
        "congruent": false,
        "gazeTowards": true,
        "gazeCondition": "towards",
        "faceOnLeft": true,
        "impliedDirection": 0,
        "testDirection": 180,
        "avgFps": 76,
        "minFps": 75,
        "maxFps": 295,
        "totalFrames": 46,
        "frameRates": 76
      },
      {
        "trial_number": 119,
        "trial_index": 683,
        "rt": 898,
        "correct": true,
        "response": "ArrowLeft",
        "congruent": false,
        "gazeTowards": false,
        "gazeCondition": "away",
        "faceOnLeft": true,
        "impliedDirection": 0,
        "testDirection": 180,
        "avgFps": 75,
        "minFps": 75,
        "maxFps": 75,
        "totalFrames": 68,
        "frameRates": 75
      }
    ],
    "catch": {
      "total": 12,
      "correct": 12,
      "accuracy": 100,
      "meanRT": 659,
      "trials": [
        {
          "trial_number": 0,
          "trial_index": 148,
          "rt": 884,
          "correct": true,
          "colorTarget": "face",
          "gazeTowards": false,
          "gazeCondition": "away",
          "faceOnLeft": true
        },
        {
          "trial_number": 1,
          "trial_index": 161,
          "rt": 687,
          "correct": true,
          "colorTarget": "tree",
          "gazeTowards": true,
          "gazeCondition": "towards",
          "faceOnLeft": false
        },
        {
          "trial_number": 2,
          "trial_index": 174,
          "rt": 650,
          "correct": true,
          "colorTarget": "face",
          "gazeTowards": true,
          "gazeCondition": "towards",
          "faceOnLeft": true
        },
        {
          "trial_number": 3,
          "trial_index": 308,
          "rt": 495,
          "correct": true,
          "colorTarget": "tree",
          "gazeTowards": false,
          "gazeCondition": "away",
          "faceOnLeft": false
        },
        {
          "trial_number": 4,
          "trial_index": 326,
          "rt": 597,
          "correct": true,
          "colorTarget": "tree",
          "gazeTowards": true,
          "gazeCondition": "towards",
          "faceOnLeft": true
        },
        {
          "trial_number": 5,
          "trial_index": 334,
          "rt": 576,
          "correct": true,
          "colorTarget": "face",
          "gazeTowards": false,
          "gazeCondition": "away",
          "faceOnLeft": true
        },
        {
          "trial_number": 6,
          "trial_index": 352,
          "rt": 528,
          "correct": true,
          "colorTarget": "face",
          "gazeTowards": true,
          "gazeCondition": "towards",
          "faceOnLeft": false
        },
        {
          "trial_number": 7,
          "trial_index": 355,
          "rt": 512,
          "correct": true,
          "colorTarget": "tree",
          "gazeTowards": false,
          "gazeCondition": "away",
          "faceOnLeft": false
        },
        {
          "trial_number": 8,
          "trial_index": 509,
          "rt": 1279,
          "correct": true,
          "colorTarget": "face",
          "gazeTowards": true,
          "gazeCondition": "towards",
          "faceOnLeft": true
        },
        {
          "trial_number": 9,
          "trial_index": 522,
          "rt": 602,
          "correct": true,
          "colorTarget": "tree",
          "gazeTowards": false,
          "gazeCondition": "away",
          "faceOnLeft": true
        },
        {
          "trial_number": 10,
          "trial_index": 561,
          "rt": 501,
          "correct": true,
          "colorTarget": "face",
          "gazeTowards": false,
          "gazeCondition": "away",
          "faceOnLeft": false
        },
        {
          "trial_number": 11,
          "trial_index": 674,
          "rt": 596,
          "correct": true,
          "colorTarget": "tree",
          "gazeTowards": false,
          "gazeCondition": "away",
          "faceOnLeft": false
        }
      ]
    },
    "practice": {
      "trials": [
        {
          "trial_number": 0,
          "rt": 1532,
          "correct": true,
          "direction": 0
        },
        {
          "trial_number": 1,
          "rt": 1446,
          "correct": true,
          "direction": 0
        },
        {
          "trial_number": 2,
          "rt": 999,
          "correct": true,
          "direction": 180
        },
        {
          "trial_number": 3,
          "rt": 1020,
          "correct": true,
          "direction": 180
        },
        {
          "trial_number": 4,
          "rt": 975,
          "correct": true,
          "direction": 180
        },
        {
          "trial_number": 5,
          "rt": 790,
          "correct": true,
          "direction": 0
        },
        {
          "trial_number": 6,
          "rt": 744,
          "correct": true,
          "direction": 180
        },
        {
          "trial_number": 7,
          "rt": 697,
          "correct": true,
          "direction": 180
        },
        {
          "trial_number": 8,
          "rt": 789,
          "correct": true,
          "direction": 180
        },
        {
          "trial_number": 9,
          "rt": 834,
          "correct": true,
          "direction": 180
        }
      ],
      "meanRT": 983,
      "accuracy": 100
    }
  }
}