{
  "experiment": "rdk-face-1",
  "UUID": "952efbb9-0b21-469d-89a8-3444ed2ae32b",
  "data": {
    "session": {
      "experiment_version": "1.8.6",
      "treatment": "faces_towards_away_catch",
      "file_version": "1.8.6",
      "totalTrials": 120,
      "totalTrialsIncludingCatch": 132,
      "conditions": {
        "gazeTowardsCount": 60,
        "gazeAwayCount": 60,
        "gazeTowardsAccuracy": 87,
        "gazeAwayAccuracy": 88
      },
      "session_group": "default",
      "browserData": {
        "os": "Windows",
        "browser": "Chrome",
        "screenResolution": "2048x1152",
        "browserViewport": "2048x1152",
        "devicePixelRatio": 1.25,
        "colorDepth": 30,
        "hardwareConcurrency": 20,
        "deviceMemory": 8,
        "gpuRenderer": "ANGLE (NVIDIA, NVIDIA GeForce RTX 3090 (0x00002204) Direct3D11 vs_5_0 ps_5_0, D3D11)",
        "measuredRefreshRateHz": 304
      },
      "attention": {
        "visibilityEvents": [
          {
            "event": "blur",
            "state": "blurred",
            "timestamp": 1772766503989
          },
          {
            "event": "focus",
            "state": "focused",
            "timestamp": 1772766504943
          },
          {
            "event": "blur",
            "state": "blurred",
            "timestamp": 1772766504945
          },
          {
            "event": "visibilitychange",
            "state": "hidden",
            "timestamp": 1772766504949
          },
          {
            "event": "visibilitychange",
            "state": "visible",
            "timestamp": 1772766506444
          },
          {
            "event": "focus",
            "state": "focused",
            "timestamp": 1772766506446
          },
          {
            "event": "blur",
            "state": "blurred",
            "timestamp": 1772767009595
          },
          {
            "event": "focus",
            "state": "focused",
            "timestamp": 1772767012579
          }
        ]
      },
      "calibration": {
        "monitorWidthCm": 38,
        "viewingDistanceCm": 54,
        "pixelsPerDegree": 50
      },
      "parameters": {
        "coherence": 0.4,
        "apertureDeg": 5,
        "densityDotsPerDeg2": 40,
        "dotDiameterDeg": 0.035,
        "dotSpeedDegPerSec": 3,
        "lifetimeMs": 200,
        "fixationDurationMs": 1500,
        "faceDurationMs": 1500,
        "testDurationMs": 2000,
        "catchResponseMs": 3000
      },
      "prolific": {
        "prolificPid": "6733ea502e342b09d17e844e",
        "studyId": "",
        "sessionId": ""
      },
      "timing": {
        "startTime": "2026-03-06T03:08:23.154Z",
        "endTime": "2026-03-06T03:22:51.803Z",
        "totalElapsedTimeMs": 868649
      }
    },
    "trials": [
      {
        "trial_number": 0,
        "trial_index": 90,
        "rt": null,
        "correct": false,
        "response": null,
        "congruent": true,
        "gazeTowards": false,
        "gazeCondition": "away",
        "faceOnLeft": false,
        "impliedDirection": 180,
        "testDirection": 180,
        "avgFps": 360,
        "minFps": 345,
        "maxFps": 385,
        "totalFrames": 720,
        "frameRates": 360
      },
      {
        "trial_number": 1,
        "trial_index": 95,
        "rt": 828,
        "correct": true,
        "response": "ArrowLeft",
        "congruent": true,
        "gazeTowards": false,
        "gazeCondition": "away",
        "faceOnLeft": false,
        "impliedDirection": 180,
        "testDirection": 180,
        "avgFps": 359,
        "minFps": 154,
        "maxFps": 526,
        "totalFrames": 298,
        "frameRates": 359
      },
      {
        "trial_number": 2,
        "trial_index": 100,
        "rt": 669,
        "correct": true,
        "response": "ArrowRight",
        "congruent": true,
        "gazeTowards": false,
        "gazeCondition": "away",
        "faceOnLeft": true,
        "impliedDirection": 0,
        "testDirection": 0,
        "avgFps": 360,
        "minFps": 345,
        "maxFps": 370,
        "totalFrames": 239,
        "frameRates": 360
      },
      {
        "trial_number": 3,
        "trial_index": 105,
        "rt": 957,
        "correct": true,
        "response": "ArrowRight",
        "congruent": false,
        "gazeTowards": true,
        "gazeCondition": "towards",
        "faceOnLeft": false,
        "impliedDirection": 180,
        "testDirection": 0,
        "avgFps": 360,
        "minFps": 345,
        "maxFps": 385,
        "totalFrames": 345,
        "frameRates": 360
      },
      {
        "trial_number": 4,
        "trial_index": 110,
        "rt": 713,
        "correct": true,
        "response": "ArrowLeft",
        "congruent": false,
        "gazeTowards": false,
        "gazeCondition": "away",
        "faceOnLeft": true,
        "impliedDirection": 0,
        "testDirection": 180,
        "avgFps": 360,
        "minFps": 345,
        "maxFps": 385,
        "totalFrames": 257,
        "frameRates": 360
      },
      {
        "trial_number": 5,
        "trial_index": 115,
        "rt": 608,
        "correct": true,
        "response": "ArrowLeft",
        "congruent": true,
        "gazeTowards": false,
        "gazeCondition": "away",
        "faceOnLeft": false,
        "impliedDirection": 180,
        "testDirection": 180,
        "avgFps": 360,
        "minFps": 345,
        "maxFps": 370,
        "totalFrames": 219,
        "frameRates": 360
      },
      {
        "trial_number": 6,
        "trial_index": 120,
        "rt": 842,
        "correct": true,
        "response": "ArrowRight",
        "congruent": true,
        "gazeTowards": false,
        "gazeCondition": "away",
        "faceOnLeft": true,
        "impliedDirection": 0,
        "testDirection": 0,
        "avgFps": 360,
        "minFps": 345,
        "maxFps": 385,
        "totalFrames": 302,
        "frameRates": 360
      },
      {
        "trial_number": 7,
        "trial_index": 125,
        "rt": 1156,
        "correct": true,
        "response": "ArrowRight",
        "congruent": true,
        "gazeTowards": true,
        "gazeCondition": "towards",
        "faceOnLeft": true,
        "impliedDirection": 0,
        "testDirection": 0,
        "avgFps": 359,
        "minFps": 156,
        "maxFps": 500,
        "totalFrames": 415,
        "frameRates": 359
      },
      {
        "trial_number": 8,
        "trial_index": 130,
        "rt": 1061,
        "correct": true,
        "response": "ArrowLeft",
        "congruent": true,
        "gazeTowards": true,
        "gazeCondition": "towards",
        "faceOnLeft": false,
        "impliedDirection": 180,
        "testDirection": 180,
        "avgFps": 359,
        "minFps": 169,
        "maxFps": 417,
        "totalFrames": 381,
        "frameRates": 359
      },
      {
        "trial_number": 9,
        "trial_index": 135,
        "rt": 1046,
        "correct": true,
        "response": "ArrowRight",
        "congruent": true,
        "gazeTowards": false,
        "gazeCondition": "away",
        "faceOnLeft": true,
        "impliedDirection": 0,
        "testDirection": 0,
        "avgFps": 360,
        "minFps": 345,
        "maxFps": 370,
        "totalFrames": 377,
        "frameRates": 360
      },
      {
        "trial_number": 10,
        "trial_index": 140,
        "rt": 1303,
        "correct": true,
        "response": "ArrowLeft",
        "congruent": false,
        "gazeTowards": false,
        "gazeCondition": "away",
        "faceOnLeft": true,
        "impliedDirection": 0,
        "testDirection": 180,
        "avgFps": 359,
        "minFps": 152,
        "maxFps": 588,
        "totalFrames": 468,
        "frameRates": 359
      },
      {
        "trial_number": 11,
        "trial_index": 148,
        "rt": 1157,
        "correct": true,
        "response": "ArrowRight",
        "congruent": false,
        "gazeTowards": true,
        "gazeCondition": "towards",
        "faceOnLeft": false,
        "impliedDirection": 180,
        "testDirection": 0,
        "avgFps": 360,
        "minFps": 345,
        "maxFps": 385,
        "totalFrames": 416,
        "frameRates": 360
      },
      {
        "trial_number": 12,
        "trial_index": 153,
        "rt": 1465,
        "correct": false,
        "response": "ArrowRight",
        "congruent": false,
        "gazeTowards": false,
        "gazeCondition": "away",
        "faceOnLeft": true,
        "impliedDirection": 0,
        "testDirection": 180,
        "avgFps": 360,
        "minFps": 345,
        "maxFps": 385,
        "totalFrames": 528,
        "frameRates": 360
      },
      {
        "trial_number": 13,
        "trial_index": 158,
        "rt": 1399,
        "correct": false,
        "response": "ArrowRight",
        "congruent": true,
        "gazeTowards": true,
        "gazeCondition": "towards",
        "faceOnLeft": false,
        "impliedDirection": 180,
        "testDirection": 180,
        "avgFps": 360,
        "minFps": 345,
        "maxFps": 385,
        "totalFrames": 503,
        "frameRates": 360
      },
      {
        "trial_number": 14,
        "trial_index": 163,
        "rt": 1040,
        "correct": true,
        "response": "ArrowRight",
        "congruent": false,
        "gazeTowards": true,
        "gazeCondition": "towards",
        "faceOnLeft": false,
        "impliedDirection": 180,
        "testDirection": 0,
        "avgFps": 360,
        "minFps": 345,
        "maxFps": 385,
        "totalFrames": 374,
        "frameRates": 360
      },
      {
        "trial_number": 15,
        "trial_index": 168,
        "rt": 1301,
        "correct": false,
        "response": "ArrowRight",
        "congruent": false,
        "gazeTowards": false,
        "gazeCondition": "away",
        "faceOnLeft": true,
        "impliedDirection": 0,
        "testDirection": 180,
        "avgFps": 359,
        "minFps": 152,
        "maxFps": 625,
        "totalFrames": 467,
        "frameRates": 359
      },
      {
        "trial_number": 16,
        "trial_index": 173,
        "rt": 1036,
        "correct": true,
        "response": "ArrowRight",
        "congruent": true,
        "gazeTowards": true,
        "gazeCondition": "towards",
        "faceOnLeft": true,
        "impliedDirection": 0,
        "testDirection": 0,
        "avgFps": 360,
        "minFps": 345,
        "maxFps": 385,
        "totalFrames": 372,
        "frameRates": 360
      },
      {
        "trial_number": 17,
        "trial_index": 178,
        "rt": 1075,
        "correct": true,
        "response": "ArrowRight",
        "congruent": false,
        "gazeTowards": false,
        "gazeCondition": "away",
        "faceOnLeft": false,
        "impliedDirection": 180,
        "testDirection": 0,
        "avgFps": 359,
        "minFps": 164,
        "maxFps": 476,
        "totalFrames": 386,
        "frameRates": 359
      },
      {
        "trial_number": 18,
        "trial_index": 183,
        "rt": 1001,
        "correct": true,
        "response": "ArrowRight",
        "congruent": true,
        "gazeTowards": false,
        "gazeCondition": "away",
        "faceOnLeft": true,
        "impliedDirection": 0,
        "testDirection": 0,
        "avgFps": 359,
        "minFps": 156,
        "maxFps": 526,
        "totalFrames": 360,
        "frameRates": 359
      },
      {
        "trial_number": 19,
        "trial_index": 188,
        "rt": 920,
        "correct": true,
        "response": "ArrowRight",
        "congruent": false,
        "gazeTowards": false,
        "gazeCondition": "away",
        "faceOnLeft": false,
        "impliedDirection": 180,
        "testDirection": 0,
        "avgFps": 359,
        "minFps": 145,
        "maxFps": 667,
        "totalFrames": 331,
        "frameRates": 359
      },
      {
        "trial_number": 20,
        "trial_index": 193,
        "rt": 900,
        "correct": true,
        "response": "ArrowRight",
        "congruent": true,
        "gazeTowards": false,
        "gazeCondition": "away",
        "faceOnLeft": true,
        "impliedDirection": 0,
        "testDirection": 0,
        "avgFps": 359,
        "minFps": 152,
        "maxFps": 588,
        "totalFrames": 323,
        "frameRates": 359
      },
      {
        "trial_number": 21,
        "trial_index": 198,
        "rt": 1063,
        "correct": true,
        "response": "ArrowRight",
        "congruent": true,
        "gazeTowards": true,
        "gazeCondition": "towards",
        "faceOnLeft": true,
        "impliedDirection": 0,
        "testDirection": 0,
        "avgFps": 360,
        "minFps": 345,
        "maxFps": 370,
        "totalFrames": 382,
        "frameRates": 360
      },
      {
        "trial_number": 22,
        "trial_index": 203,
        "rt": 1234,
        "correct": true,
        "response": "ArrowLeft",
        "congruent": false,
        "gazeTowards": true,
        "gazeCondition": "towards",
        "faceOnLeft": true,
        "impliedDirection": 0,
        "testDirection": 180,
        "avgFps": 360,
        "minFps": 345,
        "maxFps": 370,
        "totalFrames": 444,
        "frameRates": 360
      },
      {
        "trial_number": 23,
        "trial_index": 208,
        "rt": 1119,
        "correct": true,
        "response": "ArrowRight",
        "congruent": true,
        "gazeTowards": false,
        "gazeCondition": "away",
        "faceOnLeft": true,
        "impliedDirection": 0,
        "testDirection": 0,
        "avgFps": 359,
        "minFps": 167,
        "maxFps": 435,
        "totalFrames": 402,
        "frameRates": 359
      },
      {
        "trial_number": 24,
        "trial_index": 216,
        "rt": 1050,
        "correct": true,
        "response": "ArrowLeft",
        "congruent": false,
        "gazeTowards": false,
        "gazeCondition": "away",
        "faceOnLeft": true,
        "impliedDirection": 0,
        "testDirection": 180,
        "avgFps": 360,
        "minFps": 345,
        "maxFps": 385,
        "totalFrames": 378,
        "frameRates": 360
      },
      {
        "trial_number": 25,
        "trial_index": 224,
        "rt": 865,
        "correct": true,
        "response": "ArrowRight",
        "congruent": false,
        "gazeTowards": false,
        "gazeCondition": "away",
        "faceOnLeft": false,
        "impliedDirection": 180,
        "testDirection": 0,
        "avgFps": 360,
        "minFps": 345,
        "maxFps": 370,
        "totalFrames": 311,
        "frameRates": 360
      },
      {
        "trial_number": 26,
        "trial_index": 229,
        "rt": 1284,
        "correct": true,
        "response": "ArrowLeft",
        "congruent": true,
        "gazeTowards": false,
        "gazeCondition": "away",
        "faceOnLeft": false,
        "impliedDirection": 180,
        "testDirection": 180,
        "avgFps": 360,
        "minFps": 345,
        "maxFps": 385,
        "totalFrames": 462,
        "frameRates": 360
      },
      {
        "trial_number": 27,
        "trial_index": 234,
        "rt": 961,
        "correct": true,
        "response": "ArrowRight",
        "congruent": true,
        "gazeTowards": true,
        "gazeCondition": "towards",
        "faceOnLeft": true,
        "impliedDirection": 0,
        "testDirection": 0,
        "avgFps": 360,
        "minFps": 345,
        "maxFps": 385,
        "totalFrames": 346,
        "frameRates": 360
      },
      {
        "trial_number": 28,
        "trial_index": 242,
        "rt": 1107,
        "correct": true,
        "response": "ArrowLeft",
        "congruent": false,
        "gazeTowards": false,
        "gazeCondition": "away",
        "faceOnLeft": true,
        "impliedDirection": 0,
        "testDirection": 180,
        "avgFps": 360,
        "minFps": 244,
        "maxFps": 625,
        "totalFrames": 398,
        "frameRates": 360
      },
      {
        "trial_number": 29,
        "trial_index": 248,
        "rt": 972,
        "correct": true,
        "response": "ArrowLeft",
        "congruent": false,
        "gazeTowards": true,
        "gazeCondition": "towards",
        "faceOnLeft": true,
        "impliedDirection": 0,
        "testDirection": 180,
        "avgFps": 360,
        "minFps": 345,
        "maxFps": 385,
        "totalFrames": 350,
        "frameRates": 360
      },
      {
        "trial_number": 30,
        "trial_index": 253,
        "rt": 668,
        "correct": true,
        "response": "ArrowRight",
        "congruent": true,
        "gazeTowards": false,
        "gazeCondition": "away",
        "faceOnLeft": true,
        "impliedDirection": 0,
        "testDirection": 0,
        "avgFps": 360,
        "minFps": 345,
        "maxFps": 370,
        "totalFrames": 240,
        "frameRates": 360
      },
      {
        "trial_number": 31,
        "trial_index": 258,
        "rt": 940,
        "correct": true,
        "response": "ArrowRight",
        "congruent": false,
        "gazeTowards": false,
        "gazeCondition": "away",
        "faceOnLeft": false,
        "impliedDirection": 180,
        "testDirection": 0,
        "avgFps": 360,
        "minFps": 345,
        "maxFps": 370,
        "totalFrames": 339,
        "frameRates": 360
      },
      {
        "trial_number": 32,
        "trial_index": 266,
        "rt": 688,
        "correct": true,
        "response": "ArrowLeft",
        "congruent": true,
        "gazeTowards": true,
        "gazeCondition": "towards",
        "faceOnLeft": false,
        "impliedDirection": 180,
        "testDirection": 180,
        "avgFps": 360,
        "minFps": 345,
        "maxFps": 370,
        "totalFrames": 247,
        "frameRates": 360
      },
      {
        "trial_number": 33,
        "trial_index": 271,
        "rt": 902,
        "correct": true,
        "response": "ArrowLeft",
        "congruent": false,
        "gazeTowards": false,
        "gazeCondition": "away",
        "faceOnLeft": true,
        "impliedDirection": 0,
        "testDirection": 180,
        "avgFps": 360,
        "minFps": 345,
        "maxFps": 370,
        "totalFrames": 325,
        "frameRates": 360
      },
      {
        "trial_number": 34,
        "trial_index": 276,
        "rt": 591,
        "correct": true,
        "response": "ArrowRight",
        "congruent": true,
        "gazeTowards": false,
        "gazeCondition": "away",
        "faceOnLeft": true,
        "impliedDirection": 0,
        "testDirection": 0,
        "avgFps": 360,
        "minFps": 345,
        "maxFps": 370,
        "totalFrames": 212,
        "frameRates": 360
      },
      {
        "trial_number": 35,
        "trial_index": 281,
        "rt": 1113,
        "correct": true,
        "response": "ArrowRight",
        "congruent": false,
        "gazeTowards": false,
        "gazeCondition": "away",
        "faceOnLeft": false,
        "impliedDirection": 180,
        "testDirection": 0,
        "avgFps": 359,
        "minFps": 172,
        "maxFps": 400,
        "totalFrames": 400,
        "frameRates": 359
      },
      {
        "trial_number": 36,
        "trial_index": 286,
        "rt": 900,
        "correct": true,
        "response": "ArrowLeft",
        "congruent": false,
        "gazeTowards": false,
        "gazeCondition": "away",
        "faceOnLeft": true,
        "impliedDirection": 0,
        "testDirection": 180,
        "avgFps": 360,
        "minFps": 345,
        "maxFps": 370,
        "totalFrames": 324,
        "frameRates": 360
      },
      {
        "trial_number": 37,
        "trial_index": 291,
        "rt": 802,
        "correct": true,
        "response": "ArrowLeft",
        "congruent": true,
        "gazeTowards": true,
        "gazeCondition": "towards",
        "faceOnLeft": false,
        "impliedDirection": 180,
        "testDirection": 180,
        "avgFps": 360,
        "minFps": 313,
        "maxFps": 400,
        "totalFrames": 288,
        "frameRates": 360
      },
      {
        "trial_number": 38,
        "trial_index": 296,
        "rt": 624,
        "correct": true,
        "response": "ArrowRight",
        "congruent": false,
        "gazeTowards": true,
        "gazeCondition": "towards",
        "faceOnLeft": false,
        "impliedDirection": 180,
        "testDirection": 0,
        "avgFps": 360,
        "minFps": 345,
        "maxFps": 370,
        "totalFrames": 224,
        "frameRates": 360
      },
      {
        "trial_number": 39,
        "trial_index": 301,
        "rt": 592,
        "correct": true,
        "response": "ArrowLeft",
        "congruent": true,
        "gazeTowards": false,
        "gazeCondition": "away",
        "faceOnLeft": false,
        "impliedDirection": 180,
        "testDirection": 180,
        "avgFps": 358,
        "minFps": 169,
        "maxFps": 435,
        "totalFrames": 213,
        "frameRates": 358
      },
      {
        "trial_number": 40,
        "trial_index": 306,
        "rt": 1422,
        "correct": true,
        "response": "ArrowLeft",
        "congruent": false,
        "gazeTowards": false,
        "gazeCondition": "away",
        "faceOnLeft": true,
        "impliedDirection": 0,
        "testDirection": 180,
        "avgFps": 359,
        "minFps": 175,
        "maxFps": 400,
        "totalFrames": 511,
        "frameRates": 359
      },
      {
        "trial_number": 41,
        "trial_index": 311,
        "rt": 764,
        "correct": true,
        "response": "ArrowRight",
        "congruent": false,
        "gazeTowards": true,
        "gazeCondition": "towards",
        "faceOnLeft": false,
        "impliedDirection": 180,
        "testDirection": 0,
        "avgFps": 360,
        "minFps": 345,
        "maxFps": 370,
        "totalFrames": 275,
        "frameRates": 360
      },
      {
        "trial_number": 42,
        "trial_index": 316,
        "rt": 960,
        "correct": true,
        "response": "ArrowRight",
        "congruent": true,
        "gazeTowards": true,
        "gazeCondition": "towards",
        "faceOnLeft": true,
        "impliedDirection": 0,
        "testDirection": 0,
        "avgFps": 360,
        "minFps": 345,
        "maxFps": 370,
        "totalFrames": 345,
        "frameRates": 360
      },
      {
        "trial_number": 43,
        "trial_index": 321,
        "rt": 929,
        "correct": true,
        "response": "ArrowRight",
        "congruent": true,
        "gazeTowards": false,
        "gazeCondition": "away",
        "faceOnLeft": true,
        "impliedDirection": 0,
        "testDirection": 0,
        "avgFps": 360,
        "minFps": 345,
        "maxFps": 370,
        "totalFrames": 334,
        "frameRates": 360
      },
      {
        "trial_number": 44,
        "trial_index": 326,
        "rt": 1031,
        "correct": true,
        "response": "ArrowRight",
        "congruent": true,
        "gazeTowards": false,
        "gazeCondition": "away",
        "faceOnLeft": true,
        "impliedDirection": 0,
        "testDirection": 0,
        "avgFps": 359,
        "minFps": 156,
        "maxFps": 526,
        "totalFrames": 371,
        "frameRates": 359
      },
      {
        "trial_number": 45,
        "trial_index": 331,
        "rt": 1269,
        "correct": false,
        "response": "ArrowRight",
        "congruent": false,
        "gazeTowards": false,
        "gazeCondition": "away",
        "faceOnLeft": true,
        "impliedDirection": 0,
        "testDirection": 180,
        "avgFps": 360,
        "minFps": 345,
        "maxFps": 385,
        "totalFrames": 457,
        "frameRates": 360
      },
      {
        "trial_number": 46,
        "trial_index": 336,
        "rt": 1827,
        "correct": false,
        "response": "ArrowLeft",
        "congruent": false,
        "gazeTowards": false,
        "gazeCondition": "away",
        "faceOnLeft": false,
        "impliedDirection": 180,
        "testDirection": 0,
        "avgFps": 360,
        "minFps": 345,
        "maxFps": 385,
        "totalFrames": 657,
        "frameRates": 360
      },
      {
        "trial_number": 47,
        "trial_index": 341,
        "rt": 708,
        "correct": true,
        "response": "ArrowRight",
        "congruent": false,
        "gazeTowards": false,
        "gazeCondition": "away",
        "faceOnLeft": false,
        "impliedDirection": 180,
        "testDirection": 0,
        "avgFps": 359,
        "minFps": 164,
        "maxFps": 435,
        "totalFrames": 254,
        "frameRates": 359
      },
      {
        "trial_number": 48,
        "trial_index": 346,
        "rt": 1673,
        "correct": false,
        "response": "ArrowRight",
        "congruent": false,
        "gazeTowards": true,
        "gazeCondition": "towards",
        "faceOnLeft": true,
        "impliedDirection": 0,
        "testDirection": 180,
        "avgFps": 359,
        "minFps": 172,
        "maxFps": 417,
        "totalFrames": 602,
        "frameRates": 359
      },
      {
        "trial_number": 49,
        "trial_index": 351,
        "rt": 575,
        "correct": true,
        "response": "ArrowRight",
        "congruent": false,
        "gazeTowards": false,
        "gazeCondition": "away",
        "faceOnLeft": false,
        "impliedDirection": 180,
        "testDirection": 0,
        "avgFps": 359,
        "minFps": 190,
        "maxFps": 417,
        "totalFrames": 206,
        "frameRates": 359
      },
      {
        "trial_number": 50,
        "trial_index": 356,
        "rt": 606,
        "correct": true,
        "response": "ArrowRight",
        "congruent": false,
        "gazeTowards": true,
        "gazeCondition": "towards",
        "faceOnLeft": false,
        "impliedDirection": 180,
        "testDirection": 0,
        "avgFps": 359,
        "minFps": 198,
        "maxFps": 455,
        "totalFrames": 218,
        "frameRates": 359
      },
      {
        "trial_number": 51,
        "trial_index": 361,
        "rt": 1217,
        "correct": false,
        "response": "ArrowRight",
        "congruent": true,
        "gazeTowards": true,
        "gazeCondition": "towards",
        "faceOnLeft": false,
        "impliedDirection": 180,
        "testDirection": 180,
        "avgFps": 360,
        "minFps": 345,
        "maxFps": 385,
        "totalFrames": 438,
        "frameRates": 360
      },
      {
        "trial_number": 52,
        "trial_index": 366,
        "rt": 1252,
        "correct": true,
        "response": "ArrowLeft",
        "congruent": false,
        "gazeTowards": true,
        "gazeCondition": "towards",
        "faceOnLeft": true,
        "impliedDirection": 0,
        "testDirection": 180,
        "avgFps": 360,
        "minFps": 345,
        "maxFps": 385,
        "totalFrames": 450,
        "frameRates": 360
      },
      {
        "trial_number": 53,
        "trial_index": 371,
        "rt": 988,
        "correct": true,
        "response": "ArrowLeft",
        "congruent": true,
        "gazeTowards": true,
        "gazeCondition": "towards",
        "faceOnLeft": false,
        "impliedDirection": 180,
        "testDirection": 180,
        "avgFps": 359,
        "minFps": 175,
        "maxFps": 400,
        "totalFrames": 355,
        "frameRates": 359
      },
      {
        "trial_number": 54,
        "trial_index": 376,
        "rt": 1108,
        "correct": true,
        "response": "ArrowRight",
        "congruent": true,
        "gazeTowards": false,
        "gazeCondition": "away",
        "faceOnLeft": true,
        "impliedDirection": 0,
        "testDirection": 0,
        "avgFps": 359,
        "minFps": 159,
        "maxFps": 476,
        "totalFrames": 398,
        "frameRates": 359
      },
      {
        "trial_number": 55,
        "trial_index": 381,
        "rt": 898,
        "correct": true,
        "response": "ArrowRight",
        "congruent": false,
        "gazeTowards": false,
        "gazeCondition": "away",
        "faceOnLeft": false,
        "impliedDirection": 180,
        "testDirection": 0,
        "avgFps": 360,
        "minFps": 345,
        "maxFps": 370,
        "totalFrames": 323,
        "frameRates": 360
      },
      {
        "trial_number": 56,
        "trial_index": 389,
        "rt": 1354,
        "correct": true,
        "response": "ArrowRight",
        "congruent": true,
        "gazeTowards": false,
        "gazeCondition": "away",
        "faceOnLeft": true,
        "impliedDirection": 0,
        "testDirection": 0,
        "avgFps": 360,
        "minFps": 345,
        "maxFps": 370,
        "totalFrames": 487,
        "frameRates": 360
      },
      {
        "trial_number": 57,
        "trial_index": 394,
        "rt": 1504,
        "correct": true,
        "response": "ArrowLeft",
        "congruent": true,
        "gazeTowards": false,
        "gazeCondition": "away",
        "faceOnLeft": false,
        "impliedDirection": 180,
        "testDirection": 180,
        "avgFps": 360,
        "minFps": 345,
        "maxFps": 385,
        "totalFrames": 541,
        "frameRates": 360
      },
      {
        "trial_number": 58,
        "trial_index": 399,
        "rt": 1528,
        "correct": true,
        "response": "ArrowLeft",
        "congruent": true,
        "gazeTowards": true,
        "gazeCondition": "towards",
        "faceOnLeft": false,
        "impliedDirection": 180,
        "testDirection": 180,
        "avgFps": 360,
        "minFps": 345,
        "maxFps": 370,
        "totalFrames": 550,
        "frameRates": 360
      },
      {
        "trial_number": 59,
        "trial_index": 404,
        "rt": 1272,
        "correct": true,
        "response": "ArrowLeft",
        "congruent": false,
        "gazeTowards": false,
        "gazeCondition": "away",
        "faceOnLeft": true,
        "impliedDirection": 0,
        "testDirection": 180,
        "avgFps": 360,
        "minFps": 345,
        "maxFps": 385,
        "totalFrames": 457,
        "frameRates": 360
      },
      {
        "trial_number": 60,
        "trial_index": 410,
        "rt": 1261,
        "correct": false,
        "response": "ArrowLeft",
        "congruent": true,
        "gazeTowards": true,
        "gazeCondition": "towards",
        "faceOnLeft": true,
        "impliedDirection": 0,
        "testDirection": 0,
        "avgFps": 360,
        "minFps": 345,
        "maxFps": 385,
        "totalFrames": 454,
        "frameRates": 360
      },
      {
        "trial_number": 61,
        "trial_index": 415,
        "rt": 1069,
        "correct": true,
        "response": "ArrowLeft",
        "congruent": false,
        "gazeTowards": true,
        "gazeCondition": "towards",
        "faceOnLeft": true,
        "impliedDirection": 0,
        "testDirection": 180,
        "avgFps": 360,
        "minFps": 345,
        "maxFps": 385,
        "totalFrames": 385,
        "frameRates": 360
      },
      {
        "trial_number": 62,
        "trial_index": 420,
        "rt": 775,
        "correct": true,
        "response": "ArrowRight",
        "congruent": true,
        "gazeTowards": true,
        "gazeCondition": "towards",
        "faceOnLeft": true,
        "impliedDirection": 0,
        "testDirection": 0,
        "avgFps": 359,
        "minFps": 164,
        "maxFps": 435,
        "totalFrames": 278,
        "frameRates": 359
      },
      {
        "trial_number": 63,
        "trial_index": 425,
        "rt": 988,
        "correct": true,
        "response": "ArrowLeft",
        "congruent": true,
        "gazeTowards": true,
        "gazeCondition": "towards",
        "faceOnLeft": false,
        "impliedDirection": 180,
        "testDirection": 180,
        "avgFps": 360,
        "minFps": 345,
        "maxFps": 370,
        "totalFrames": 356,
        "frameRates": 360
      },
      {
        "trial_number": 64,
        "trial_index": 430,
        "rt": 896,
        "correct": true,
        "response": "ArrowLeft",
        "congruent": true,
        "gazeTowards": true,
        "gazeCondition": "towards",
        "faceOnLeft": false,
        "impliedDirection": 180,
        "testDirection": 180,
        "avgFps": 360,
        "minFps": 345,
        "maxFps": 385,
        "totalFrames": 322,
        "frameRates": 360
      },
      {
        "trial_number": 65,
        "trial_index": 435,
        "rt": 787,
        "correct": true,
        "response": "ArrowRight",
        "congruent": false,
        "gazeTowards": true,
        "gazeCondition": "towards",
        "faceOnLeft": false,
        "impliedDirection": 180,
        "testDirection": 0,
        "avgFps": 360,
        "minFps": 345,
        "maxFps": 370,
        "totalFrames": 283,
        "frameRates": 360
      },
      {
        "trial_number": 66,
        "trial_index": 440,
        "rt": 1140,
        "correct": true,
        "response": "ArrowRight",
        "congruent": false,
        "gazeTowards": true,
        "gazeCondition": "towards",
        "faceOnLeft": false,
        "impliedDirection": 180,
        "testDirection": 0,
        "avgFps": 360,
        "minFps": 345,
        "maxFps": 385,
        "totalFrames": 410,
        "frameRates": 360
      },
      {
        "trial_number": 67,
        "trial_index": 445,
        "rt": 1059,
        "correct": false,
        "response": "ArrowLeft",
        "congruent": false,
        "gazeTowards": true,
        "gazeCondition": "towards",
        "faceOnLeft": false,
        "impliedDirection": 180,
        "testDirection": 0,
        "avgFps": 360,
        "minFps": 345,
        "maxFps": 370,
        "totalFrames": 381,
        "frameRates": 360
      },
      {
        "trial_number": 68,
        "trial_index": 450,
        "rt": 871,
        "correct": true,
        "response": "ArrowLeft",
        "congruent": true,
        "gazeTowards": true,
        "gazeCondition": "towards",
        "faceOnLeft": false,
        "impliedDirection": 180,
        "testDirection": 180,
        "avgFps": 360,
        "minFps": 345,
        "maxFps": 370,
        "totalFrames": 313,
        "frameRates": 360
      },
      {
        "trial_number": 69,
        "trial_index": 455,
        "rt": 1057,
        "correct": true,
        "response": "ArrowRight",
        "congruent": true,
        "gazeTowards": false,
        "gazeCondition": "away",
        "faceOnLeft": true,
        "impliedDirection": 0,
        "testDirection": 0,
        "avgFps": 360,
        "minFps": 345,
        "maxFps": 370,
        "totalFrames": 380,
        "frameRates": 360
      },
      {
        "trial_number": 70,
        "trial_index": 460,
        "rt": 895,
        "correct": true,
        "response": "ArrowLeft",
        "congruent": false,
        "gazeTowards": false,
        "gazeCondition": "away",
        "faceOnLeft": true,
        "impliedDirection": 0,
        "testDirection": 180,
        "avgFps": 360,
        "minFps": 345,
        "maxFps": 370,
        "totalFrames": 322,
        "frameRates": 360
      },
      {
        "trial_number": 71,
        "trial_index": 465,
        "rt": 852,
        "correct": true,
        "response": "ArrowRight",
        "congruent": false,
        "gazeTowards": true,
        "gazeCondition": "towards",
        "faceOnLeft": false,
        "impliedDirection": 180,
        "testDirection": 0,
        "avgFps": 360,
        "minFps": 345,
        "maxFps": 370,
        "totalFrames": 307,
        "frameRates": 360
      },
      {
        "trial_number": 72,
        "trial_index": 470,
        "rt": 928,
        "correct": true,
        "response": "ArrowRight",
        "congruent": false,
        "gazeTowards": true,
        "gazeCondition": "towards",
        "faceOnLeft": false,
        "impliedDirection": 180,
        "testDirection": 0,
        "avgFps": 359,
        "minFps": 169,
        "maxFps": 417,
        "totalFrames": 333,
        "frameRates": 359
      },
      {
        "trial_number": 73,
        "trial_index": 475,
        "rt": 935,
        "correct": true,
        "response": "ArrowLeft",
        "congruent": true,
        "gazeTowards": false,
        "gazeCondition": "away",
        "faceOnLeft": false,
        "impliedDirection": 180,
        "testDirection": 180,
        "avgFps": 360,
        "minFps": 345,
        "maxFps": 370,
        "totalFrames": 337,
        "frameRates": 360
      },
      {
        "trial_number": 74,
        "trial_index": 480,
        "rt": 669,
        "correct": true,
        "response": "ArrowRight",
        "congruent": false,
        "gazeTowards": true,
        "gazeCondition": "towards",
        "faceOnLeft": false,
        "impliedDirection": 180,
        "testDirection": 0,
        "avgFps": 359,
        "minFps": 179,
        "maxFps": 370,
        "totalFrames": 240,
        "frameRates": 359
      },
      {
        "trial_number": 75,
        "trial_index": 485,
        "rt": 924,
        "correct": true,
        "response": "ArrowLeft",
        "congruent": false,
        "gazeTowards": true,
        "gazeCondition": "towards",
        "faceOnLeft": true,
        "impliedDirection": 0,
        "testDirection": 180,
        "avgFps": 360,
        "minFps": 345,
        "maxFps": 385,
        "totalFrames": 332,
        "frameRates": 360
      },
      {
        "trial_number": 76,
        "trial_index": 490,
        "rt": 1539,
        "correct": true,
        "response": "ArrowLeft",
        "congruent": true,
        "gazeTowards": false,
        "gazeCondition": "away",
        "faceOnLeft": false,
        "impliedDirection": 180,
        "testDirection": 180,
        "avgFps": 360,
        "minFps": 345,
        "maxFps": 385,
        "totalFrames": 554,
        "frameRates": 360
      },
      {
        "trial_number": 77,
        "trial_index": 495,
        "rt": 747,
        "correct": true,
        "response": "ArrowRight",
        "congruent": false,
        "gazeTowards": true,
        "gazeCondition": "towards",
        "faceOnLeft": false,
        "impliedDirection": 180,
        "testDirection": 0,
        "avgFps": 360,
        "minFps": 345,
        "maxFps": 385,
        "totalFrames": 269,
        "frameRates": 360
      },
      {
        "trial_number": 78,
        "trial_index": 500,
        "rt": 774,
        "correct": true,
        "response": "ArrowRight",
        "congruent": false,
        "gazeTowards": true,
        "gazeCondition": "towards",
        "faceOnLeft": false,
        "impliedDirection": 180,
        "testDirection": 0,
        "avgFps": 359,
        "minFps": 159,
        "maxFps": 500,
        "totalFrames": 278,
        "frameRates": 359
      },
      {
        "trial_number": 79,
        "trial_index": 505,
        "rt": 907,
        "correct": true,
        "response": "ArrowRight",
        "congruent": false,
        "gazeTowards": false,
        "gazeCondition": "away",
        "faceOnLeft": false,
        "impliedDirection": 180,
        "testDirection": 0,
        "avgFps": 360,
        "minFps": 345,
        "maxFps": 385,
        "totalFrames": 326,
        "frameRates": 360
      },
      {
        "trial_number": 80,
        "trial_index": 510,
        "rt": 810,
        "correct": true,
        "response": "ArrowLeft",
        "congruent": false,
        "gazeTowards": false,
        "gazeCondition": "away",
        "faceOnLeft": true,
        "impliedDirection": 0,
        "testDirection": 180,
        "avgFps": 360,
        "minFps": 345,
        "maxFps": 385,
        "totalFrames": 292,
        "frameRates": 360
      },
      {
        "trial_number": 81,
        "trial_index": 515,
        "rt": 1309,
        "correct": true,
        "response": "ArrowLeft",
        "congruent": true,
        "gazeTowards": true,
        "gazeCondition": "towards",
        "faceOnLeft": false,
        "impliedDirection": 180,
        "testDirection": 180,
        "avgFps": 360,
        "minFps": 345,
        "maxFps": 385,
        "totalFrames": 471,
        "frameRates": 360
      },
      {
        "trial_number": 82,
        "trial_index": 520,
        "rt": 806,
        "correct": true,
        "response": "ArrowRight",
        "congruent": false,
        "gazeTowards": false,
        "gazeCondition": "away",
        "faceOnLeft": false,
        "impliedDirection": 180,
        "testDirection": 0,
        "avgFps": 360,
        "minFps": 345,
        "maxFps": 370,
        "totalFrames": 290,
        "frameRates": 360
      },
      {
        "trial_number": 83,
        "trial_index": 525,
        "rt": 727,
        "correct": true,
        "response": "ArrowRight",
        "congruent": true,
        "gazeTowards": false,
        "gazeCondition": "away",
        "faceOnLeft": true,
        "impliedDirection": 0,
        "testDirection": 0,
        "avgFps": 360,
        "minFps": 345,
        "maxFps": 385,
        "totalFrames": 262,
        "frameRates": 360
      },
      {
        "trial_number": 84,
        "trial_index": 530,
        "rt": 830,
        "correct": true,
        "response": "ArrowRight",
        "congruent": true,
        "gazeTowards": false,
        "gazeCondition": "away",
        "faceOnLeft": true,
        "impliedDirection": 0,
        "testDirection": 0,
        "avgFps": 360,
        "minFps": 345,
        "maxFps": 385,
        "totalFrames": 299,
        "frameRates": 360
      },
      {
        "trial_number": 85,
        "trial_index": 535,
        "rt": 892,
        "correct": true,
        "response": "ArrowRight",
        "congruent": false,
        "gazeTowards": true,
        "gazeCondition": "towards",
        "faceOnLeft": false,
        "impliedDirection": 180,
        "testDirection": 0,
        "avgFps": 360,
        "minFps": 345,
        "maxFps": 385,
        "totalFrames": 321,
        "frameRates": 360
      },
      {
        "trial_number": 86,
        "trial_index": 546,
        "rt": 1257,
        "correct": true,
        "response": "ArrowLeft",
        "congruent": true,
        "gazeTowards": true,
        "gazeCondition": "towards",
        "faceOnLeft": false,
        "impliedDirection": 180,
        "testDirection": 180,
        "avgFps": 359,
        "minFps": 169,
        "maxFps": 417,
        "totalFrames": 452,
        "frameRates": 359
      },
      {
        "trial_number": 87,
        "trial_index": 551,
        "rt": 1566,
        "correct": true,
        "response": "ArrowLeft",
        "congruent": true,
        "gazeTowards": false,
        "gazeCondition": "away",
        "faceOnLeft": false,
        "impliedDirection": 180,
        "testDirection": 180,
        "avgFps": 360,
        "minFps": 345,
        "maxFps": 370,
        "totalFrames": 563,
        "frameRates": 360
      },
      {
        "trial_number": 88,
        "trial_index": 556,
        "rt": 1024,
        "correct": true,
        "response": "ArrowRight",
        "congruent": true,
        "gazeTowards": true,
        "gazeCondition": "towards",
        "faceOnLeft": true,
        "impliedDirection": 0,
        "testDirection": 0,
        "avgFps": 360,
        "minFps": 345,
        "maxFps": 370,
        "totalFrames": 369,
        "frameRates": 360
      },
      {
        "trial_number": 89,
        "trial_index": 561,
        "rt": 1308,
        "correct": false,
        "response": "ArrowRight",
        "congruent": false,
        "gazeTowards": true,
        "gazeCondition": "towards",
        "faceOnLeft": true,
        "impliedDirection": 0,
        "testDirection": 180,
        "avgFps": 359,
        "minFps": 164,
        "maxFps": 476,
        "totalFrames": 470,
        "frameRates": 359
      },
      {
        "trial_number": 90,
        "trial_index": 566,
        "rt": 1228,
        "correct": true,
        "response": "ArrowRight",
        "congruent": false,
        "gazeTowards": false,
        "gazeCondition": "away",
        "faceOnLeft": false,
        "impliedDirection": 180,
        "testDirection": 0,
        "avgFps": 360,
        "minFps": 345,
        "maxFps": 385,
        "totalFrames": 442,
        "frameRates": 360
      },
      {
        "trial_number": 91,
        "trial_index": 575,
        "rt": 1550,
        "correct": false,
        "response": "ArrowLeft",
        "congruent": true,
        "gazeTowards": true,
        "gazeCondition": "towards",
        "faceOnLeft": true,
        "impliedDirection": 0,
        "testDirection": 0,
        "avgFps": 359,
        "minFps": 149,
        "maxFps": 667,
        "totalFrames": 557,
        "frameRates": 359
      },
      {
        "trial_number": 92,
        "trial_index": 583,
        "rt": 1153,
        "correct": true,
        "response": "ArrowLeft",
        "congruent": true,
        "gazeTowards": false,
        "gazeCondition": "away",
        "faceOnLeft": false,
        "impliedDirection": 180,
        "testDirection": 180,
        "avgFps": 360,
        "minFps": 345,
        "maxFps": 370,
        "totalFrames": 415,
        "frameRates": 360
      },
      {
        "trial_number": 93,
        "trial_index": 591,
        "rt": 1748,
        "correct": true,
        "response": "ArrowLeft",
        "congruent": true,
        "gazeTowards": true,
        "gazeCondition": "towards",
        "faceOnLeft": false,
        "impliedDirection": 180,
        "testDirection": 180,
        "avgFps": 359,
        "minFps": 172,
        "maxFps": 417,
        "totalFrames": 628,
        "frameRates": 359
      },
      {
        "trial_number": 94,
        "trial_index": 596,
        "rt": 1840,
        "correct": true,
        "response": "ArrowLeft",
        "congruent": false,
        "gazeTowards": false,
        "gazeCondition": "away",
        "faceOnLeft": true,
        "impliedDirection": 0,
        "testDirection": 180,
        "avgFps": 360,
        "minFps": 345,
        "maxFps": 385,
        "totalFrames": 662,
        "frameRates": 360
      },
      {
        "trial_number": 95,
        "trial_index": 601,
        "rt": 977,
        "correct": true,
        "response": "ArrowRight",
        "congruent": false,
        "gazeTowards": true,
        "gazeCondition": "towards",
        "faceOnLeft": false,
        "impliedDirection": 180,
        "testDirection": 0,
        "avgFps": 360,
        "minFps": 345,
        "maxFps": 385,
        "totalFrames": 352,
        "frameRates": 360
      },
      {
        "trial_number": 96,
        "trial_index": 606,
        "rt": 1506,
        "correct": true,
        "response": "ArrowRight",
        "congruent": true,
        "gazeTowards": true,
        "gazeCondition": "towards",
        "faceOnLeft": true,
        "impliedDirection": 0,
        "testDirection": 0,
        "avgFps": 359,
        "minFps": 164,
        "maxFps": 455,
        "totalFrames": 541,
        "frameRates": 359
      },
      {
        "trial_number": 97,
        "trial_index": 611,
        "rt": 1277,
        "correct": true,
        "response": "ArrowLeft",
        "congruent": true,
        "gazeTowards": true,
        "gazeCondition": "towards",
        "faceOnLeft": false,
        "impliedDirection": 180,
        "testDirection": 180,
        "avgFps": 360,
        "minFps": 345,
        "maxFps": 370,
        "totalFrames": 459,
        "frameRates": 360
      },
      {
        "trial_number": 98,
        "trial_index": 616,
        "rt": 954,
        "correct": true,
        "response": "ArrowRight",
        "congruent": true,
        "gazeTowards": false,
        "gazeCondition": "away",
        "faceOnLeft": true,
        "impliedDirection": 0,
        "testDirection": 0,
        "avgFps": 360,
        "minFps": 345,
        "maxFps": 385,
        "totalFrames": 343,
        "frameRates": 360
      },
      {
        "trial_number": 99,
        "trial_index": 621,
        "rt": 1033,
        "correct": true,
        "response": "ArrowRight",
        "congruent": false,
        "gazeTowards": true,
        "gazeCondition": "towards",
        "faceOnLeft": false,
        "impliedDirection": 180,
        "testDirection": 0,
        "avgFps": 360,
        "minFps": 345,
        "maxFps": 370,
        "totalFrames": 372,
        "frameRates": 360
      },
      {
        "trial_number": 100,
        "trial_index": 626,
        "rt": 961,
        "correct": true,
        "response": "ArrowRight",
        "congruent": true,
        "gazeTowards": true,
        "gazeCondition": "towards",
        "faceOnLeft": true,
        "impliedDirection": 0,
        "testDirection": 0,
        "avgFps": 360,
        "minFps": 345,
        "maxFps": 385,
        "totalFrames": 346,
        "frameRates": 360
      },
      {
        "trial_number": 101,
        "trial_index": 631,
        "rt": 1028,
        "correct": true,
        "response": "ArrowLeft",
        "congruent": true,
        "gazeTowards": true,
        "gazeCondition": "towards",
        "faceOnLeft": false,
        "impliedDirection": 180,
        "testDirection": 180,
        "avgFps": 359,
        "minFps": 164,
        "maxFps": 435,
        "totalFrames": 369,
        "frameRates": 359
      },
      {
        "trial_number": 102,
        "trial_index": 636,
        "rt": 999,
        "correct": true,
        "response": "ArrowLeft",
        "congruent": true,
        "gazeTowards": true,
        "gazeCondition": "towards",
        "faceOnLeft": false,
        "impliedDirection": 180,
        "testDirection": 180,
        "avgFps": 359,
        "minFps": 156,
        "maxFps": 526,
        "totalFrames": 359,
        "frameRates": 359
      },
      {
        "trial_number": 103,
        "trial_index": 641,
        "rt": 787,
        "correct": true,
        "response": "ArrowLeft",
        "congruent": true,
        "gazeTowards": false,
        "gazeCondition": "away",
        "faceOnLeft": false,
        "impliedDirection": 180,
        "testDirection": 180,
        "avgFps": 359,
        "minFps": 159,
        "maxFps": 500,
        "totalFrames": 283,
        "frameRates": 359
      },
      {
        "trial_number": 104,
        "trial_index": 646,
        "rt": 762,
        "correct": true,
        "response": "ArrowRight",
        "congruent": true,
        "gazeTowards": false,
        "gazeCondition": "away",
        "faceOnLeft": true,
        "impliedDirection": 0,
        "testDirection": 0,
        "avgFps": 360,
        "minFps": 345,
        "maxFps": 370,
        "totalFrames": 274,
        "frameRates": 360
      },
      {
        "trial_number": 105,
        "trial_index": 651,
        "rt": 753,
        "correct": true,
        "response": "ArrowLeft",
        "congruent": true,
        "gazeTowards": true,
        "gazeCondition": "towards",
        "faceOnLeft": false,
        "impliedDirection": 180,
        "testDirection": 180,
        "avgFps": 360,
        "minFps": 345,
        "maxFps": 370,
        "totalFrames": 271,
        "frameRates": 360
      },
      {
        "trial_number": 106,
        "trial_index": 656,
        "rt": 1327,
        "correct": true,
        "response": "ArrowLeft",
        "congruent": false,
        "gazeTowards": false,
        "gazeCondition": "away",
        "faceOnLeft": true,
        "impliedDirection": 0,
        "testDirection": 180,
        "avgFps": 360,
        "minFps": 345,
        "maxFps": 385,
        "totalFrames": 478,
        "frameRates": 360
      },
      {
        "trial_number": 107,
        "trial_index": 661,
        "rt": 1097,
        "correct": true,
        "response": "ArrowLeft",
        "congruent": true,
        "gazeTowards": true,
        "gazeCondition": "towards",
        "faceOnLeft": false,
        "impliedDirection": 180,
        "testDirection": 180,
        "avgFps": 359,
        "minFps": 167,
        "maxFps": 417,
        "totalFrames": 394,
        "frameRates": 359
      },
      {
        "trial_number": 108,
        "trial_index": 666,
        "rt": 1080,
        "correct": true,
        "response": "ArrowLeft",
        "congruent": true,
        "gazeTowards": false,
        "gazeCondition": "away",
        "faceOnLeft": false,
        "impliedDirection": 180,
        "testDirection": 180,
        "avgFps": 360,
        "minFps": 345,
        "maxFps": 385,
        "totalFrames": 389,
        "frameRates": 360
      },
      {
        "trial_number": 109,
        "trial_index": 671,
        "rt": 1062,
        "correct": true,
        "response": "ArrowLeft",
        "congruent": false,
        "gazeTowards": true,
        "gazeCondition": "towards",
        "faceOnLeft": true,
        "impliedDirection": 0,
        "testDirection": 180,
        "avgFps": 360,
        "minFps": 345,
        "maxFps": 370,
        "totalFrames": 382,
        "frameRates": 360
      },
      {
        "trial_number": 110,
        "trial_index": 676,
        "rt": 1140,
        "correct": true,
        "response": "ArrowRight",
        "congruent": false,
        "gazeTowards": true,
        "gazeCondition": "towards",
        "faceOnLeft": false,
        "impliedDirection": 180,
        "testDirection": 0,
        "avgFps": 360,
        "minFps": 345,
        "maxFps": 385,
        "totalFrames": 410,
        "frameRates": 360
      },
      {
        "trial_number": 111,
        "trial_index": 681,
        "rt": 1629,
        "correct": true,
        "response": "ArrowLeft",
        "congruent": false,
        "gazeTowards": true,
        "gazeCondition": "towards",
        "faceOnLeft": true,
        "impliedDirection": 0,
        "testDirection": 180,
        "avgFps": 360,
        "minFps": 345,
        "maxFps": 385,
        "totalFrames": 586,
        "frameRates": 360
      },
      {
        "trial_number": 112,
        "trial_index": 686,
        "rt": 1681,
        "correct": false,
        "response": "ArrowLeft",
        "congruent": false,
        "gazeTowards": true,
        "gazeCondition": "towards",
        "faceOnLeft": false,
        "impliedDirection": 180,
        "testDirection": 0,
        "avgFps": 360,
        "minFps": 327,
        "maxFps": 385,
        "totalFrames": 604,
        "frameRates": 360
      },
      {
        "trial_number": 113,
        "trial_index": 691,
        "rt": 1187,
        "correct": true,
        "response": "ArrowRight",
        "congruent": false,
        "gazeTowards": false,
        "gazeCondition": "away",
        "faceOnLeft": false,
        "impliedDirection": 180,
        "testDirection": 0,
        "avgFps": 360,
        "minFps": 345,
        "maxFps": 385,
        "totalFrames": 427,
        "frameRates": 360
      },
      {
        "trial_number": 114,
        "trial_index": 696,
        "rt": 942,
        "correct": true,
        "response": "ArrowRight",
        "congruent": false,
        "gazeTowards": false,
        "gazeCondition": "away",
        "faceOnLeft": false,
        "impliedDirection": 180,
        "testDirection": 0,
        "avgFps": 360,
        "minFps": 345,
        "maxFps": 385,
        "totalFrames": 339,
        "frameRates": 360
      },
      {
        "trial_number": 115,
        "trial_index": 701,
        "rt": null,
        "correct": false,
        "response": null,
        "congruent": false,
        "gazeTowards": false,
        "gazeCondition": "away",
        "faceOnLeft": true,
        "impliedDirection": 0,
        "testDirection": 180,
        "avgFps": 359,
        "minFps": 149,
        "maxFps": 625,
        "totalFrames": 719,
        "frameRates": 359
      },
      {
        "trial_number": 116,
        "trial_index": 706,
        "rt": 973,
        "correct": false,
        "response": "ArrowRight",
        "congruent": true,
        "gazeTowards": false,
        "gazeCondition": "away",
        "faceOnLeft": false,
        "impliedDirection": 180,
        "testDirection": 180,
        "avgFps": 360,
        "minFps": 345,
        "maxFps": 385,
        "totalFrames": 350,
        "frameRates": 360
      },
      {
        "trial_number": 117,
        "trial_index": 711,
        "rt": 816,
        "correct": true,
        "response": "ArrowRight",
        "congruent": false,
        "gazeTowards": true,
        "gazeCondition": "towards",
        "faceOnLeft": false,
        "impliedDirection": 180,
        "testDirection": 0,
        "avgFps": 360,
        "minFps": 345,
        "maxFps": 370,
        "totalFrames": 293,
        "frameRates": 360
      },
      {
        "trial_number": 118,
        "trial_index": 716,
        "rt": 1048,
        "correct": true,
        "response": "ArrowLeft",
        "congruent": true,
        "gazeTowards": true,
        "gazeCondition": "towards",
        "faceOnLeft": false,
        "impliedDirection": 180,
        "testDirection": 180,
        "avgFps": 360,
        "minFps": 345,
        "maxFps": 385,
        "totalFrames": 377,
        "frameRates": 360
      },
      {
        "trial_number": 119,
        "trial_index": 721,
        "rt": 737,
        "correct": true,
        "response": "ArrowRight",
        "congruent": false,
        "gazeTowards": true,
        "gazeCondition": "towards",
        "faceOnLeft": false,
        "impliedDirection": 180,
        "testDirection": 0,
        "avgFps": 360,
        "minFps": 345,
        "maxFps": 370,
        "totalFrames": 265,
        "frameRates": 360
      }
    ],
    "catch": {
      "total": 12,
      "correct": 12,
      "accuracy": 100,
      "meanRT": 558,
      "trials": [
        {
          "trial_number": 0,
          "trial_index": 144,
          "rt": 710,
          "correct": true,
          "colorTarget": "face",
          "gazeTowards": false,
          "gazeCondition": "away",
          "faceOnLeft": true
        },
        {
          "trial_number": 1,
          "trial_index": 212,
          "rt": 646,
          "correct": true,
          "colorTarget": "face",
          "gazeTowards": false,
          "gazeCondition": "away",
          "faceOnLeft": false
        },
        {
          "trial_number": 2,
          "trial_index": 220,
          "rt": 629,
          "correct": true,
          "colorTarget": "tree",
          "gazeTowards": true,
          "gazeCondition": "towards",
          "faceOnLeft": true
        },
        {
          "trial_number": 3,
          "trial_index": 238,
          "rt": 573,
          "correct": true,
          "colorTarget": "tree",
          "gazeTowards": false,
          "gazeCondition": "away",
          "faceOnLeft": true
        },
        {
          "trial_number": 4,
          "trial_index": 262,
          "rt": 507,
          "correct": true,
          "colorTarget": "tree",
          "gazeTowards": false,
          "gazeCondition": "away",
          "faceOnLeft": true
        },
        {
          "trial_number": 5,
          "trial_index": 385,
          "rt": 570,
          "correct": true,
          "colorTarget": "face",
          "gazeTowards": true,
          "gazeCondition": "towards",
          "faceOnLeft": true
        },
        {
          "trial_number": 6,
          "trial_index": 539,
          "rt": 672,
          "correct": true,
          "colorTarget": "face",
          "gazeTowards": true,
          "gazeCondition": "towards",
          "faceOnLeft": false
        },
        {
          "trial_number": 7,
          "trial_index": 542,
          "rt": 520,
          "correct": true,
          "colorTarget": "tree",
          "gazeTowards": true,
          "gazeCondition": "towards",
          "faceOnLeft": true
        },
        {
          "trial_number": 8,
          "trial_index": 571,
          "rt": 409,
          "correct": true,
          "colorTarget": "tree",
          "gazeTowards": true,
          "gazeCondition": "towards",
          "faceOnLeft": true
        },
        {
          "trial_number": 9,
          "trial_index": 579,
          "rt": 560,
          "correct": true,
          "colorTarget": "face",
          "gazeTowards": false,
          "gazeCondition": "away",
          "faceOnLeft": false
        },
        {
          "trial_number": 10,
          "trial_index": 587,
          "rt": 497,
          "correct": true,
          "colorTarget": "face",
          "gazeTowards": true,
          "gazeCondition": "towards",
          "faceOnLeft": false
        },
        {
          "trial_number": 11,
          "trial_index": 725,
          "rt": 407,
          "correct": true,
          "colorTarget": "tree",
          "gazeTowards": false,
          "gazeCondition": "away",
          "faceOnLeft": true
        }
      ]
    },
    "practice": {
      "trials": [
        {
          "trial_number": 0,
          "rt": 1820,
          "correct": true,
          "direction": 180
        },
        {
          "trial_number": 1,
          "rt": null,
          "correct": false,
          "direction": 180
        },
        {
          "trial_number": 2,
          "rt": 1129,
          "correct": true,
          "direction": 0
        },
        {
          "trial_number": 3,
          "rt": 1170,
          "correct": false,
          "direction": 0
        },
        {
          "trial_number": 4,
          "rt": 902,
          "correct": true,
          "direction": 180
        },
        {
          "trial_number": 5,
          "rt": 899,
          "correct": true,
          "direction": 0
        },
        {
          "trial_number": 6,
          "rt": 1218,
          "correct": false,
          "direction": 0
        },
        {
          "trial_number": 7,
          "rt": 1364,
          "correct": true,
          "direction": 0
        },
        {
          "trial_number": 8,
          "rt": 894,
          "correct": false,
          "direction": 0
        },
        {
          "trial_number": 9,
          "rt": 937,
          "correct": true,
          "direction": 180
        },
        {
          "trial_number": 10,
          "rt": 861,
          "correct": true,
          "direction": 180
        },
        {
          "trial_number": 11,
          "rt": 978,
          "correct": true,
          "direction": 180
        },
        {
          "trial_number": 12,
          "rt": 560,
          "correct": true,
          "direction": 0
        },
        {
          "trial_number": 13,
          "rt": 762,
          "correct": true,
          "direction": 0
        },
        {
          "trial_number": 14,
          "rt": 672,
          "correct": true,
          "direction": 180
        },
        {
          "trial_number": 15,
          "rt": 711,
          "correct": true,
          "direction": 0
        },
        {
          "trial_number": 16,
          "rt": 945,
          "correct": true,
          "direction": 0
        },
        {
          "trial_number": 17,
          "rt": 1141,
          "correct": true,
          "direction": 0
        },
        {
          "trial_number": 18,
          "rt": 952,
          "correct": true,
          "direction": 0
        },
        {
          "trial_number": 19,
          "rt": 652,
          "correct": true,
          "direction": 180
        }
      ],
      "meanRT": 977,
      "accuracy": 80
    }
  }
}