{
  "experiment": "rdk-face-1",
  "UUID": "85c9006f-e577-43f8-876a-32f1fd799ecb",
  "data": {
    "session": {
      "experiment_version": "1.8.6",
      "treatment": "faces_towards_away_catch",
      "file_version": "1.8.6",
      "totalTrials": 120,
      "totalTrialsIncludingCatch": 132,
      "conditions": {
        "gazeTowardsCount": 60,
        "gazeAwayCount": 60,
        "gazeTowardsAccuracy": 82,
        "gazeAwayAccuracy": 80
      },
      "session_group": "default",
      "browserData": {
        "os": "Windows",
        "browser": "Firefox",
        "screenResolution": "1536x864",
        "browserViewport": "1536x864",
        "devicePixelRatio": 1.25,
        "colorDepth": 24,
        "hardwareConcurrency": 20,
        "deviceMemory": "Unknown",
        "gpuRenderer": "ANGLE (Intel, Intel(R) HD Graphics Direct3D11 vs_5_0 ps_5_0), or similar",
        "measuredRefreshRateHz": 131
      },
      "attention": {
        "visibilityEvents": [
          {
            "event": "focus",
            "state": "focused",
            "timestamp": 1772776646014
          },
          {
            "event": "blur",
            "state": "blurred",
            "timestamp": 1772776648419
          },
          {
            "event": "visibilitychange",
            "state": "hidden",
            "timestamp": 1772776648720
          },
          {
            "event": "focus",
            "state": "focused",
            "timestamp": 1772776650079
          },
          {
            "event": "visibilitychange",
            "state": "visible",
            "timestamp": 1772776650080
          }
        ]
      },
      "calibration": {
        "monitorWidthCm": 38,
        "viewingDistanceCm": 54,
        "pixelsPerDegree": 50
      },
      "parameters": {
        "coherence": 0.4,
        "apertureDeg": 5,
        "densityDotsPerDeg2": 40,
        "dotDiameterDeg": 0.035,
        "dotSpeedDegPerSec": 3,
        "lifetimeMs": 200,
        "fixationDurationMs": 1500,
        "faceDurationMs": 1500,
        "testDurationMs": 2000,
        "catchResponseMs": 3000
      },
      "prolific": {
        "prolificPid": "666a0284ef0ac35dcf4f5e17",
        "studyId": "",
        "sessionId": ""
      },
      "timing": {
        "startTime": "2026-03-06T05:57:26.007Z",
        "endTime": "2026-03-06T06:10:52.974Z",
        "totalElapsedTimeMs": 806967
      }
    },
    "trials": [
      {
        "trial_number": 0,
        "trial_index": 49,
        "rt": 1010,
        "correct": true,
        "response": "ArrowLeft",
        "congruent": true,
        "gazeTowards": false,
        "gazeCondition": "away",
        "faceOnLeft": false,
        "impliedDirection": 180,
        "testDirection": 180,
        "avgFps": 144,
        "minFps": 77,
        "maxFps": 2778,
        "totalFrames": 145,
        "frameRates": 144
      },
      {
        "trial_number": 1,
        "trial_index": 57,
        "rt": 1006,
        "correct": true,
        "response": "ArrowRight",
        "congruent": true,
        "gazeTowards": true,
        "gazeCondition": "towards",
        "faceOnLeft": true,
        "impliedDirection": 0,
        "testDirection": 0,
        "avgFps": 144,
        "minFps": 75,
        "maxFps": 2381,
        "totalFrames": 144,
        "frameRates": 144
      },
      {
        "trial_number": 2,
        "trial_index": 62,
        "rt": 889,
        "correct": true,
        "response": "ArrowRight",
        "congruent": true,
        "gazeTowards": true,
        "gazeCondition": "towards",
        "faceOnLeft": true,
        "impliedDirection": 0,
        "testDirection": 0,
        "avgFps": 144,
        "minFps": 75,
        "maxFps": 1471,
        "totalFrames": 127,
        "frameRates": 144
      },
      {
        "trial_number": 3,
        "trial_index": 67,
        "rt": 1065,
        "correct": true,
        "response": "ArrowLeft",
        "congruent": true,
        "gazeTowards": false,
        "gazeCondition": "away",
        "faceOnLeft": false,
        "impliedDirection": 180,
        "testDirection": 180,
        "avgFps": 144,
        "minFps": 76,
        "maxFps": 3333,
        "totalFrames": 153,
        "frameRates": 144
      },
      {
        "trial_number": 4,
        "trial_index": 72,
        "rt": 928,
        "correct": false,
        "response": "ArrowRight",
        "congruent": false,
        "gazeTowards": true,
        "gazeCondition": "towards",
        "faceOnLeft": true,
        "impliedDirection": 0,
        "testDirection": 180,
        "avgFps": 144,
        "minFps": 77,
        "maxFps": 1852,
        "totalFrames": 133,
        "frameRates": 144
      },
      {
        "trial_number": 5,
        "trial_index": 77,
        "rt": 1019,
        "correct": true,
        "response": "ArrowLeft",
        "congruent": false,
        "gazeTowards": false,
        "gazeCondition": "away",
        "faceOnLeft": true,
        "impliedDirection": 0,
        "testDirection": 180,
        "avgFps": 144,
        "minFps": 75,
        "maxFps": 2381,
        "totalFrames": 146,
        "frameRates": 144
      },
      {
        "trial_number": 6,
        "trial_index": 82,
        "rt": 717,
        "correct": true,
        "response": "ArrowRight",
        "congruent": false,
        "gazeTowards": false,
        "gazeCondition": "away",
        "faceOnLeft": false,
        "impliedDirection": 180,
        "testDirection": 0,
        "avgFps": 144,
        "minFps": 75,
        "maxFps": 2941,
        "totalFrames": 103,
        "frameRates": 144
      },
      {
        "trial_number": 7,
        "trial_index": 87,
        "rt": 975,
        "correct": true,
        "response": "ArrowRight",
        "congruent": true,
        "gazeTowards": true,
        "gazeCondition": "towards",
        "faceOnLeft": true,
        "impliedDirection": 0,
        "testDirection": 0,
        "avgFps": 144,
        "minFps": 75,
        "maxFps": 5556,
        "totalFrames": 140,
        "frameRates": 144
      },
      {
        "trial_number": 8,
        "trial_index": 92,
        "rt": 1100,
        "correct": true,
        "response": "ArrowRight",
        "congruent": true,
        "gazeTowards": false,
        "gazeCondition": "away",
        "faceOnLeft": true,
        "impliedDirection": 0,
        "testDirection": 0,
        "avgFps": 145,
        "minFps": 144,
        "maxFps": 2941,
        "totalFrames": 159,
        "frameRates": 145
      },
      {
        "trial_number": 9,
        "trial_index": 97,
        "rt": 907,
        "correct": true,
        "response": "ArrowLeft",
        "congruent": true,
        "gazeTowards": false,
        "gazeCondition": "away",
        "faceOnLeft": false,
        "impliedDirection": 180,
        "testDirection": 180,
        "avgFps": 144,
        "minFps": 75,
        "maxFps": 1923,
        "totalFrames": 130,
        "frameRates": 144
      },
      {
        "trial_number": 10,
        "trial_index": 102,
        "rt": 720,
        "correct": true,
        "response": "ArrowRight",
        "congruent": true,
        "gazeTowards": true,
        "gazeCondition": "towards",
        "faceOnLeft": true,
        "impliedDirection": 0,
        "testDirection": 0,
        "avgFps": 144,
        "minFps": 76,
        "maxFps": 3125,
        "totalFrames": 103,
        "frameRates": 144
      },
      {
        "trial_number": 11,
        "trial_index": 107,
        "rt": 815,
        "correct": true,
        "response": "ArrowLeft",
        "congruent": false,
        "gazeTowards": true,
        "gazeCondition": "towards",
        "faceOnLeft": true,
        "impliedDirection": 0,
        "testDirection": 180,
        "avgFps": 145,
        "minFps": 109,
        "maxFps": 4167,
        "totalFrames": 118,
        "frameRates": 145
      },
      {
        "trial_number": 12,
        "trial_index": 112,
        "rt": 734,
        "correct": true,
        "response": "ArrowRight",
        "congruent": false,
        "gazeTowards": true,
        "gazeCondition": "towards",
        "faceOnLeft": false,
        "impliedDirection": 180,
        "testDirection": 0,
        "avgFps": 144,
        "minFps": 76,
        "maxFps": 833,
        "totalFrames": 105,
        "frameRates": 144
      },
      {
        "trial_number": 13,
        "trial_index": 117,
        "rt": 722,
        "correct": true,
        "response": "ArrowLeft",
        "congruent": true,
        "gazeTowards": true,
        "gazeCondition": "towards",
        "faceOnLeft": false,
        "impliedDirection": 180,
        "testDirection": 180,
        "avgFps": 146,
        "minFps": 144,
        "maxFps": 2273,
        "totalFrames": 104,
        "frameRates": 146
      },
      {
        "trial_number": 14,
        "trial_index": 122,
        "rt": 1003,
        "correct": false,
        "response": "ArrowLeft",
        "congruent": false,
        "gazeTowards": true,
        "gazeCondition": "towards",
        "faceOnLeft": false,
        "impliedDirection": 180,
        "testDirection": 0,
        "avgFps": 143,
        "minFps": 50,
        "maxFps": 1613,
        "totalFrames": 143,
        "frameRates": 143
      },
      {
        "trial_number": 15,
        "trial_index": 127,
        "rt": 962,
        "correct": false,
        "response": "ArrowRight",
        "congruent": true,
        "gazeTowards": true,
        "gazeCondition": "towards",
        "faceOnLeft": false,
        "impliedDirection": 180,
        "testDirection": 180,
        "avgFps": 144,
        "minFps": 76,
        "maxFps": 1786,
        "totalFrames": 138,
        "frameRates": 144
      },
      {
        "trial_number": 16,
        "trial_index": 132,
        "rt": 1049,
        "correct": true,
        "response": "ArrowRight",
        "congruent": false,
        "gazeTowards": true,
        "gazeCondition": "towards",
        "faceOnLeft": false,
        "impliedDirection": 180,
        "testDirection": 0,
        "avgFps": 144,
        "minFps": 76,
        "maxFps": 2500,
        "totalFrames": 151,
        "frameRates": 144
      },
      {
        "trial_number": 17,
        "trial_index": 137,
        "rt": 1026,
        "correct": true,
        "response": "ArrowRight",
        "congruent": false,
        "gazeTowards": false,
        "gazeCondition": "away",
        "faceOnLeft": false,
        "impliedDirection": 180,
        "testDirection": 0,
        "avgFps": 144,
        "minFps": 71,
        "maxFps": 1163,
        "totalFrames": 147,
        "frameRates": 144
      },
      {
        "trial_number": 18,
        "trial_index": 142,
        "rt": 972,
        "correct": true,
        "response": "ArrowLeft",
        "congruent": true,
        "gazeTowards": true,
        "gazeCondition": "towards",
        "faceOnLeft": false,
        "impliedDirection": 180,
        "testDirection": 180,
        "avgFps": 144,
        "minFps": 77,
        "maxFps": 2778,
        "totalFrames": 139,
        "frameRates": 144
      },
      {
        "trial_number": 19,
        "trial_index": 147,
        "rt": 927,
        "correct": true,
        "response": "ArrowRight",
        "congruent": false,
        "gazeTowards": true,
        "gazeCondition": "towards",
        "faceOnLeft": false,
        "impliedDirection": 180,
        "testDirection": 0,
        "avgFps": 145,
        "minFps": 144,
        "maxFps": 694,
        "totalFrames": 134,
        "frameRates": 145
      },
      {
        "trial_number": 20,
        "trial_index": 152,
        "rt": 864,
        "correct": true,
        "response": "ArrowLeft",
        "congruent": true,
        "gazeTowards": false,
        "gazeCondition": "away",
        "faceOnLeft": false,
        "impliedDirection": 180,
        "testDirection": 180,
        "avgFps": 143,
        "minFps": 72,
        "maxFps": 2381,
        "totalFrames": 123,
        "frameRates": 143
      },
      {
        "trial_number": 21,
        "trial_index": 157,
        "rt": 930,
        "correct": true,
        "response": "ArrowLeft",
        "congruent": true,
        "gazeTowards": true,
        "gazeCondition": "towards",
        "faceOnLeft": false,
        "impliedDirection": 180,
        "testDirection": 180,
        "avgFps": 144,
        "minFps": 76,
        "maxFps": 3571,
        "totalFrames": 133,
        "frameRates": 144
      },
      {
        "trial_number": 22,
        "trial_index": 162,
        "rt": 824,
        "correct": true,
        "response": "ArrowRight",
        "congruent": false,
        "gazeTowards": true,
        "gazeCondition": "towards",
        "faceOnLeft": false,
        "impliedDirection": 180,
        "testDirection": 0,
        "avgFps": 145,
        "minFps": 144,
        "maxFps": 2778,
        "totalFrames": 119,
        "frameRates": 145
      },
      {
        "trial_number": 23,
        "trial_index": 167,
        "rt": 904,
        "correct": true,
        "response": "ArrowLeft",
        "congruent": false,
        "gazeTowards": true,
        "gazeCondition": "towards",
        "faceOnLeft": true,
        "impliedDirection": 0,
        "testDirection": 180,
        "avgFps": 144,
        "minFps": 76,
        "maxFps": 1389,
        "totalFrames": 130,
        "frameRates": 144
      },
      {
        "trial_number": 24,
        "trial_index": 172,
        "rt": 1058,
        "correct": true,
        "response": "ArrowRight",
        "congruent": true,
        "gazeTowards": false,
        "gazeCondition": "away",
        "faceOnLeft": true,
        "impliedDirection": 0,
        "testDirection": 0,
        "avgFps": 145,
        "minFps": 137,
        "maxFps": 2174,
        "totalFrames": 153,
        "frameRates": 145
      },
      {
        "trial_number": 25,
        "trial_index": 177,
        "rt": 801,
        "correct": true,
        "response": "ArrowRight",
        "congruent": false,
        "gazeTowards": false,
        "gazeCondition": "away",
        "faceOnLeft": false,
        "impliedDirection": 180,
        "testDirection": 0,
        "avgFps": 140,
        "minFps": 29,
        "maxFps": 3571,
        "totalFrames": 112,
        "frameRates": 140
      },
      {
        "trial_number": 26,
        "trial_index": 182,
        "rt": 1042,
        "correct": true,
        "response": "ArrowLeft",
        "congruent": false,
        "gazeTowards": true,
        "gazeCondition": "towards",
        "faceOnLeft": true,
        "impliedDirection": 0,
        "testDirection": 180,
        "avgFps": 144,
        "minFps": 76,
        "maxFps": 1613,
        "totalFrames": 150,
        "frameRates": 144
      },
      {
        "trial_number": 27,
        "trial_index": 187,
        "rt": 892,
        "correct": true,
        "response": "ArrowLeft",
        "congruent": false,
        "gazeTowards": false,
        "gazeCondition": "away",
        "faceOnLeft": true,
        "impliedDirection": 0,
        "testDirection": 180,
        "avgFps": 144,
        "minFps": 76,
        "maxFps": 2500,
        "totalFrames": 128,
        "frameRates": 144
      },
      {
        "trial_number": 28,
        "trial_index": 192,
        "rt": 809,
        "correct": true,
        "response": "ArrowRight",
        "congruent": false,
        "gazeTowards": false,
        "gazeCondition": "away",
        "faceOnLeft": false,
        "impliedDirection": 180,
        "testDirection": 0,
        "avgFps": 144,
        "minFps": 76,
        "maxFps": 4545,
        "totalFrames": 116,
        "frameRates": 144
      },
      {
        "trial_number": 29,
        "trial_index": 197,
        "rt": 926,
        "correct": true,
        "response": "ArrowLeft",
        "congruent": false,
        "gazeTowards": true,
        "gazeCondition": "towards",
        "faceOnLeft": true,
        "impliedDirection": 0,
        "testDirection": 180,
        "avgFps": 143,
        "minFps": 49,
        "maxFps": 2500,
        "totalFrames": 132,
        "frameRates": 143
      },
      {
        "trial_number": 30,
        "trial_index": 202,
        "rt": 809,
        "correct": true,
        "response": "ArrowLeft",
        "congruent": true,
        "gazeTowards": false,
        "gazeCondition": "away",
        "faceOnLeft": false,
        "impliedDirection": 180,
        "testDirection": 180,
        "avgFps": 145,
        "minFps": 94,
        "maxFps": 1852,
        "totalFrames": 116,
        "frameRates": 145
      },
      {
        "trial_number": 31,
        "trial_index": 207,
        "rt": 823,
        "correct": true,
        "response": "ArrowRight",
        "congruent": true,
        "gazeTowards": false,
        "gazeCondition": "away",
        "faceOnLeft": true,
        "impliedDirection": 0,
        "testDirection": 0,
        "avgFps": 144,
        "minFps": 75,
        "maxFps": 2632,
        "totalFrames": 118,
        "frameRates": 144
      },
      {
        "trial_number": 32,
        "trial_index": 213,
        "rt": 915,
        "correct": true,
        "response": "ArrowRight",
        "congruent": false,
        "gazeTowards": true,
        "gazeCondition": "towards",
        "faceOnLeft": false,
        "impliedDirection": 180,
        "testDirection": 0,
        "avgFps": 144,
        "minFps": 76,
        "maxFps": 2273,
        "totalFrames": 131,
        "frameRates": 144
      },
      {
        "trial_number": 33,
        "trial_index": 218,
        "rt": 889,
        "correct": true,
        "response": "ArrowRight",
        "congruent": false,
        "gazeTowards": true,
        "gazeCondition": "towards",
        "faceOnLeft": false,
        "impliedDirection": 180,
        "testDirection": 0,
        "avgFps": 145,
        "minFps": 108,
        "maxFps": 2381,
        "totalFrames": 128,
        "frameRates": 145
      },
      {
        "trial_number": 34,
        "trial_index": 223,
        "rt": 781,
        "correct": true,
        "response": "ArrowLeft",
        "congruent": true,
        "gazeTowards": false,
        "gazeCondition": "away",
        "faceOnLeft": false,
        "impliedDirection": 180,
        "testDirection": 180,
        "avgFps": 144,
        "minFps": 76,
        "maxFps": 2381,
        "totalFrames": 112,
        "frameRates": 144
      },
      {
        "trial_number": 35,
        "trial_index": 228,
        "rt": 931,
        "correct": true,
        "response": "ArrowRight",
        "congruent": true,
        "gazeTowards": true,
        "gazeCondition": "towards",
        "faceOnLeft": true,
        "impliedDirection": 0,
        "testDirection": 0,
        "avgFps": 142,
        "minFps": 41,
        "maxFps": 1613,
        "totalFrames": 132,
        "frameRates": 142
      },
      {
        "trial_number": 36,
        "trial_index": 233,
        "rt": 917,
        "correct": true,
        "response": "ArrowRight",
        "congruent": true,
        "gazeTowards": true,
        "gazeCondition": "towards",
        "faceOnLeft": true,
        "impliedDirection": 0,
        "testDirection": 0,
        "avgFps": 144,
        "minFps": 76,
        "maxFps": 1724,
        "totalFrames": 132,
        "frameRates": 144
      },
      {
        "trial_number": 37,
        "trial_index": 238,
        "rt": 827,
        "correct": true,
        "response": "ArrowRight",
        "congruent": false,
        "gazeTowards": true,
        "gazeCondition": "towards",
        "faceOnLeft": false,
        "impliedDirection": 180,
        "testDirection": 0,
        "avgFps": 144,
        "minFps": 76,
        "maxFps": 1786,
        "totalFrames": 119,
        "frameRates": 144
      },
      {
        "trial_number": 38,
        "trial_index": 243,
        "rt": 1125,
        "correct": true,
        "response": "ArrowLeft",
        "congruent": true,
        "gazeTowards": true,
        "gazeCondition": "towards",
        "faceOnLeft": false,
        "impliedDirection": 180,
        "testDirection": 180,
        "avgFps": 146,
        "minFps": 144,
        "maxFps": 1562,
        "totalFrames": 163,
        "frameRates": 146
      },
      {
        "trial_number": 39,
        "trial_index": 248,
        "rt": 666,
        "correct": true,
        "response": "ArrowRight",
        "congruent": true,
        "gazeTowards": true,
        "gazeCondition": "towards",
        "faceOnLeft": true,
        "impliedDirection": 0,
        "testDirection": 0,
        "avgFps": 142,
        "minFps": 40,
        "maxFps": 3571,
        "totalFrames": 94,
        "frameRates": 142
      },
      {
        "trial_number": 40,
        "trial_index": 253,
        "rt": 1124,
        "correct": true,
        "response": "ArrowRight",
        "congruent": false,
        "gazeTowards": false,
        "gazeCondition": "away",
        "faceOnLeft": false,
        "impliedDirection": 180,
        "testDirection": 0,
        "avgFps": 144,
        "minFps": 75,
        "maxFps": 1852,
        "totalFrames": 161,
        "frameRates": 144
      },
      {
        "trial_number": 41,
        "trial_index": 258,
        "rt": 872,
        "correct": true,
        "response": "ArrowLeft",
        "congruent": true,
        "gazeTowards": false,
        "gazeCondition": "away",
        "faceOnLeft": false,
        "impliedDirection": 180,
        "testDirection": 180,
        "avgFps": 144,
        "minFps": 76,
        "maxFps": 3333,
        "totalFrames": 125,
        "frameRates": 144
      },
      {
        "trial_number": 42,
        "trial_index": 263,
        "rt": 1016,
        "correct": true,
        "response": "ArrowRight",
        "congruent": false,
        "gazeTowards": true,
        "gazeCondition": "towards",
        "faceOnLeft": false,
        "impliedDirection": 180,
        "testDirection": 0,
        "avgFps": 144,
        "minFps": 76,
        "maxFps": 3125,
        "totalFrames": 146,
        "frameRates": 144
      },
      {
        "trial_number": 43,
        "trial_index": 268,
        "rt": 1002,
        "correct": true,
        "response": "ArrowLeft",
        "congruent": false,
        "gazeTowards": true,
        "gazeCondition": "towards",
        "faceOnLeft": true,
        "impliedDirection": 0,
        "testDirection": 180,
        "avgFps": 144,
        "minFps": 76,
        "maxFps": 2083,
        "totalFrames": 144,
        "frameRates": 144
      },
      {
        "trial_number": 44,
        "trial_index": 273,
        "rt": 724,
        "correct": true,
        "response": "ArrowRight",
        "congruent": true,
        "gazeTowards": false,
        "gazeCondition": "away",
        "faceOnLeft": true,
        "impliedDirection": 0,
        "testDirection": 0,
        "avgFps": 144,
        "minFps": 76,
        "maxFps": 2381,
        "totalFrames": 104,
        "frameRates": 144
      },
      {
        "trial_number": 45,
        "trial_index": 281,
        "rt": 696,
        "correct": true,
        "response": "ArrowLeft",
        "congruent": true,
        "gazeTowards": true,
        "gazeCondition": "towards",
        "faceOnLeft": false,
        "impliedDirection": 180,
        "testDirection": 180,
        "avgFps": 144,
        "minFps": 76,
        "maxFps": 1923,
        "totalFrames": 100,
        "frameRates": 144
      },
      {
        "trial_number": 46,
        "trial_index": 286,
        "rt": 682,
        "correct": true,
        "response": "ArrowRight",
        "congruent": false,
        "gazeTowards": false,
        "gazeCondition": "away",
        "faceOnLeft": false,
        "impliedDirection": 180,
        "testDirection": 0,
        "avgFps": 144,
        "minFps": 76,
        "maxFps": 3571,
        "totalFrames": 98,
        "frameRates": 144
      },
      {
        "trial_number": 47,
        "trial_index": 294,
        "rt": 740,
        "correct": false,
        "response": "ArrowRight",
        "congruent": false,
        "gazeTowards": true,
        "gazeCondition": "towards",
        "faceOnLeft": true,
        "impliedDirection": 0,
        "testDirection": 180,
        "avgFps": 144,
        "minFps": 76,
        "maxFps": 7143,
        "totalFrames": 106,
        "frameRates": 144
      },
      {
        "trial_number": 48,
        "trial_index": 302,
        "rt": 732,
        "correct": true,
        "response": "ArrowRight",
        "congruent": false,
        "gazeTowards": false,
        "gazeCondition": "away",
        "faceOnLeft": false,
        "impliedDirection": 180,
        "testDirection": 0,
        "avgFps": 145,
        "minFps": 144,
        "maxFps": 1613,
        "totalFrames": 106,
        "frameRates": 145
      },
      {
        "trial_number": 49,
        "trial_index": 307,
        "rt": 1238,
        "correct": false,
        "response": "ArrowRight",
        "congruent": false,
        "gazeTowards": true,
        "gazeCondition": "towards",
        "faceOnLeft": true,
        "impliedDirection": 0,
        "testDirection": 180,
        "avgFps": 144,
        "minFps": 76,
        "maxFps": 1515,
        "totalFrames": 178,
        "frameRates": 144
      },
      {
        "trial_number": 50,
        "trial_index": 312,
        "rt": 820,
        "correct": true,
        "response": "ArrowRight",
        "congruent": false,
        "gazeTowards": true,
        "gazeCondition": "towards",
        "faceOnLeft": false,
        "impliedDirection": 180,
        "testDirection": 0,
        "avgFps": 143,
        "minFps": 72,
        "maxFps": 2083,
        "totalFrames": 117,
        "frameRates": 143
      },
      {
        "trial_number": 51,
        "trial_index": 317,
        "rt": 765,
        "correct": true,
        "response": "ArrowLeft",
        "congruent": false,
        "gazeTowards": false,
        "gazeCondition": "away",
        "faceOnLeft": true,
        "impliedDirection": 0,
        "testDirection": 180,
        "avgFps": 144,
        "minFps": 76,
        "maxFps": 3125,
        "totalFrames": 110,
        "frameRates": 144
      },
      {
        "trial_number": 52,
        "trial_index": 322,
        "rt": 1294,
        "correct": false,
        "response": "ArrowRight",
        "congruent": true,
        "gazeTowards": false,
        "gazeCondition": "away",
        "faceOnLeft": false,
        "impliedDirection": 180,
        "testDirection": 180,
        "avgFps": 145,
        "minFps": 144,
        "maxFps": 862,
        "totalFrames": 187,
        "frameRates": 145
      },
      {
        "trial_number": 53,
        "trial_index": 327,
        "rt": 912,
        "correct": false,
        "response": "ArrowRight",
        "congruent": true,
        "gazeTowards": true,
        "gazeCondition": "towards",
        "faceOnLeft": false,
        "impliedDirection": 180,
        "testDirection": 180,
        "avgFps": 144,
        "minFps": 76,
        "maxFps": 1471,
        "totalFrames": 131,
        "frameRates": 144
      },
      {
        "trial_number": 54,
        "trial_index": 332,
        "rt": 809,
        "correct": true,
        "response": "ArrowRight",
        "congruent": true,
        "gazeTowards": true,
        "gazeCondition": "towards",
        "faceOnLeft": true,
        "impliedDirection": 0,
        "testDirection": 0,
        "avgFps": 144,
        "minFps": 75,
        "maxFps": 962,
        "totalFrames": 116,
        "frameRates": 144
      },
      {
        "trial_number": 55,
        "trial_index": 337,
        "rt": 797,
        "correct": true,
        "response": "ArrowLeft",
        "congruent": true,
        "gazeTowards": false,
        "gazeCondition": "away",
        "faceOnLeft": false,
        "impliedDirection": 180,
        "testDirection": 180,
        "avgFps": 144,
        "minFps": 76,
        "maxFps": 1562,
        "totalFrames": 115,
        "frameRates": 144
      },
      {
        "trial_number": 56,
        "trial_index": 342,
        "rt": 636,
        "correct": true,
        "response": "ArrowRight",
        "congruent": false,
        "gazeTowards": false,
        "gazeCondition": "away",
        "faceOnLeft": false,
        "impliedDirection": 180,
        "testDirection": 0,
        "avgFps": 144,
        "minFps": 76,
        "maxFps": 2941,
        "totalFrames": 91,
        "frameRates": 144
      },
      {
        "trial_number": 57,
        "trial_index": 347,
        "rt": 802,
        "correct": true,
        "response": "ArrowLeft",
        "congruent": true,
        "gazeTowards": true,
        "gazeCondition": "towards",
        "faceOnLeft": false,
        "impliedDirection": 180,
        "testDirection": 180,
        "avgFps": 144,
        "minFps": 76,
        "maxFps": 1351,
        "totalFrames": 115,
        "frameRates": 144
      },
      {
        "trial_number": 58,
        "trial_index": 355,
        "rt": 725,
        "correct": true,
        "response": "ArrowRight",
        "congruent": false,
        "gazeTowards": false,
        "gazeCondition": "away",
        "faceOnLeft": false,
        "impliedDirection": 180,
        "testDirection": 0,
        "avgFps": 144,
        "minFps": 73,
        "maxFps": 1042,
        "totalFrames": 104,
        "frameRates": 144
      },
      {
        "trial_number": 59,
        "trial_index": 360,
        "rt": 1381,
        "correct": true,
        "response": "ArrowLeft",
        "congruent": false,
        "gazeTowards": true,
        "gazeCondition": "towards",
        "faceOnLeft": true,
        "impliedDirection": 0,
        "testDirection": 180,
        "avgFps": 144,
        "minFps": 75,
        "maxFps": 1613,
        "totalFrames": 198,
        "frameRates": 144
      },
      {
        "trial_number": 60,
        "trial_index": 365,
        "rt": 772,
        "correct": true,
        "response": "ArrowLeft",
        "congruent": false,
        "gazeTowards": false,
        "gazeCondition": "away",
        "faceOnLeft": true,
        "impliedDirection": 0,
        "testDirection": 180,
        "avgFps": 144,
        "minFps": 75,
        "maxFps": 1389,
        "totalFrames": 111,
        "frameRates": 144
      },
      {
        "trial_number": 61,
        "trial_index": 371,
        "rt": 694,
        "correct": true,
        "response": "ArrowRight",
        "congruent": false,
        "gazeTowards": false,
        "gazeCondition": "away",
        "faceOnLeft": false,
        "impliedDirection": 180,
        "testDirection": 0,
        "avgFps": 144,
        "minFps": 75,
        "maxFps": 1923,
        "totalFrames": 100,
        "frameRates": 144
      },
      {
        "trial_number": 62,
        "trial_index": 376,
        "rt": 1479,
        "correct": true,
        "response": "ArrowLeft",
        "congruent": true,
        "gazeTowards": true,
        "gazeCondition": "towards",
        "faceOnLeft": false,
        "impliedDirection": 180,
        "testDirection": 180,
        "avgFps": 144,
        "minFps": 74,
        "maxFps": 602,
        "totalFrames": 212,
        "frameRates": 144
      },
      {
        "trial_number": 63,
        "trial_index": 384,
        "rt": 1176,
        "correct": true,
        "response": "ArrowRight",
        "congruent": false,
        "gazeTowards": false,
        "gazeCondition": "away",
        "faceOnLeft": false,
        "impliedDirection": 180,
        "testDirection": 0,
        "avgFps": 144,
        "minFps": 76,
        "maxFps": 1064,
        "totalFrames": 169,
        "frameRates": 144
      },
      {
        "trial_number": 64,
        "trial_index": 389,
        "rt": 993,
        "correct": true,
        "response": "ArrowRight",
        "congruent": true,
        "gazeTowards": true,
        "gazeCondition": "towards",
        "faceOnLeft": true,
        "impliedDirection": 0,
        "testDirection": 0,
        "avgFps": 144,
        "minFps": 76,
        "maxFps": 2941,
        "totalFrames": 142,
        "frameRates": 144
      },
      {
        "trial_number": 65,
        "trial_index": 394,
        "rt": 991,
        "correct": true,
        "response": "ArrowRight",
        "congruent": false,
        "gazeTowards": false,
        "gazeCondition": "away",
        "faceOnLeft": false,
        "impliedDirection": 180,
        "testDirection": 0,
        "avgFps": 144,
        "minFps": 75,
        "maxFps": 1786,
        "totalFrames": 142,
        "frameRates": 144
      },
      {
        "trial_number": 66,
        "trial_index": 399,
        "rt": 1130,
        "correct": true,
        "response": "ArrowRight",
        "congruent": true,
        "gazeTowards": false,
        "gazeCondition": "away",
        "faceOnLeft": true,
        "impliedDirection": 0,
        "testDirection": 0,
        "avgFps": 144,
        "minFps": 82,
        "maxFps": 1220,
        "totalFrames": 162,
        "frameRates": 144
      },
      {
        "trial_number": 67,
        "trial_index": 404,
        "rt": 915,
        "correct": true,
        "response": "ArrowRight",
        "congruent": false,
        "gazeTowards": true,
        "gazeCondition": "towards",
        "faceOnLeft": false,
        "impliedDirection": 180,
        "testDirection": 0,
        "avgFps": 144,
        "minFps": 76,
        "maxFps": 2632,
        "totalFrames": 131,
        "frameRates": 144
      },
      {
        "trial_number": 68,
        "trial_index": 409,
        "rt": 1026,
        "correct": true,
        "response": "ArrowLeft",
        "congruent": false,
        "gazeTowards": true,
        "gazeCondition": "towards",
        "faceOnLeft": true,
        "impliedDirection": 0,
        "testDirection": 180,
        "avgFps": 144,
        "minFps": 75,
        "maxFps": 3846,
        "totalFrames": 147,
        "frameRates": 144
      },
      {
        "trial_number": 69,
        "trial_index": 414,
        "rt": 1046,
        "correct": false,
        "response": "ArrowRight",
        "congruent": false,
        "gazeTowards": false,
        "gazeCondition": "away",
        "faceOnLeft": true,
        "impliedDirection": 0,
        "testDirection": 180,
        "avgFps": 144,
        "minFps": 75,
        "maxFps": 2273,
        "totalFrames": 150,
        "frameRates": 144
      },
      {
        "trial_number": 70,
        "trial_index": 419,
        "rt": 1753,
        "correct": false,
        "response": "ArrowLeft",
        "congruent": true,
        "gazeTowards": false,
        "gazeCondition": "away",
        "faceOnLeft": true,
        "impliedDirection": 0,
        "testDirection": 0,
        "avgFps": 144,
        "minFps": 48,
        "maxFps": 4167,
        "totalFrames": 251,
        "frameRates": 144
      },
      {
        "trial_number": 71,
        "trial_index": 424,
        "rt": 1474,
        "correct": true,
        "response": "ArrowRight",
        "congruent": true,
        "gazeTowards": true,
        "gazeCondition": "towards",
        "faceOnLeft": true,
        "impliedDirection": 0,
        "testDirection": 0,
        "avgFps": 144,
        "minFps": 76,
        "maxFps": 1724,
        "totalFrames": 212,
        "frameRates": 144
      },
      {
        "trial_number": 72,
        "trial_index": 429,
        "rt": 954,
        "correct": false,
        "response": "ArrowLeft",
        "congruent": true,
        "gazeTowards": false,
        "gazeCondition": "away",
        "faceOnLeft": true,
        "impliedDirection": 0,
        "testDirection": 0,
        "avgFps": 144,
        "minFps": 72,
        "maxFps": 1111,
        "totalFrames": 137,
        "frameRates": 144
      },
      {
        "trial_number": 73,
        "trial_index": 434,
        "rt": 949,
        "correct": true,
        "response": "ArrowRight",
        "congruent": false,
        "gazeTowards": false,
        "gazeCondition": "away",
        "faceOnLeft": false,
        "impliedDirection": 180,
        "testDirection": 0,
        "avgFps": 144,
        "minFps": 76,
        "maxFps": 2273,
        "totalFrames": 136,
        "frameRates": 144
      },
      {
        "trial_number": 74,
        "trial_index": 439,
        "rt": 974,
        "correct": true,
        "response": "ArrowRight",
        "congruent": false,
        "gazeTowards": false,
        "gazeCondition": "away",
        "faceOnLeft": false,
        "impliedDirection": 180,
        "testDirection": 0,
        "avgFps": 144,
        "minFps": 76,
        "maxFps": 1562,
        "totalFrames": 140,
        "frameRates": 144
      },
      {
        "trial_number": 75,
        "trial_index": 444,
        "rt": 1185,
        "correct": false,
        "response": "ArrowLeft",
        "congruent": false,
        "gazeTowards": false,
        "gazeCondition": "away",
        "faceOnLeft": false,
        "impliedDirection": 180,
        "testDirection": 0,
        "avgFps": 145,
        "minFps": 144,
        "maxFps": 3571,
        "totalFrames": 171,
        "frameRates": 145
      },
      {
        "trial_number": 76,
        "trial_index": 449,
        "rt": 1243,
        "correct": true,
        "response": "ArrowLeft",
        "congruent": true,
        "gazeTowards": false,
        "gazeCondition": "away",
        "faceOnLeft": false,
        "impliedDirection": 180,
        "testDirection": 180,
        "avgFps": 143,
        "minFps": 50,
        "maxFps": 2941,
        "totalFrames": 178,
        "frameRates": 143
      },
      {
        "trial_number": 77,
        "trial_index": 454,
        "rt": 1072,
        "correct": true,
        "response": "ArrowLeft",
        "congruent": false,
        "gazeTowards": false,
        "gazeCondition": "away",
        "faceOnLeft": true,
        "impliedDirection": 0,
        "testDirection": 180,
        "avgFps": 144,
        "minFps": 76,
        "maxFps": 2941,
        "totalFrames": 154,
        "frameRates": 144
      },
      {
        "trial_number": 78,
        "trial_index": 459,
        "rt": 1422,
        "correct": false,
        "response": "ArrowLeft",
        "congruent": false,
        "gazeTowards": false,
        "gazeCondition": "away",
        "faceOnLeft": false,
        "impliedDirection": 180,
        "testDirection": 0,
        "avgFps": 145,
        "minFps": 144,
        "maxFps": 2941,
        "totalFrames": 205,
        "frameRates": 145
      },
      {
        "trial_number": 79,
        "trial_index": 470,
        "rt": 813,
        "correct": true,
        "response": "ArrowRight",
        "congruent": false,
        "gazeTowards": true,
        "gazeCondition": "towards",
        "faceOnLeft": false,
        "impliedDirection": 180,
        "testDirection": 0,
        "avgFps": 144,
        "minFps": 76,
        "maxFps": 1042,
        "totalFrames": 117,
        "frameRates": 144
      },
      {
        "trial_number": 80,
        "trial_index": 475,
        "rt": 1086,
        "correct": true,
        "response": "ArrowRight",
        "congruent": true,
        "gazeTowards": false,
        "gazeCondition": "away",
        "faceOnLeft": true,
        "impliedDirection": 0,
        "testDirection": 0,
        "avgFps": 143,
        "minFps": 72,
        "maxFps": 210,
        "totalFrames": 155,
        "frameRates": 143
      },
      {
        "trial_number": 81,
        "trial_index": 480,
        "rt": 1428,
        "correct": false,
        "response": "ArrowRight",
        "congruent": true,
        "gazeTowards": true,
        "gazeCondition": "towards",
        "faceOnLeft": false,
        "impliedDirection": 180,
        "testDirection": 180,
        "avgFps": 144,
        "minFps": 144,
        "maxFps": 357,
        "totalFrames": 206,
        "frameRates": 144
      },
      {
        "trial_number": 82,
        "trial_index": 485,
        "rt": 1169,
        "correct": true,
        "response": "ArrowRight",
        "congruent": false,
        "gazeTowards": true,
        "gazeCondition": "towards",
        "faceOnLeft": false,
        "impliedDirection": 180,
        "testDirection": 0,
        "avgFps": 144,
        "minFps": 76,
        "maxFps": 3571,
        "totalFrames": 168,
        "frameRates": 144
      },
      {
        "trial_number": 83,
        "trial_index": 490,
        "rt": 1704,
        "correct": true,
        "response": "ArrowLeft",
        "congruent": false,
        "gazeTowards": true,
        "gazeCondition": "towards",
        "faceOnLeft": true,
        "impliedDirection": 0,
        "testDirection": 180,
        "avgFps": 144,
        "minFps": 75,
        "maxFps": 8333,
        "totalFrames": 245,
        "frameRates": 144
      },
      {
        "trial_number": 84,
        "trial_index": 495,
        "rt": 1572,
        "correct": false,
        "response": "ArrowRight",
        "congruent": true,
        "gazeTowards": false,
        "gazeCondition": "away",
        "faceOnLeft": false,
        "impliedDirection": 180,
        "testDirection": 180,
        "avgFps": 144,
        "minFps": 74,
        "maxFps": 1111,
        "totalFrames": 226,
        "frameRates": 144
      },
      {
        "trial_number": 85,
        "trial_index": 500,
        "rt": 1433,
        "correct": true,
        "response": "ArrowRight",
        "congruent": true,
        "gazeTowards": true,
        "gazeCondition": "towards",
        "faceOnLeft": true,
        "impliedDirection": 0,
        "testDirection": 0,
        "avgFps": 144,
        "minFps": 77,
        "maxFps": 2941,
        "totalFrames": 206,
        "frameRates": 144
      },
      {
        "trial_number": 86,
        "trial_index": 505,
        "rt": 1761,
        "correct": false,
        "response": "ArrowRight",
        "congruent": true,
        "gazeTowards": false,
        "gazeCondition": "away",
        "faceOnLeft": false,
        "impliedDirection": 180,
        "testDirection": 180,
        "avgFps": 145,
        "minFps": 144,
        "maxFps": 1163,
        "totalFrames": 254,
        "frameRates": 145
      },
      {
        "trial_number": 87,
        "trial_index": 513,
        "rt": 1317,
        "correct": true,
        "response": "ArrowLeft",
        "congruent": false,
        "gazeTowards": false,
        "gazeCondition": "away",
        "faceOnLeft": true,
        "impliedDirection": 0,
        "testDirection": 180,
        "avgFps": 144,
        "minFps": 76,
        "maxFps": 1786,
        "totalFrames": 189,
        "frameRates": 144
      },
      {
        "trial_number": 88,
        "trial_index": 518,
        "rt": 809,
        "correct": true,
        "response": "ArrowRight",
        "congruent": true,
        "gazeTowards": false,
        "gazeCondition": "away",
        "faceOnLeft": true,
        "impliedDirection": 0,
        "testDirection": 0,
        "avgFps": 144,
        "minFps": 75,
        "maxFps": 1852,
        "totalFrames": 116,
        "frameRates": 144
      },
      {
        "trial_number": 89,
        "trial_index": 523,
        "rt": 1114,
        "correct": true,
        "response": "ArrowRight",
        "congruent": true,
        "gazeTowards": false,
        "gazeCondition": "away",
        "faceOnLeft": true,
        "impliedDirection": 0,
        "testDirection": 0,
        "avgFps": 144,
        "minFps": 75,
        "maxFps": 1042,
        "totalFrames": 160,
        "frameRates": 144
      },
      {
        "trial_number": 90,
        "trial_index": 529,
        "rt": 1218,
        "correct": true,
        "response": "ArrowRight",
        "congruent": false,
        "gazeTowards": false,
        "gazeCondition": "away",
        "faceOnLeft": false,
        "impliedDirection": 180,
        "testDirection": 0,
        "avgFps": 143,
        "minFps": 72,
        "maxFps": 2381,
        "totalFrames": 174,
        "frameRates": 143
      },
      {
        "trial_number": 91,
        "trial_index": 534,
        "rt": 1289,
        "correct": false,
        "response": "ArrowRight",
        "congruent": true,
        "gazeTowards": false,
        "gazeCondition": "away",
        "faceOnLeft": false,
        "impliedDirection": 180,
        "testDirection": 180,
        "avgFps": 144,
        "minFps": 74,
        "maxFps": 1562,
        "totalFrames": 185,
        "frameRates": 144
      },
      {
        "trial_number": 92,
        "trial_index": 542,
        "rt": 1114,
        "correct": true,
        "response": "ArrowLeft",
        "congruent": true,
        "gazeTowards": true,
        "gazeCondition": "towards",
        "faceOnLeft": false,
        "impliedDirection": 180,
        "testDirection": 180,
        "avgFps": 144,
        "minFps": 76,
        "maxFps": 1316,
        "totalFrames": 160,
        "frameRates": 144
      },
      {
        "trial_number": 93,
        "trial_index": 547,
        "rt": 1103,
        "correct": true,
        "response": "ArrowLeft",
        "congruent": true,
        "gazeTowards": true,
        "gazeCondition": "towards",
        "faceOnLeft": false,
        "impliedDirection": 180,
        "testDirection": 180,
        "avgFps": 144,
        "minFps": 100,
        "maxFps": 1282,
        "totalFrames": 159,
        "frameRates": 144
      },
      {
        "trial_number": 94,
        "trial_index": 552,
        "rt": 1058,
        "correct": true,
        "response": "ArrowLeft",
        "congruent": true,
        "gazeTowards": true,
        "gazeCondition": "towards",
        "faceOnLeft": false,
        "impliedDirection": 180,
        "testDirection": 180,
        "avgFps": 144,
        "minFps": 75,
        "maxFps": 3333,
        "totalFrames": 152,
        "frameRates": 144
      },
      {
        "trial_number": 95,
        "trial_index": 557,
        "rt": 963,
        "correct": true,
        "response": "ArrowRight",
        "congruent": true,
        "gazeTowards": true,
        "gazeCondition": "towards",
        "faceOnLeft": true,
        "impliedDirection": 0,
        "testDirection": 0,
        "avgFps": 144,
        "minFps": 76,
        "maxFps": 336,
        "totalFrames": 138,
        "frameRates": 144
      },
      {
        "trial_number": 96,
        "trial_index": 562,
        "rt": 658,
        "correct": true,
        "response": "ArrowLeft",
        "congruent": true,
        "gazeTowards": true,
        "gazeCondition": "towards",
        "faceOnLeft": false,
        "impliedDirection": 180,
        "testDirection": 180,
        "avgFps": 144,
        "minFps": 73,
        "maxFps": 2778,
        "totalFrames": 94,
        "frameRates": 144
      },
      {
        "trial_number": 97,
        "trial_index": 567,
        "rt": 743,
        "correct": true,
        "response": "ArrowRight",
        "congruent": false,
        "gazeTowards": false,
        "gazeCondition": "away",
        "faceOnLeft": false,
        "impliedDirection": 180,
        "testDirection": 0,
        "avgFps": 144,
        "minFps": 75,
        "maxFps": 1515,
        "totalFrames": 107,
        "frameRates": 144
      },
      {
        "trial_number": 98,
        "trial_index": 572,
        "rt": 856,
        "correct": true,
        "response": "ArrowLeft",
        "congruent": false,
        "gazeTowards": true,
        "gazeCondition": "towards",
        "faceOnLeft": true,
        "impliedDirection": 0,
        "testDirection": 180,
        "avgFps": 144,
        "minFps": 77,
        "maxFps": 8333,
        "totalFrames": 123,
        "frameRates": 144
      },
      {
        "trial_number": 99,
        "trial_index": 577,
        "rt": 992,
        "correct": true,
        "response": "ArrowRight",
        "congruent": true,
        "gazeTowards": false,
        "gazeCondition": "away",
        "faceOnLeft": true,
        "impliedDirection": 0,
        "testDirection": 0,
        "avgFps": 144,
        "minFps": 76,
        "maxFps": 1923,
        "totalFrames": 143,
        "frameRates": 144
      },
      {
        "trial_number": 100,
        "trial_index": 585,
        "rt": 979,
        "correct": true,
        "response": "ArrowLeft",
        "congruent": true,
        "gazeTowards": false,
        "gazeCondition": "away",
        "faceOnLeft": false,
        "impliedDirection": 180,
        "testDirection": 180,
        "avgFps": 144,
        "minFps": 74,
        "maxFps": 1471,
        "totalFrames": 141,
        "frameRates": 144
      },
      {
        "trial_number": 101,
        "trial_index": 590,
        "rt": 737,
        "correct": true,
        "response": "ArrowRight",
        "congruent": true,
        "gazeTowards": false,
        "gazeCondition": "away",
        "faceOnLeft": true,
        "impliedDirection": 0,
        "testDirection": 0,
        "avgFps": 144,
        "minFps": 76,
        "maxFps": 2941,
        "totalFrames": 106,
        "frameRates": 144
      },
      {
        "trial_number": 102,
        "trial_index": 595,
        "rt": 769,
        "correct": true,
        "response": "ArrowRight",
        "congruent": true,
        "gazeTowards": false,
        "gazeCondition": "away",
        "faceOnLeft": true,
        "impliedDirection": 0,
        "testDirection": 0,
        "avgFps": 144,
        "minFps": 75,
        "maxFps": 2000,
        "totalFrames": 110,
        "frameRates": 144
      },
      {
        "trial_number": 103,
        "trial_index": 600,
        "rt": 967,
        "correct": false,
        "response": "ArrowLeft",
        "congruent": true,
        "gazeTowards": false,
        "gazeCondition": "away",
        "faceOnLeft": true,
        "impliedDirection": 0,
        "testDirection": 0,
        "avgFps": 144,
        "minFps": 75,
        "maxFps": 2083,
        "totalFrames": 139,
        "frameRates": 144
      },
      {
        "trial_number": 104,
        "trial_index": 605,
        "rt": 687,
        "correct": true,
        "response": "ArrowRight",
        "congruent": true,
        "gazeTowards": false,
        "gazeCondition": "away",
        "faceOnLeft": true,
        "impliedDirection": 0,
        "testDirection": 0,
        "avgFps": 144,
        "minFps": 76,
        "maxFps": 1316,
        "totalFrames": 99,
        "frameRates": 144
      },
      {
        "trial_number": 105,
        "trial_index": 610,
        "rt": 747,
        "correct": true,
        "response": "ArrowRight",
        "congruent": false,
        "gazeTowards": true,
        "gazeCondition": "towards",
        "faceOnLeft": false,
        "impliedDirection": 180,
        "testDirection": 0,
        "avgFps": 141,
        "minFps": 37,
        "maxFps": 735,
        "totalFrames": 105,
        "frameRates": 141
      },
      {
        "trial_number": 106,
        "trial_index": 615,
        "rt": 697,
        "correct": true,
        "response": "ArrowRight",
        "congruent": false,
        "gazeTowards": false,
        "gazeCondition": "away",
        "faceOnLeft": false,
        "impliedDirection": 180,
        "testDirection": 0,
        "avgFps": 144,
        "minFps": 73,
        "maxFps": 676,
        "totalFrames": 100,
        "frameRates": 144
      },
      {
        "trial_number": 107,
        "trial_index": 620,
        "rt": 1111,
        "correct": false,
        "response": "ArrowRight",
        "congruent": false,
        "gazeTowards": true,
        "gazeCondition": "towards",
        "faceOnLeft": true,
        "impliedDirection": 0,
        "testDirection": 180,
        "avgFps": 144,
        "minFps": 73,
        "maxFps": 3571,
        "totalFrames": 160,
        "frameRates": 144
      },
      {
        "trial_number": 108,
        "trial_index": 625,
        "rt": 1115,
        "correct": true,
        "response": "ArrowRight",
        "congruent": false,
        "gazeTowards": false,
        "gazeCondition": "away",
        "faceOnLeft": false,
        "impliedDirection": 180,
        "testDirection": 0,
        "avgFps": 144,
        "minFps": 75,
        "maxFps": 407,
        "totalFrames": 160,
        "frameRates": 144
      },
      {
        "trial_number": 109,
        "trial_index": 630,
        "rt": 975,
        "correct": true,
        "response": "ArrowLeft",
        "congruent": false,
        "gazeTowards": true,
        "gazeCondition": "towards",
        "faceOnLeft": true,
        "impliedDirection": 0,
        "testDirection": 180,
        "avgFps": 144,
        "minFps": 74,
        "maxFps": 450,
        "totalFrames": 140,
        "frameRates": 144
      },
      {
        "trial_number": 110,
        "trial_index": 635,
        "rt": 1096,
        "correct": false,
        "response": "ArrowRight",
        "congruent": true,
        "gazeTowards": true,
        "gazeCondition": "towards",
        "faceOnLeft": false,
        "impliedDirection": 180,
        "testDirection": 180,
        "avgFps": 143,
        "minFps": 72,
        "maxFps": 2778,
        "totalFrames": 157,
        "frameRates": 143
      },
      {
        "trial_number": 111,
        "trial_index": 640,
        "rt": 752,
        "correct": true,
        "response": "ArrowLeft",
        "congruent": true,
        "gazeTowards": true,
        "gazeCondition": "towards",
        "faceOnLeft": false,
        "impliedDirection": 180,
        "testDirection": 180,
        "avgFps": 144,
        "minFps": 76,
        "maxFps": 1562,
        "totalFrames": 108,
        "frameRates": 144
      },
      {
        "trial_number": 112,
        "trial_index": 645,
        "rt": 968,
        "correct": true,
        "response": "ArrowRight",
        "congruent": true,
        "gazeTowards": false,
        "gazeCondition": "away",
        "faceOnLeft": true,
        "impliedDirection": 0,
        "testDirection": 0,
        "avgFps": 144,
        "minFps": 70,
        "maxFps": 2500,
        "totalFrames": 139,
        "frameRates": 144
      },
      {
        "trial_number": 113,
        "trial_index": 650,
        "rt": 698,
        "correct": true,
        "response": "ArrowRight",
        "congruent": false,
        "gazeTowards": true,
        "gazeCondition": "towards",
        "faceOnLeft": false,
        "impliedDirection": 180,
        "testDirection": 0,
        "avgFps": 144,
        "minFps": 76,
        "maxFps": 2381,
        "totalFrames": 100,
        "frameRates": 144
      },
      {
        "trial_number": 114,
        "trial_index": 655,
        "rt": 968,
        "correct": false,
        "response": "ArrowLeft",
        "congruent": true,
        "gazeTowards": true,
        "gazeCondition": "towards",
        "faceOnLeft": true,
        "impliedDirection": 0,
        "testDirection": 0,
        "avgFps": 144,
        "minFps": 74,
        "maxFps": 1190,
        "totalFrames": 139,
        "frameRates": 144
      },
      {
        "trial_number": 115,
        "trial_index": 663,
        "rt": 930,
        "correct": true,
        "response": "ArrowRight",
        "congruent": false,
        "gazeTowards": false,
        "gazeCondition": "away",
        "faceOnLeft": false,
        "impliedDirection": 180,
        "testDirection": 0,
        "avgFps": 144,
        "minFps": 73,
        "maxFps": 446,
        "totalFrames": 133,
        "frameRates": 144
      },
      {
        "trial_number": 116,
        "trial_index": 668,
        "rt": 995,
        "correct": true,
        "response": "ArrowLeft",
        "congruent": true,
        "gazeTowards": true,
        "gazeCondition": "towards",
        "faceOnLeft": false,
        "impliedDirection": 180,
        "testDirection": 180,
        "avgFps": 144,
        "minFps": 76,
        "maxFps": 1282,
        "totalFrames": 143,
        "frameRates": 144
      },
      {
        "trial_number": 117,
        "trial_index": 673,
        "rt": 1293,
        "correct": false,
        "response": "ArrowRight",
        "congruent": false,
        "gazeTowards": true,
        "gazeCondition": "towards",
        "faceOnLeft": true,
        "impliedDirection": 0,
        "testDirection": 180,
        "avgFps": 144,
        "minFps": 75,
        "maxFps": 877,
        "totalFrames": 186,
        "frameRates": 144
      },
      {
        "trial_number": 118,
        "trial_index": 678,
        "rt": 1112,
        "correct": false,
        "response": "ArrowLeft",
        "congruent": false,
        "gazeTowards": false,
        "gazeCondition": "away",
        "faceOnLeft": false,
        "impliedDirection": 180,
        "testDirection": 0,
        "avgFps": 144,
        "minFps": 76,
        "maxFps": 893,
        "totalFrames": 160,
        "frameRates": 144
      },
      {
        "trial_number": 119,
        "trial_index": 683,
        "rt": 1113,
        "correct": false,
        "response": "ArrowRight",
        "congruent": false,
        "gazeTowards": false,
        "gazeCondition": "away",
        "faceOnLeft": true,
        "impliedDirection": 0,
        "testDirection": 180,
        "avgFps": 144,
        "minFps": 75,
        "maxFps": 1429,
        "totalFrames": 160,
        "frameRates": 144
      }
    ],
    "catch": {
      "total": 12,
      "correct": 12,
      "accuracy": 100,
      "meanRT": 590,
      "trials": [
        {
          "trial_number": 0,
          "trial_index": 53,
          "rt": 895,
          "correct": true,
          "colorTarget": "tree",
          "gazeTowards": true,
          "gazeCondition": "towards",
          "faceOnLeft": true
        },
        {
          "trial_number": 1,
          "trial_index": 277,
          "rt": 732,
          "correct": true,
          "colorTarget": "tree",
          "gazeTowards": false,
          "gazeCondition": "away",
          "faceOnLeft": false
        },
        {
          "trial_number": 2,
          "trial_index": 290,
          "rt": 577,
          "correct": true,
          "colorTarget": "face",
          "gazeTowards": true,
          "gazeCondition": "towards",
          "faceOnLeft": true
        },
        {
          "trial_number": 3,
          "trial_index": 298,
          "rt": 436,
          "correct": true,
          "colorTarget": "face",
          "gazeTowards": false,
          "gazeCondition": "away",
          "faceOnLeft": true
        },
        {
          "trial_number": 4,
          "trial_index": 351,
          "rt": 553,
          "correct": true,
          "colorTarget": "face",
          "gazeTowards": false,
          "gazeCondition": "away",
          "faceOnLeft": false
        },
        {
          "trial_number": 5,
          "trial_index": 380,
          "rt": 525,
          "correct": true,
          "colorTarget": "face",
          "gazeTowards": false,
          "gazeCondition": "away",
          "faceOnLeft": false
        },
        {
          "trial_number": 6,
          "trial_index": 463,
          "rt": 714,
          "correct": true,
          "colorTarget": "tree",
          "gazeTowards": true,
          "gazeCondition": "towards",
          "faceOnLeft": true
        },
        {
          "trial_number": 7,
          "trial_index": 466,
          "rt": 488,
          "correct": true,
          "colorTarget": "face",
          "gazeTowards": true,
          "gazeCondition": "towards",
          "faceOnLeft": true
        },
        {
          "trial_number": 8,
          "trial_index": 509,
          "rt": 543,
          "correct": true,
          "colorTarget": "face",
          "gazeTowards": true,
          "gazeCondition": "towards",
          "faceOnLeft": true
        },
        {
          "trial_number": 9,
          "trial_index": 538,
          "rt": 545,
          "correct": true,
          "colorTarget": "tree",
          "gazeTowards": true,
          "gazeCondition": "towards",
          "faceOnLeft": false
        },
        {
          "trial_number": 10,
          "trial_index": 581,
          "rt": 616,
          "correct": true,
          "colorTarget": "tree",
          "gazeTowards": true,
          "gazeCondition": "towards",
          "faceOnLeft": true
        },
        {
          "trial_number": 11,
          "trial_index": 659,
          "rt": 457,
          "correct": true,
          "colorTarget": "tree",
          "gazeTowards": false,
          "gazeCondition": "away",
          "faceOnLeft": true
        }
      ]
    },
    "practice": {
      "trials": [
        {
          "trial_number": 0,
          "rt": null,
          "correct": false,
          "direction": 180
        },
        {
          "trial_number": 1,
          "rt": 1010,
          "correct": true,
          "direction": 0
        },
        {
          "trial_number": 2,
          "rt": 1417,
          "correct": true,
          "direction": 180
        },
        {
          "trial_number": 3,
          "rt": 1066,
          "correct": true,
          "direction": 180
        },
        {
          "trial_number": 4,
          "rt": 1047,
          "correct": true,
          "direction": 180
        },
        {
          "trial_number": 5,
          "rt": 676,
          "correct": true,
          "direction": 0
        },
        {
          "trial_number": 6,
          "rt": 877,
          "correct": true,
          "direction": 180
        },
        {
          "trial_number": 7,
          "rt": 760,
          "correct": true,
          "direction": 0
        },
        {
          "trial_number": 8,
          "rt": 986,
          "correct": true,
          "direction": 180
        },
        {
          "trial_number": 9,
          "rt": 1036,
          "correct": true,
          "direction": 0
        }
      ],
      "meanRT": 986,
      "accuracy": 90
    }
  }
}