{
  "experiment": "rdk-face-1",
  "UUID": "933ffc14-52be-4f73-90cb-ee537082d4f2",
  "data": {
    "session": {
      "experiment_version": "1.8.6",
      "treatment": "faces_towards_away_catch",
      "file_version": "1.8.6",
      "totalTrials": 120,
      "totalTrialsIncludingCatch": 132,
      "conditions": {
        "gazeTowardsCount": 60,
        "gazeAwayCount": 60,
        "gazeTowardsAccuracy": 90,
        "gazeAwayAccuracy": 93
      },
      "session_group": "default",
      "browserData": {
        "os": "Mac",
        "browser": "Chrome",
        "screenResolution": "2560x1440",
        "browserViewport": "2560x1440",
        "devicePixelRatio": 2,
        "colorDepth": 24,
        "hardwareConcurrency": 4,
        "deviceMemory": 8,
        "gpuRenderer": "ANGLE (AMD, ANGLE Metal Renderer: AMD Radeon Pro 580, Unspecified Version)",
        "measuredRefreshRateHz": 59
      },
      "attention": {
        "visibilityEvents": []
      },
      "calibration": {
        "monitorWidthCm": 38,
        "viewingDistanceCm": 54,
        "pixelsPerDegree": 50
      },
      "parameters": {
        "coherence": 0.4,
        "apertureDeg": 5,
        "densityDotsPerDeg2": 40,
        "dotDiameterDeg": 0.035,
        "dotSpeedDegPerSec": 3,
        "lifetimeMs": 200,
        "fixationDurationMs": 1500,
        "faceDurationMs": 1500,
        "testDurationMs": 2000,
        "catchResponseMs": 3000
      },
      "prolific": {
        "prolificPid": "666e02576e916cd782e9ae12",
        "studyId": "",
        "sessionId": ""
      },
      "timing": {
        "startTime": "2026-03-06T02:58:51.663Z",
        "endTime": "2026-03-06T03:14:55.810Z",
        "totalElapsedTimeMs": 964147
      }
    },
    "trials": [
      {
        "trial_number": 0,
        "trial_index": 131,
        "rt": 1194,
        "correct": true,
        "response": "ArrowRight",
        "congruent": false,
        "gazeTowards": true,
        "gazeCondition": "towards",
        "faceOnLeft": false,
        "impliedDirection": 180,
        "testDirection": 0,
        "avgFps": 59,
        "minFps": 30,
        "maxFps": 64,
        "totalFrames": 71,
        "frameRates": 59
      },
      {
        "trial_number": 1,
        "trial_index": 136,
        "rt": 1186,
        "correct": true,
        "response": "ArrowLeft",
        "congruent": false,
        "gazeTowards": true,
        "gazeCondition": "towards",
        "faceOnLeft": true,
        "impliedDirection": 0,
        "testDirection": 180,
        "avgFps": 60,
        "minFps": 56,
        "maxFps": 64,
        "totalFrames": 71,
        "frameRates": 60
      },
      {
        "trial_number": 2,
        "trial_index": 141,
        "rt": 1248,
        "correct": true,
        "response": "ArrowRight",
        "congruent": true,
        "gazeTowards": true,
        "gazeCondition": "towards",
        "faceOnLeft": true,
        "impliedDirection": 0,
        "testDirection": 0,
        "avgFps": 60,
        "minFps": 56,
        "maxFps": 65,
        "totalFrames": 75,
        "frameRates": 60
      },
      {
        "trial_number": 3,
        "trial_index": 146,
        "rt": 1477,
        "correct": true,
        "response": "ArrowRight",
        "congruent": false,
        "gazeTowards": false,
        "gazeCondition": "away",
        "faceOnLeft": false,
        "impliedDirection": 180,
        "testDirection": 0,
        "avgFps": 60,
        "minFps": 56,
        "maxFps": 64,
        "totalFrames": 88,
        "frameRates": 60
      },
      {
        "trial_number": 4,
        "trial_index": 151,
        "rt": 1108,
        "correct": true,
        "response": "ArrowLeft",
        "congruent": false,
        "gazeTowards": true,
        "gazeCondition": "towards",
        "faceOnLeft": true,
        "impliedDirection": 0,
        "testDirection": 180,
        "avgFps": 60,
        "minFps": 56,
        "maxFps": 64,
        "totalFrames": 66,
        "frameRates": 60
      },
      {
        "trial_number": 5,
        "trial_index": 159,
        "rt": null,
        "correct": false,
        "response": null,
        "congruent": false,
        "gazeTowards": true,
        "gazeCondition": "towards",
        "faceOnLeft": true,
        "impliedDirection": 0,
        "testDirection": 180,
        "avgFps": 60,
        "minFps": 56,
        "maxFps": 64,
        "totalFrames": 120,
        "frameRates": 60
      },
      {
        "trial_number": 6,
        "trial_index": 164,
        "rt": 1101,
        "correct": true,
        "response": "ArrowRight",
        "congruent": true,
        "gazeTowards": true,
        "gazeCondition": "towards",
        "faceOnLeft": true,
        "impliedDirection": 0,
        "testDirection": 0,
        "avgFps": 60,
        "minFps": 58,
        "maxFps": 63,
        "totalFrames": 66,
        "frameRates": 60
      },
      {
        "trial_number": 7,
        "trial_index": 169,
        "rt": 1426,
        "correct": true,
        "response": "ArrowLeft",
        "congruent": true,
        "gazeTowards": true,
        "gazeCondition": "towards",
        "faceOnLeft": false,
        "impliedDirection": 180,
        "testDirection": 180,
        "avgFps": 60,
        "minFps": 56,
        "maxFps": 64,
        "totalFrames": 85,
        "frameRates": 60
      },
      {
        "trial_number": 8,
        "trial_index": 174,
        "rt": 1101,
        "correct": true,
        "response": "ArrowRight",
        "congruent": true,
        "gazeTowards": false,
        "gazeCondition": "away",
        "faceOnLeft": true,
        "impliedDirection": 0,
        "testDirection": 0,
        "avgFps": 60,
        "minFps": 56,
        "maxFps": 64,
        "totalFrames": 66,
        "frameRates": 60
      },
      {
        "trial_number": 9,
        "trial_index": 179,
        "rt": 1263,
        "correct": true,
        "response": "ArrowLeft",
        "congruent": false,
        "gazeTowards": true,
        "gazeCondition": "towards",
        "faceOnLeft": true,
        "impliedDirection": 0,
        "testDirection": 180,
        "avgFps": 60,
        "minFps": 56,
        "maxFps": 64,
        "totalFrames": 75,
        "frameRates": 60
      },
      {
        "trial_number": 10,
        "trial_index": 184,
        "rt": 1039,
        "correct": true,
        "response": "ArrowLeft",
        "congruent": true,
        "gazeTowards": false,
        "gazeCondition": "away",
        "faceOnLeft": false,
        "impliedDirection": 180,
        "testDirection": 180,
        "avgFps": 60,
        "minFps": 56,
        "maxFps": 64,
        "totalFrames": 62,
        "frameRates": 60
      },
      {
        "trial_number": 11,
        "trial_index": 192,
        "rt": 1288,
        "correct": true,
        "response": "ArrowRight",
        "congruent": false,
        "gazeTowards": false,
        "gazeCondition": "away",
        "faceOnLeft": false,
        "impliedDirection": 180,
        "testDirection": 0,
        "avgFps": 60,
        "minFps": 56,
        "maxFps": 65,
        "totalFrames": 77,
        "frameRates": 60
      },
      {
        "trial_number": 12,
        "trial_index": 197,
        "rt": 1533,
        "correct": true,
        "response": "ArrowRight",
        "congruent": true,
        "gazeTowards": true,
        "gazeCondition": "towards",
        "faceOnLeft": true,
        "impliedDirection": 0,
        "testDirection": 0,
        "avgFps": 59,
        "minFps": 30,
        "maxFps": 65,
        "totalFrames": 91,
        "frameRates": 59
      },
      {
        "trial_number": 13,
        "trial_index": 202,
        "rt": 1498,
        "correct": true,
        "response": "ArrowLeft",
        "congruent": false,
        "gazeTowards": true,
        "gazeCondition": "towards",
        "faceOnLeft": true,
        "impliedDirection": 0,
        "testDirection": 180,
        "avgFps": 59,
        "minFps": 30,
        "maxFps": 64,
        "totalFrames": 89,
        "frameRates": 59
      },
      {
        "trial_number": 14,
        "trial_index": 207,
        "rt": 1308,
        "correct": true,
        "response": "ArrowRight",
        "congruent": false,
        "gazeTowards": false,
        "gazeCondition": "away",
        "faceOnLeft": false,
        "impliedDirection": 180,
        "testDirection": 0,
        "avgFps": 59,
        "minFps": 30,
        "maxFps": 64,
        "totalFrames": 78,
        "frameRates": 59
      },
      {
        "trial_number": 15,
        "trial_index": 212,
        "rt": 1626,
        "correct": true,
        "response": "ArrowRight",
        "congruent": false,
        "gazeTowards": false,
        "gazeCondition": "away",
        "faceOnLeft": false,
        "impliedDirection": 180,
        "testDirection": 0,
        "avgFps": 59,
        "minFps": 30,
        "maxFps": 65,
        "totalFrames": 97,
        "frameRates": 59
      },
      {
        "trial_number": 16,
        "trial_index": 217,
        "rt": 1471,
        "correct": true,
        "response": "ArrowRight",
        "congruent": true,
        "gazeTowards": true,
        "gazeCondition": "towards",
        "faceOnLeft": true,
        "impliedDirection": 0,
        "testDirection": 0,
        "avgFps": 60,
        "minFps": 56,
        "maxFps": 64,
        "totalFrames": 88,
        "frameRates": 60
      },
      {
        "trial_number": 17,
        "trial_index": 222,
        "rt": 1554,
        "correct": false,
        "response": "ArrowLeft",
        "congruent": false,
        "gazeTowards": false,
        "gazeCondition": "away",
        "faceOnLeft": false,
        "impliedDirection": 180,
        "testDirection": 0,
        "avgFps": 59,
        "minFps": 31,
        "maxFps": 64,
        "totalFrames": 93,
        "frameRates": 59
      },
      {
        "trial_number": 18,
        "trial_index": 227,
        "rt": 1404,
        "correct": false,
        "response": "ArrowLeft",
        "congruent": true,
        "gazeTowards": false,
        "gazeCondition": "away",
        "faceOnLeft": true,
        "impliedDirection": 0,
        "testDirection": 0,
        "avgFps": 59,
        "minFps": 31,
        "maxFps": 64,
        "totalFrames": 83,
        "frameRates": 59
      },
      {
        "trial_number": 19,
        "trial_index": 235,
        "rt": 1220,
        "correct": true,
        "response": "ArrowLeft",
        "congruent": false,
        "gazeTowards": false,
        "gazeCondition": "away",
        "faceOnLeft": true,
        "impliedDirection": 0,
        "testDirection": 180,
        "avgFps": 60,
        "minFps": 58,
        "maxFps": 62,
        "totalFrames": 73,
        "frameRates": 60
      },
      {
        "trial_number": 20,
        "trial_index": 240,
        "rt": 1258,
        "correct": true,
        "response": "ArrowRight",
        "congruent": true,
        "gazeTowards": false,
        "gazeCondition": "away",
        "faceOnLeft": true,
        "impliedDirection": 0,
        "testDirection": 0,
        "avgFps": 59,
        "minFps": 30,
        "maxFps": 64,
        "totalFrames": 75,
        "frameRates": 59
      },
      {
        "trial_number": 21,
        "trial_index": 245,
        "rt": 1435,
        "correct": true,
        "response": "ArrowRight",
        "congruent": true,
        "gazeTowards": true,
        "gazeCondition": "towards",
        "faceOnLeft": true,
        "impliedDirection": 0,
        "testDirection": 0,
        "avgFps": 59,
        "minFps": 31,
        "maxFps": 64,
        "totalFrames": 85,
        "frameRates": 59
      },
      {
        "trial_number": 22,
        "trial_index": 250,
        "rt": 1052,
        "correct": true,
        "response": "ArrowLeft",
        "congruent": true,
        "gazeTowards": false,
        "gazeCondition": "away",
        "faceOnLeft": false,
        "impliedDirection": 180,
        "testDirection": 180,
        "avgFps": 60,
        "minFps": 56,
        "maxFps": 64,
        "totalFrames": 63,
        "frameRates": 60
      },
      {
        "trial_number": 23,
        "trial_index": 255,
        "rt": 1408,
        "correct": true,
        "response": "ArrowLeft",
        "congruent": false,
        "gazeTowards": false,
        "gazeCondition": "away",
        "faceOnLeft": true,
        "impliedDirection": 0,
        "testDirection": 180,
        "avgFps": 60,
        "minFps": 56,
        "maxFps": 64,
        "totalFrames": 84,
        "frameRates": 60
      },
      {
        "trial_number": 24,
        "trial_index": 260,
        "rt": 1567,
        "correct": true,
        "response": "ArrowRight",
        "congruent": true,
        "gazeTowards": true,
        "gazeCondition": "towards",
        "faceOnLeft": true,
        "impliedDirection": 0,
        "testDirection": 0,
        "avgFps": 59,
        "minFps": 30,
        "maxFps": 64,
        "totalFrames": 93,
        "frameRates": 59
      },
      {
        "trial_number": 25,
        "trial_index": 265,
        "rt": 1439,
        "correct": true,
        "response": "ArrowLeft",
        "congruent": false,
        "gazeTowards": true,
        "gazeCondition": "towards",
        "faceOnLeft": true,
        "impliedDirection": 0,
        "testDirection": 180,
        "avgFps": 60,
        "minFps": 56,
        "maxFps": 64,
        "totalFrames": 86,
        "frameRates": 60
      },
      {
        "trial_number": 26,
        "trial_index": 270,
        "rt": 1312,
        "correct": true,
        "response": "ArrowRight",
        "congruent": false,
        "gazeTowards": false,
        "gazeCondition": "away",
        "faceOnLeft": false,
        "impliedDirection": 180,
        "testDirection": 0,
        "avgFps": 60,
        "minFps": 57,
        "maxFps": 64,
        "totalFrames": 78,
        "frameRates": 60
      },
      {
        "trial_number": 27,
        "trial_index": 275,
        "rt": 1340,
        "correct": true,
        "response": "ArrowRight",
        "congruent": false,
        "gazeTowards": true,
        "gazeCondition": "towards",
        "faceOnLeft": false,
        "impliedDirection": 180,
        "testDirection": 0,
        "avgFps": 59,
        "minFps": 31,
        "maxFps": 64,
        "totalFrames": 80,
        "frameRates": 59
      },
      {
        "trial_number": 28,
        "trial_index": 280,
        "rt": 1314,
        "correct": true,
        "response": "ArrowRight",
        "congruent": true,
        "gazeTowards": false,
        "gazeCondition": "away",
        "faceOnLeft": true,
        "impliedDirection": 0,
        "testDirection": 0,
        "avgFps": 59,
        "minFps": 31,
        "maxFps": 64,
        "totalFrames": 78,
        "frameRates": 59
      },
      {
        "trial_number": 29,
        "trial_index": 285,
        "rt": 1107,
        "correct": true,
        "response": "ArrowLeft",
        "congruent": true,
        "gazeTowards": false,
        "gazeCondition": "away",
        "faceOnLeft": false,
        "impliedDirection": 180,
        "testDirection": 180,
        "avgFps": 60,
        "minFps": 56,
        "maxFps": 65,
        "totalFrames": 66,
        "frameRates": 60
      },
      {
        "trial_number": 30,
        "trial_index": 291,
        "rt": 1207,
        "correct": true,
        "response": "ArrowLeft",
        "congruent": true,
        "gazeTowards": false,
        "gazeCondition": "away",
        "faceOnLeft": false,
        "impliedDirection": 180,
        "testDirection": 180,
        "avgFps": 59,
        "minFps": 30,
        "maxFps": 65,
        "totalFrames": 72,
        "frameRates": 59
      },
      {
        "trial_number": 31,
        "trial_index": 299,
        "rt": 1525,
        "correct": true,
        "response": "ArrowLeft",
        "congruent": true,
        "gazeTowards": false,
        "gazeCondition": "away",
        "faceOnLeft": false,
        "impliedDirection": 180,
        "testDirection": 180,
        "avgFps": 59,
        "minFps": 30,
        "maxFps": 64,
        "totalFrames": 91,
        "frameRates": 59
      },
      {
        "trial_number": 32,
        "trial_index": 304,
        "rt": 1298,
        "correct": true,
        "response": "ArrowRight",
        "congruent": true,
        "gazeTowards": false,
        "gazeCondition": "away",
        "faceOnLeft": true,
        "impliedDirection": 0,
        "testDirection": 0,
        "avgFps": 60,
        "minFps": 58,
        "maxFps": 62,
        "totalFrames": 77,
        "frameRates": 60
      },
      {
        "trial_number": 33,
        "trial_index": 309,
        "rt": 1360,
        "correct": true,
        "response": "ArrowRight",
        "congruent": false,
        "gazeTowards": true,
        "gazeCondition": "towards",
        "faceOnLeft": false,
        "impliedDirection": 180,
        "testDirection": 0,
        "avgFps": 59,
        "minFps": 30,
        "maxFps": 64,
        "totalFrames": 81,
        "frameRates": 59
      },
      {
        "trial_number": 34,
        "trial_index": 314,
        "rt": 1279,
        "correct": true,
        "response": "ArrowLeft",
        "congruent": true,
        "gazeTowards": true,
        "gazeCondition": "towards",
        "faceOnLeft": false,
        "impliedDirection": 180,
        "testDirection": 180,
        "avgFps": 60,
        "minFps": 56,
        "maxFps": 65,
        "totalFrames": 76,
        "frameRates": 60
      },
      {
        "trial_number": 35,
        "trial_index": 322,
        "rt": 1542,
        "correct": true,
        "response": "ArrowRight",
        "congruent": false,
        "gazeTowards": false,
        "gazeCondition": "away",
        "faceOnLeft": false,
        "impliedDirection": 180,
        "testDirection": 0,
        "avgFps": 60,
        "minFps": 56,
        "maxFps": 64,
        "totalFrames": 92,
        "frameRates": 60
      },
      {
        "trial_number": 36,
        "trial_index": 327,
        "rt": 1293,
        "correct": true,
        "response": "ArrowRight",
        "congruent": false,
        "gazeTowards": false,
        "gazeCondition": "away",
        "faceOnLeft": false,
        "impliedDirection": 180,
        "testDirection": 0,
        "avgFps": 60,
        "minFps": 56,
        "maxFps": 64,
        "totalFrames": 77,
        "frameRates": 60
      },
      {
        "trial_number": 37,
        "trial_index": 332,
        "rt": 1136,
        "correct": true,
        "response": "ArrowLeft",
        "congruent": false,
        "gazeTowards": true,
        "gazeCondition": "towards",
        "faceOnLeft": true,
        "impliedDirection": 0,
        "testDirection": 180,
        "avgFps": 59,
        "minFps": 30,
        "maxFps": 64,
        "totalFrames": 67,
        "frameRates": 59
      },
      {
        "trial_number": 38,
        "trial_index": 337,
        "rt": 1170,
        "correct": true,
        "response": "ArrowLeft",
        "congruent": true,
        "gazeTowards": false,
        "gazeCondition": "away",
        "faceOnLeft": false,
        "impliedDirection": 180,
        "testDirection": 180,
        "avgFps": 59,
        "minFps": 30,
        "maxFps": 64,
        "totalFrames": 69,
        "frameRates": 59
      },
      {
        "trial_number": 39,
        "trial_index": 342,
        "rt": 1562,
        "correct": false,
        "response": "ArrowRight",
        "congruent": false,
        "gazeTowards": false,
        "gazeCondition": "away",
        "faceOnLeft": true,
        "impliedDirection": 0,
        "testDirection": 180,
        "avgFps": 60,
        "minFps": 56,
        "maxFps": 65,
        "totalFrames": 93,
        "frameRates": 60
      },
      {
        "trial_number": 40,
        "trial_index": 347,
        "rt": 1211,
        "correct": true,
        "response": "ArrowRight",
        "congruent": true,
        "gazeTowards": true,
        "gazeCondition": "towards",
        "faceOnLeft": true,
        "impliedDirection": 0,
        "testDirection": 0,
        "avgFps": 60,
        "minFps": 56,
        "maxFps": 64,
        "totalFrames": 72,
        "frameRates": 60
      },
      {
        "trial_number": 41,
        "trial_index": 352,
        "rt": 1183,
        "correct": true,
        "response": "ArrowLeft",
        "congruent": true,
        "gazeTowards": false,
        "gazeCondition": "away",
        "faceOnLeft": false,
        "impliedDirection": 180,
        "testDirection": 180,
        "avgFps": 60,
        "minFps": 56,
        "maxFps": 64,
        "totalFrames": 71,
        "frameRates": 60
      },
      {
        "trial_number": 42,
        "trial_index": 357,
        "rt": 1207,
        "correct": true,
        "response": "ArrowRight",
        "congruent": false,
        "gazeTowards": true,
        "gazeCondition": "towards",
        "faceOnLeft": false,
        "impliedDirection": 180,
        "testDirection": 0,
        "avgFps": 60,
        "minFps": 56,
        "maxFps": 65,
        "totalFrames": 72,
        "frameRates": 60
      },
      {
        "trial_number": 43,
        "trial_index": 362,
        "rt": 1366,
        "correct": true,
        "response": "ArrowLeft",
        "congruent": true,
        "gazeTowards": true,
        "gazeCondition": "towards",
        "faceOnLeft": false,
        "impliedDirection": 180,
        "testDirection": 180,
        "avgFps": 59,
        "minFps": 31,
        "maxFps": 64,
        "totalFrames": 81,
        "frameRates": 59
      },
      {
        "trial_number": 44,
        "trial_index": 367,
        "rt": 1653,
        "correct": false,
        "response": "ArrowRight",
        "congruent": false,
        "gazeTowards": true,
        "gazeCondition": "towards",
        "faceOnLeft": true,
        "impliedDirection": 0,
        "testDirection": 180,
        "avgFps": 60,
        "minFps": 57,
        "maxFps": 63,
        "totalFrames": 99,
        "frameRates": 60
      },
      {
        "trial_number": 45,
        "trial_index": 372,
        "rt": 1233,
        "correct": true,
        "response": "ArrowLeft",
        "congruent": true,
        "gazeTowards": true,
        "gazeCondition": "towards",
        "faceOnLeft": false,
        "impliedDirection": 180,
        "testDirection": 180,
        "avgFps": 60,
        "minFps": 58,
        "maxFps": 63,
        "totalFrames": 74,
        "frameRates": 60
      },
      {
        "trial_number": 46,
        "trial_index": 377,
        "rt": 1383,
        "correct": true,
        "response": "ArrowRight",
        "congruent": true,
        "gazeTowards": true,
        "gazeCondition": "towards",
        "faceOnLeft": true,
        "impliedDirection": 0,
        "testDirection": 0,
        "avgFps": 59,
        "minFps": 30,
        "maxFps": 62,
        "totalFrames": 82,
        "frameRates": 59
      },
      {
        "trial_number": 47,
        "trial_index": 382,
        "rt": 1466,
        "correct": true,
        "response": "ArrowLeft",
        "congruent": true,
        "gazeTowards": false,
        "gazeCondition": "away",
        "faceOnLeft": false,
        "impliedDirection": 180,
        "testDirection": 180,
        "avgFps": 59,
        "minFps": 30,
        "maxFps": 65,
        "totalFrames": 87,
        "frameRates": 59
      },
      {
        "trial_number": 48,
        "trial_index": 390,
        "rt": 1219,
        "correct": true,
        "response": "ArrowLeft",
        "congruent": true,
        "gazeTowards": false,
        "gazeCondition": "away",
        "faceOnLeft": false,
        "impliedDirection": 180,
        "testDirection": 180,
        "avgFps": 60,
        "minFps": 56,
        "maxFps": 64,
        "totalFrames": 73,
        "frameRates": 60
      },
      {
        "trial_number": 49,
        "trial_index": 395,
        "rt": 1077,
        "correct": true,
        "response": "ArrowLeft",
        "congruent": false,
        "gazeTowards": true,
        "gazeCondition": "towards",
        "faceOnLeft": true,
        "impliedDirection": 0,
        "testDirection": 180,
        "avgFps": 59,
        "minFps": 30,
        "maxFps": 64,
        "totalFrames": 64,
        "frameRates": 59
      },
      {
        "trial_number": 50,
        "trial_index": 400,
        "rt": 1140,
        "correct": true,
        "response": "ArrowRight",
        "congruent": false,
        "gazeTowards": false,
        "gazeCondition": "away",
        "faceOnLeft": false,
        "impliedDirection": 180,
        "testDirection": 0,
        "avgFps": 60,
        "minFps": 56,
        "maxFps": 64,
        "totalFrames": 68,
        "frameRates": 60
      },
      {
        "trial_number": 51,
        "trial_index": 405,
        "rt": 1234,
        "correct": true,
        "response": "ArrowLeft",
        "congruent": true,
        "gazeTowards": false,
        "gazeCondition": "away",
        "faceOnLeft": false,
        "impliedDirection": 180,
        "testDirection": 180,
        "avgFps": 59,
        "minFps": 31,
        "maxFps": 64,
        "totalFrames": 73,
        "frameRates": 59
      },
      {
        "trial_number": 52,
        "trial_index": 410,
        "rt": 1020,
        "correct": true,
        "response": "ArrowRight",
        "congruent": true,
        "gazeTowards": true,
        "gazeCondition": "towards",
        "faceOnLeft": true,
        "impliedDirection": 0,
        "testDirection": 0,
        "avgFps": 60,
        "minFps": 57,
        "maxFps": 64,
        "totalFrames": 61,
        "frameRates": 60
      },
      {
        "trial_number": 53,
        "trial_index": 415,
        "rt": 1212,
        "correct": true,
        "response": "ArrowRight",
        "congruent": true,
        "gazeTowards": true,
        "gazeCondition": "towards",
        "faceOnLeft": true,
        "impliedDirection": 0,
        "testDirection": 0,
        "avgFps": 60,
        "minFps": 56,
        "maxFps": 65,
        "totalFrames": 72,
        "frameRates": 60
      },
      {
        "trial_number": 54,
        "trial_index": 420,
        "rt": 1136,
        "correct": true,
        "response": "ArrowLeft",
        "congruent": false,
        "gazeTowards": false,
        "gazeCondition": "away",
        "faceOnLeft": true,
        "impliedDirection": 0,
        "testDirection": 180,
        "avgFps": 60,
        "minFps": 56,
        "maxFps": 65,
        "totalFrames": 68,
        "frameRates": 60
      },
      {
        "trial_number": 55,
        "trial_index": 425,
        "rt": 1157,
        "correct": true,
        "response": "ArrowRight",
        "congruent": true,
        "gazeTowards": true,
        "gazeCondition": "towards",
        "faceOnLeft": true,
        "impliedDirection": 0,
        "testDirection": 0,
        "avgFps": 59,
        "minFps": 30,
        "maxFps": 64,
        "totalFrames": 69,
        "frameRates": 59
      },
      {
        "trial_number": 56,
        "trial_index": 430,
        "rt": 1919,
        "correct": true,
        "response": "ArrowRight",
        "congruent": false,
        "gazeTowards": false,
        "gazeCondition": "away",
        "faceOnLeft": false,
        "impliedDirection": 180,
        "testDirection": 0,
        "avgFps": 59,
        "minFps": 30,
        "maxFps": 64,
        "totalFrames": 114,
        "frameRates": 59
      },
      {
        "trial_number": 57,
        "trial_index": 435,
        "rt": 1426,
        "correct": true,
        "response": "ArrowRight",
        "congruent": true,
        "gazeTowards": true,
        "gazeCondition": "towards",
        "faceOnLeft": true,
        "impliedDirection": 0,
        "testDirection": 0,
        "avgFps": 59,
        "minFps": 30,
        "maxFps": 64,
        "totalFrames": 84,
        "frameRates": 59
      },
      {
        "trial_number": 58,
        "trial_index": 440,
        "rt": 1394,
        "correct": true,
        "response": "ArrowRight",
        "congruent": false,
        "gazeTowards": true,
        "gazeCondition": "towards",
        "faceOnLeft": false,
        "impliedDirection": 180,
        "testDirection": 0,
        "avgFps": 59,
        "minFps": 30,
        "maxFps": 64,
        "totalFrames": 83,
        "frameRates": 59
      },
      {
        "trial_number": 59,
        "trial_index": 445,
        "rt": 1244,
        "correct": true,
        "response": "ArrowLeft",
        "congruent": true,
        "gazeTowards": true,
        "gazeCondition": "towards",
        "faceOnLeft": false,
        "impliedDirection": 180,
        "testDirection": 180,
        "avgFps": 59,
        "minFps": 30,
        "maxFps": 62,
        "totalFrames": 74,
        "frameRates": 59
      },
      {
        "trial_number": 60,
        "trial_index": 451,
        "rt": 1045,
        "correct": true,
        "response": "ArrowRight",
        "congruent": true,
        "gazeTowards": true,
        "gazeCondition": "towards",
        "faceOnLeft": true,
        "impliedDirection": 0,
        "testDirection": 0,
        "avgFps": 59,
        "minFps": 30,
        "maxFps": 64,
        "totalFrames": 62,
        "frameRates": 59
      },
      {
        "trial_number": 61,
        "trial_index": 456,
        "rt": 1047,
        "correct": true,
        "response": "ArrowRight",
        "congruent": false,
        "gazeTowards": false,
        "gazeCondition": "away",
        "faceOnLeft": false,
        "impliedDirection": 180,
        "testDirection": 0,
        "avgFps": 59,
        "minFps": 30,
        "maxFps": 63,
        "totalFrames": 62,
        "frameRates": 59
      },
      {
        "trial_number": 62,
        "trial_index": 461,
        "rt": 1564,
        "correct": true,
        "response": "ArrowLeft",
        "congruent": false,
        "gazeTowards": true,
        "gazeCondition": "towards",
        "faceOnLeft": true,
        "impliedDirection": 0,
        "testDirection": 180,
        "avgFps": 59,
        "minFps": 31,
        "maxFps": 65,
        "totalFrames": 93,
        "frameRates": 59
      },
      {
        "trial_number": 63,
        "trial_index": 466,
        "rt": 1140,
        "correct": true,
        "response": "ArrowLeft",
        "congruent": true,
        "gazeTowards": false,
        "gazeCondition": "away",
        "faceOnLeft": false,
        "impliedDirection": 180,
        "testDirection": 180,
        "avgFps": 59,
        "minFps": 30,
        "maxFps": 64,
        "totalFrames": 67,
        "frameRates": 59
      },
      {
        "trial_number": 64,
        "trial_index": 471,
        "rt": 1155,
        "correct": true,
        "response": "ArrowRight",
        "congruent": true,
        "gazeTowards": false,
        "gazeCondition": "away",
        "faceOnLeft": true,
        "impliedDirection": 0,
        "testDirection": 0,
        "avgFps": 59,
        "minFps": 30,
        "maxFps": 64,
        "totalFrames": 68,
        "frameRates": 59
      },
      {
        "trial_number": 65,
        "trial_index": 476,
        "rt": 1237,
        "correct": true,
        "response": "ArrowLeft",
        "congruent": false,
        "gazeTowards": true,
        "gazeCondition": "towards",
        "faceOnLeft": true,
        "impliedDirection": 0,
        "testDirection": 180,
        "avgFps": 59,
        "minFps": 30,
        "maxFps": 64,
        "totalFrames": 73,
        "frameRates": 59
      },
      {
        "trial_number": 66,
        "trial_index": 481,
        "rt": 1295,
        "correct": true,
        "response": "ArrowLeft",
        "congruent": false,
        "gazeTowards": false,
        "gazeCondition": "away",
        "faceOnLeft": true,
        "impliedDirection": 0,
        "testDirection": 180,
        "avgFps": 60,
        "minFps": 56,
        "maxFps": 64,
        "totalFrames": 78,
        "frameRates": 60
      },
      {
        "trial_number": 67,
        "trial_index": 486,
        "rt": 1546,
        "correct": true,
        "response": "ArrowLeft",
        "congruent": false,
        "gazeTowards": false,
        "gazeCondition": "away",
        "faceOnLeft": true,
        "impliedDirection": 0,
        "testDirection": 180,
        "avgFps": 59,
        "minFps": 30,
        "maxFps": 64,
        "totalFrames": 92,
        "frameRates": 59
      },
      {
        "trial_number": 68,
        "trial_index": 491,
        "rt": 1263,
        "correct": true,
        "response": "ArrowRight",
        "congruent": false,
        "gazeTowards": true,
        "gazeCondition": "towards",
        "faceOnLeft": false,
        "impliedDirection": 180,
        "testDirection": 0,
        "avgFps": 59,
        "minFps": 30,
        "maxFps": 64,
        "totalFrames": 75,
        "frameRates": 59
      },
      {
        "trial_number": 69,
        "trial_index": 496,
        "rt": 1307,
        "correct": true,
        "response": "ArrowLeft",
        "congruent": false,
        "gazeTowards": false,
        "gazeCondition": "away",
        "faceOnLeft": true,
        "impliedDirection": 0,
        "testDirection": 180,
        "avgFps": 59,
        "minFps": 29,
        "maxFps": 64,
        "totalFrames": 77,
        "frameRates": 59
      },
      {
        "trial_number": 70,
        "trial_index": 501,
        "rt": 1423,
        "correct": true,
        "response": "ArrowLeft",
        "congruent": false,
        "gazeTowards": true,
        "gazeCondition": "towards",
        "faceOnLeft": true,
        "impliedDirection": 0,
        "testDirection": 180,
        "avgFps": 60,
        "minFps": 56,
        "maxFps": 65,
        "totalFrames": 85,
        "frameRates": 60
      },
      {
        "trial_number": 71,
        "trial_index": 506,
        "rt": 1366,
        "correct": true,
        "response": "ArrowRight",
        "congruent": false,
        "gazeTowards": true,
        "gazeCondition": "towards",
        "faceOnLeft": false,
        "impliedDirection": 180,
        "testDirection": 0,
        "avgFps": 60,
        "minFps": 56,
        "maxFps": 65,
        "totalFrames": 82,
        "frameRates": 60
      },
      {
        "trial_number": 72,
        "trial_index": 511,
        "rt": 1508,
        "correct": true,
        "response": "ArrowLeft",
        "congruent": false,
        "gazeTowards": false,
        "gazeCondition": "away",
        "faceOnLeft": true,
        "impliedDirection": 0,
        "testDirection": 180,
        "avgFps": 59,
        "minFps": 30,
        "maxFps": 64,
        "totalFrames": 90,
        "frameRates": 59
      },
      {
        "trial_number": 73,
        "trial_index": 519,
        "rt": 1559,
        "correct": false,
        "response": "ArrowLeft",
        "congruent": false,
        "gazeTowards": false,
        "gazeCondition": "away",
        "faceOnLeft": false,
        "impliedDirection": 180,
        "testDirection": 0,
        "avgFps": 59,
        "minFps": 31,
        "maxFps": 63,
        "totalFrames": 93,
        "frameRates": 59
      },
      {
        "trial_number": 74,
        "trial_index": 524,
        "rt": 1393,
        "correct": true,
        "response": "ArrowRight",
        "congruent": false,
        "gazeTowards": false,
        "gazeCondition": "away",
        "faceOnLeft": false,
        "impliedDirection": 180,
        "testDirection": 0,
        "avgFps": 60,
        "minFps": 56,
        "maxFps": 64,
        "totalFrames": 83,
        "frameRates": 60
      },
      {
        "trial_number": 75,
        "trial_index": 529,
        "rt": 1238,
        "correct": true,
        "response": "ArrowRight",
        "congruent": true,
        "gazeTowards": false,
        "gazeCondition": "away",
        "faceOnLeft": true,
        "impliedDirection": 0,
        "testDirection": 0,
        "avgFps": 60,
        "minFps": 56,
        "maxFps": 64,
        "totalFrames": 74,
        "frameRates": 60
      },
      {
        "trial_number": 76,
        "trial_index": 534,
        "rt": 1814,
        "correct": false,
        "response": "ArrowLeft",
        "congruent": false,
        "gazeTowards": true,
        "gazeCondition": "towards",
        "faceOnLeft": false,
        "impliedDirection": 180,
        "testDirection": 0,
        "avgFps": 60,
        "minFps": 56,
        "maxFps": 65,
        "totalFrames": 109,
        "frameRates": 60
      },
      {
        "trial_number": 77,
        "trial_index": 539,
        "rt": 1790,
        "correct": true,
        "response": "ArrowRight",
        "congruent": true,
        "gazeTowards": true,
        "gazeCondition": "towards",
        "faceOnLeft": true,
        "impliedDirection": 0,
        "testDirection": 0,
        "avgFps": 60,
        "minFps": 56,
        "maxFps": 64,
        "totalFrames": 107,
        "frameRates": 60
      },
      {
        "trial_number": 78,
        "trial_index": 547,
        "rt": 1573,
        "correct": false,
        "response": "ArrowLeft",
        "congruent": true,
        "gazeTowards": true,
        "gazeCondition": "towards",
        "faceOnLeft": true,
        "impliedDirection": 0,
        "testDirection": 0,
        "avgFps": 59,
        "minFps": 30,
        "maxFps": 64,
        "totalFrames": 93,
        "frameRates": 59
      },
      {
        "trial_number": 79,
        "trial_index": 552,
        "rt": 1424,
        "correct": true,
        "response": "ArrowRight",
        "congruent": true,
        "gazeTowards": false,
        "gazeCondition": "away",
        "faceOnLeft": true,
        "impliedDirection": 0,
        "testDirection": 0,
        "avgFps": 60,
        "minFps": 56,
        "maxFps": 65,
        "totalFrames": 85,
        "frameRates": 60
      },
      {
        "trial_number": 80,
        "trial_index": 557,
        "rt": 1840,
        "correct": true,
        "response": "ArrowLeft",
        "congruent": true,
        "gazeTowards": true,
        "gazeCondition": "towards",
        "faceOnLeft": false,
        "impliedDirection": 180,
        "testDirection": 180,
        "avgFps": 59,
        "minFps": 30,
        "maxFps": 64,
        "totalFrames": 110,
        "frameRates": 59
      },
      {
        "trial_number": 81,
        "trial_index": 562,
        "rt": 1508,
        "correct": true,
        "response": "ArrowLeft",
        "congruent": true,
        "gazeTowards": false,
        "gazeCondition": "away",
        "faceOnLeft": false,
        "impliedDirection": 180,
        "testDirection": 180,
        "avgFps": 60,
        "minFps": 56,
        "maxFps": 64,
        "totalFrames": 90,
        "frameRates": 60
      },
      {
        "trial_number": 82,
        "trial_index": 567,
        "rt": 1111,
        "correct": true,
        "response": "ArrowRight",
        "congruent": false,
        "gazeTowards": false,
        "gazeCondition": "away",
        "faceOnLeft": false,
        "impliedDirection": 180,
        "testDirection": 0,
        "avgFps": 60,
        "minFps": 56,
        "maxFps": 65,
        "totalFrames": 66,
        "frameRates": 60
      },
      {
        "trial_number": 83,
        "trial_index": 572,
        "rt": 1493,
        "correct": true,
        "response": "ArrowLeft",
        "congruent": true,
        "gazeTowards": false,
        "gazeCondition": "away",
        "faceOnLeft": false,
        "impliedDirection": 180,
        "testDirection": 180,
        "avgFps": 59,
        "minFps": 30,
        "maxFps": 64,
        "totalFrames": 89,
        "frameRates": 59
      },
      {
        "trial_number": 84,
        "trial_index": 577,
        "rt": null,
        "correct": false,
        "response": null,
        "congruent": true,
        "gazeTowards": true,
        "gazeCondition": "towards",
        "faceOnLeft": false,
        "impliedDirection": 180,
        "testDirection": 180,
        "avgFps": 60,
        "minFps": 56,
        "maxFps": 65,
        "totalFrames": 120,
        "frameRates": 60
      },
      {
        "trial_number": 85,
        "trial_index": 582,
        "rt": 1279,
        "correct": true,
        "response": "ArrowLeft",
        "congruent": true,
        "gazeTowards": false,
        "gazeCondition": "away",
        "faceOnLeft": false,
        "impliedDirection": 180,
        "testDirection": 180,
        "avgFps": 59,
        "minFps": 31,
        "maxFps": 65,
        "totalFrames": 76,
        "frameRates": 59
      },
      {
        "trial_number": 86,
        "trial_index": 587,
        "rt": 1412,
        "correct": false,
        "response": "ArrowRight",
        "congruent": true,
        "gazeTowards": true,
        "gazeCondition": "towards",
        "faceOnLeft": false,
        "impliedDirection": 180,
        "testDirection": 180,
        "avgFps": 59,
        "minFps": 30,
        "maxFps": 63,
        "totalFrames": 84,
        "frameRates": 59
      },
      {
        "trial_number": 87,
        "trial_index": 592,
        "rt": 1235,
        "correct": true,
        "response": "ArrowLeft",
        "congruent": false,
        "gazeTowards": true,
        "gazeCondition": "towards",
        "faceOnLeft": true,
        "impliedDirection": 0,
        "testDirection": 180,
        "avgFps": 60,
        "minFps": 56,
        "maxFps": 64,
        "totalFrames": 74,
        "frameRates": 60
      },
      {
        "trial_number": 88,
        "trial_index": 600,
        "rt": 1110,
        "correct": true,
        "response": "ArrowLeft",
        "congruent": true,
        "gazeTowards": true,
        "gazeCondition": "towards",
        "faceOnLeft": false,
        "impliedDirection": 180,
        "testDirection": 180,
        "avgFps": 59,
        "minFps": 30,
        "maxFps": 64,
        "totalFrames": 66,
        "frameRates": 59
      },
      {
        "trial_number": 89,
        "trial_index": 605,
        "rt": 1344,
        "correct": true,
        "response": "ArrowLeft",
        "congruent": false,
        "gazeTowards": true,
        "gazeCondition": "towards",
        "faceOnLeft": true,
        "impliedDirection": 0,
        "testDirection": 180,
        "avgFps": 59,
        "minFps": 30,
        "maxFps": 65,
        "totalFrames": 80,
        "frameRates": 59
      },
      {
        "trial_number": 90,
        "trial_index": 611,
        "rt": 894,
        "correct": true,
        "response": "ArrowRight",
        "congruent": false,
        "gazeTowards": true,
        "gazeCondition": "towards",
        "faceOnLeft": false,
        "impliedDirection": 180,
        "testDirection": 0,
        "avgFps": 59,
        "minFps": 31,
        "maxFps": 63,
        "totalFrames": 53,
        "frameRates": 59
      },
      {
        "trial_number": 91,
        "trial_index": 616,
        "rt": 1211,
        "correct": true,
        "response": "ArrowRight",
        "congruent": true,
        "gazeTowards": false,
        "gazeCondition": "away",
        "faceOnLeft": true,
        "impliedDirection": 0,
        "testDirection": 0,
        "avgFps": 60,
        "minFps": 56,
        "maxFps": 65,
        "totalFrames": 72,
        "frameRates": 60
      },
      {
        "trial_number": 92,
        "trial_index": 624,
        "rt": 943,
        "correct": true,
        "response": "ArrowLeft",
        "congruent": false,
        "gazeTowards": true,
        "gazeCondition": "towards",
        "faceOnLeft": true,
        "impliedDirection": 0,
        "testDirection": 180,
        "avgFps": 60,
        "minFps": 57,
        "maxFps": 64,
        "totalFrames": 56,
        "frameRates": 60
      },
      {
        "trial_number": 93,
        "trial_index": 629,
        "rt": 857,
        "correct": true,
        "response": "ArrowLeft",
        "congruent": false,
        "gazeTowards": false,
        "gazeCondition": "away",
        "faceOnLeft": true,
        "impliedDirection": 0,
        "testDirection": 180,
        "avgFps": 60,
        "minFps": 57,
        "maxFps": 63,
        "totalFrames": 51,
        "frameRates": 60
      },
      {
        "trial_number": 94,
        "trial_index": 634,
        "rt": 1025,
        "correct": true,
        "response": "ArrowRight",
        "congruent": false,
        "gazeTowards": true,
        "gazeCondition": "towards",
        "faceOnLeft": false,
        "impliedDirection": 180,
        "testDirection": 0,
        "avgFps": 59,
        "minFps": 30,
        "maxFps": 64,
        "totalFrames": 61,
        "frameRates": 59
      },
      {
        "trial_number": 95,
        "trial_index": 639,
        "rt": 1188,
        "correct": true,
        "response": "ArrowRight",
        "congruent": true,
        "gazeTowards": false,
        "gazeCondition": "away",
        "faceOnLeft": true,
        "impliedDirection": 0,
        "testDirection": 0,
        "avgFps": 59,
        "minFps": 31,
        "maxFps": 64,
        "totalFrames": 70,
        "frameRates": 59
      },
      {
        "trial_number": 96,
        "trial_index": 644,
        "rt": 1024,
        "correct": true,
        "response": "ArrowRight",
        "congruent": false,
        "gazeTowards": true,
        "gazeCondition": "towards",
        "faceOnLeft": false,
        "impliedDirection": 180,
        "testDirection": 0,
        "avgFps": 59,
        "minFps": 31,
        "maxFps": 64,
        "totalFrames": 61,
        "frameRates": 59
      },
      {
        "trial_number": 97,
        "trial_index": 649,
        "rt": 1199,
        "correct": true,
        "response": "ArrowRight",
        "congruent": true,
        "gazeTowards": true,
        "gazeCondition": "towards",
        "faceOnLeft": true,
        "impliedDirection": 0,
        "testDirection": 0,
        "avgFps": 59,
        "minFps": 30,
        "maxFps": 64,
        "totalFrames": 71,
        "frameRates": 59
      },
      {
        "trial_number": 98,
        "trial_index": 654,
        "rt": 1066,
        "correct": true,
        "response": "ArrowRight",
        "congruent": false,
        "gazeTowards": true,
        "gazeCondition": "towards",
        "faceOnLeft": false,
        "impliedDirection": 180,
        "testDirection": 0,
        "avgFps": 60,
        "minFps": 57,
        "maxFps": 64,
        "totalFrames": 63,
        "frameRates": 60
      },
      {
        "trial_number": 99,
        "trial_index": 659,
        "rt": 1070,
        "correct": true,
        "response": "ArrowLeft",
        "congruent": true,
        "gazeTowards": true,
        "gazeCondition": "towards",
        "faceOnLeft": false,
        "impliedDirection": 180,
        "testDirection": 180,
        "avgFps": 60,
        "minFps": 60,
        "maxFps": 61,
        "totalFrames": 64,
        "frameRates": 60
      },
      {
        "trial_number": 100,
        "trial_index": 667,
        "rt": 1352,
        "correct": true,
        "response": "ArrowRight",
        "congruent": false,
        "gazeTowards": false,
        "gazeCondition": "away",
        "faceOnLeft": false,
        "impliedDirection": 180,
        "testDirection": 0,
        "avgFps": 60,
        "minFps": 56,
        "maxFps": 64,
        "totalFrames": 81,
        "frameRates": 60
      },
      {
        "trial_number": 101,
        "trial_index": 672,
        "rt": 973,
        "correct": true,
        "response": "ArrowLeft",
        "congruent": false,
        "gazeTowards": false,
        "gazeCondition": "away",
        "faceOnLeft": true,
        "impliedDirection": 0,
        "testDirection": 180,
        "avgFps": 60,
        "minFps": 56,
        "maxFps": 64,
        "totalFrames": 58,
        "frameRates": 60
      },
      {
        "trial_number": 102,
        "trial_index": 677,
        "rt": 924,
        "correct": true,
        "response": "ArrowRight",
        "congruent": true,
        "gazeTowards": false,
        "gazeCondition": "away",
        "faceOnLeft": true,
        "impliedDirection": 0,
        "testDirection": 0,
        "avgFps": 59,
        "minFps": 30,
        "maxFps": 64,
        "totalFrames": 55,
        "frameRates": 59
      },
      {
        "trial_number": 103,
        "trial_index": 682,
        "rt": 931,
        "correct": true,
        "response": "ArrowLeft",
        "congruent": false,
        "gazeTowards": false,
        "gazeCondition": "away",
        "faceOnLeft": true,
        "impliedDirection": 0,
        "testDirection": 180,
        "avgFps": 60,
        "minFps": 56,
        "maxFps": 64,
        "totalFrames": 55,
        "frameRates": 60
      },
      {
        "trial_number": 104,
        "trial_index": 687,
        "rt": 1184,
        "correct": true,
        "response": "ArrowLeft",
        "congruent": false,
        "gazeTowards": true,
        "gazeCondition": "towards",
        "faceOnLeft": true,
        "impliedDirection": 0,
        "testDirection": 180,
        "avgFps": 59,
        "minFps": 30,
        "maxFps": 64,
        "totalFrames": 70,
        "frameRates": 59
      },
      {
        "trial_number": 105,
        "trial_index": 692,
        "rt": 798,
        "correct": true,
        "response": "ArrowRight",
        "congruent": false,
        "gazeTowards": true,
        "gazeCondition": "towards",
        "faceOnLeft": false,
        "impliedDirection": 180,
        "testDirection": 0,
        "avgFps": 60,
        "minFps": 56,
        "maxFps": 64,
        "totalFrames": 48,
        "frameRates": 60
      },
      {
        "trial_number": 106,
        "trial_index": 697,
        "rt": 1218,
        "correct": true,
        "response": "ArrowRight",
        "congruent": true,
        "gazeTowards": true,
        "gazeCondition": "towards",
        "faceOnLeft": true,
        "impliedDirection": 0,
        "testDirection": 0,
        "avgFps": 59,
        "minFps": 30,
        "maxFps": 64,
        "totalFrames": 72,
        "frameRates": 59
      },
      {
        "trial_number": 107,
        "trial_index": 702,
        "rt": 1138,
        "correct": true,
        "response": "ArrowLeft",
        "congruent": true,
        "gazeTowards": false,
        "gazeCondition": "away",
        "faceOnLeft": false,
        "impliedDirection": 180,
        "testDirection": 180,
        "avgFps": 60,
        "minFps": 56,
        "maxFps": 64,
        "totalFrames": 68,
        "frameRates": 60
      },
      {
        "trial_number": 108,
        "trial_index": 707,
        "rt": 1204,
        "correct": true,
        "response": "ArrowRight",
        "congruent": true,
        "gazeTowards": true,
        "gazeCondition": "towards",
        "faceOnLeft": true,
        "impliedDirection": 0,
        "testDirection": 0,
        "avgFps": 60,
        "minFps": 56,
        "maxFps": 64,
        "totalFrames": 72,
        "frameRates": 60
      },
      {
        "trial_number": 109,
        "trial_index": 712,
        "rt": 1209,
        "correct": true,
        "response": "ArrowRight",
        "congruent": true,
        "gazeTowards": false,
        "gazeCondition": "away",
        "faceOnLeft": true,
        "impliedDirection": 0,
        "testDirection": 0,
        "avgFps": 59,
        "minFps": 30,
        "maxFps": 65,
        "totalFrames": 72,
        "frameRates": 59
      },
      {
        "trial_number": 110,
        "trial_index": 717,
        "rt": 1173,
        "correct": true,
        "response": "ArrowLeft",
        "congruent": true,
        "gazeTowards": false,
        "gazeCondition": "away",
        "faceOnLeft": false,
        "impliedDirection": 180,
        "testDirection": 180,
        "avgFps": 60,
        "minFps": 56,
        "maxFps": 64,
        "totalFrames": 70,
        "frameRates": 60
      },
      {
        "trial_number": 111,
        "trial_index": 722,
        "rt": 1259,
        "correct": true,
        "response": "ArrowRight",
        "congruent": false,
        "gazeTowards": false,
        "gazeCondition": "away",
        "faceOnLeft": false,
        "impliedDirection": 180,
        "testDirection": 0,
        "avgFps": 60,
        "minFps": 56,
        "maxFps": 64,
        "totalFrames": 75,
        "frameRates": 60
      },
      {
        "trial_number": 112,
        "trial_index": 727,
        "rt": 1006,
        "correct": true,
        "response": "ArrowLeft",
        "congruent": true,
        "gazeTowards": false,
        "gazeCondition": "away",
        "faceOnLeft": false,
        "impliedDirection": 180,
        "testDirection": 180,
        "avgFps": 59,
        "minFps": 30,
        "maxFps": 64,
        "totalFrames": 60,
        "frameRates": 59
      },
      {
        "trial_number": 113,
        "trial_index": 732,
        "rt": 1066,
        "correct": true,
        "response": "ArrowRight",
        "congruent": false,
        "gazeTowards": false,
        "gazeCondition": "away",
        "faceOnLeft": false,
        "impliedDirection": 180,
        "testDirection": 0,
        "avgFps": 60,
        "minFps": 56,
        "maxFps": 62,
        "totalFrames": 64,
        "frameRates": 60
      },
      {
        "trial_number": 114,
        "trial_index": 737,
        "rt": 1296,
        "correct": true,
        "response": "ArrowLeft",
        "congruent": false,
        "gazeTowards": false,
        "gazeCondition": "away",
        "faceOnLeft": true,
        "impliedDirection": 0,
        "testDirection": 180,
        "avgFps": 60,
        "minFps": 56,
        "maxFps": 65,
        "totalFrames": 78,
        "frameRates": 60
      },
      {
        "trial_number": 115,
        "trial_index": 742,
        "rt": 1320,
        "correct": true,
        "response": "ArrowRight",
        "congruent": false,
        "gazeTowards": true,
        "gazeCondition": "towards",
        "faceOnLeft": false,
        "impliedDirection": 180,
        "testDirection": 0,
        "avgFps": 60,
        "minFps": 56,
        "maxFps": 64,
        "totalFrames": 79,
        "frameRates": 60
      },
      {
        "trial_number": 116,
        "trial_index": 747,
        "rt": 1478,
        "correct": true,
        "response": "ArrowLeft",
        "congruent": false,
        "gazeTowards": false,
        "gazeCondition": "away",
        "faceOnLeft": true,
        "impliedDirection": 0,
        "testDirection": 180,
        "avgFps": 60,
        "minFps": 56,
        "maxFps": 64,
        "totalFrames": 88,
        "frameRates": 60
      },
      {
        "trial_number": 117,
        "trial_index": 755,
        "rt": 1119,
        "correct": true,
        "response": "ArrowLeft",
        "congruent": true,
        "gazeTowards": true,
        "gazeCondition": "towards",
        "faceOnLeft": false,
        "impliedDirection": 180,
        "testDirection": 180,
        "avgFps": 60,
        "minFps": 56,
        "maxFps": 64,
        "totalFrames": 67,
        "frameRates": 60
      },
      {
        "trial_number": 118,
        "trial_index": 760,
        "rt": 1164,
        "correct": true,
        "response": "ArrowRight",
        "congruent": true,
        "gazeTowards": true,
        "gazeCondition": "towards",
        "faceOnLeft": true,
        "impliedDirection": 0,
        "testDirection": 0,
        "avgFps": 60,
        "minFps": 56,
        "maxFps": 65,
        "totalFrames": 69,
        "frameRates": 60
      },
      {
        "trial_number": 119,
        "trial_index": 765,
        "rt": 1056,
        "correct": true,
        "response": "ArrowLeft",
        "congruent": true,
        "gazeTowards": false,
        "gazeCondition": "away",
        "faceOnLeft": false,
        "impliedDirection": 180,
        "testDirection": 180,
        "avgFps": 59,
        "minFps": 30,
        "maxFps": 64,
        "totalFrames": 63,
        "frameRates": 59
      }
    ],
    "catch": {
      "total": 12,
      "correct": 12,
      "accuracy": 100,
      "meanRT": 676,
      "trials": [
        {
          "trial_number": 0,
          "trial_index": 155,
          "rt": 897,
          "correct": true,
          "colorTarget": "face",
          "gazeTowards": true,
          "gazeCondition": "towards",
          "faceOnLeft": false
        },
        {
          "trial_number": 1,
          "trial_index": 188,
          "rt": 636,
          "correct": true,
          "colorTarget": "face",
          "gazeTowards": true,
          "gazeCondition": "towards",
          "faceOnLeft": false
        },
        {
          "trial_number": 2,
          "trial_index": 231,
          "rt": 673,
          "correct": true,
          "colorTarget": "face",
          "gazeTowards": true,
          "gazeCondition": "towards",
          "faceOnLeft": true
        },
        {
          "trial_number": 3,
          "trial_index": 295,
          "rt": 868,
          "correct": true,
          "colorTarget": "tree",
          "gazeTowards": true,
          "gazeCondition": "towards",
          "faceOnLeft": false
        },
        {
          "trial_number": 4,
          "trial_index": 318,
          "rt": 651,
          "correct": true,
          "colorTarget": "tree",
          "gazeTowards": true,
          "gazeCondition": "towards",
          "faceOnLeft": true
        },
        {
          "trial_number": 5,
          "trial_index": 386,
          "rt": 718,
          "correct": true,
          "colorTarget": "tree",
          "gazeTowards": true,
          "gazeCondition": "towards",
          "faceOnLeft": true
        },
        {
          "trial_number": 6,
          "trial_index": 515,
          "rt": 621,
          "correct": true,
          "colorTarget": "face",
          "gazeTowards": false,
          "gazeCondition": "away",
          "faceOnLeft": false
        },
        {
          "trial_number": 7,
          "trial_index": 543,
          "rt": 549,
          "correct": true,
          "colorTarget": "tree",
          "gazeTowards": true,
          "gazeCondition": "towards",
          "faceOnLeft": false
        },
        {
          "trial_number": 8,
          "trial_index": 596,
          "rt": 650,
          "correct": true,
          "colorTarget": "tree",
          "gazeTowards": true,
          "gazeCondition": "towards",
          "faceOnLeft": false
        },
        {
          "trial_number": 9,
          "trial_index": 620,
          "rt": 613,
          "correct": true,
          "colorTarget": "tree",
          "gazeTowards": false,
          "gazeCondition": "away",
          "faceOnLeft": false
        },
        {
          "trial_number": 10,
          "trial_index": 663,
          "rt": 613,
          "correct": true,
          "colorTarget": "face",
          "gazeTowards": false,
          "gazeCondition": "away",
          "faceOnLeft": true
        },
        {
          "trial_number": 11,
          "trial_index": 751,
          "rt": 620,
          "correct": true,
          "colorTarget": "face",
          "gazeTowards": true,
          "gazeCondition": "towards",
          "faceOnLeft": false
        }
      ]
    },
    "practice": {
      "trials": [
        {
          "trial_number": 0,
          "rt": null,
          "correct": false,
          "direction": 0
        },
        {
          "trial_number": 1,
          "rt": 975,
          "correct": false,
          "direction": 0
        },
        {
          "trial_number": 2,
          "rt": 1550,
          "correct": true,
          "direction": 0
        },
        {
          "trial_number": 3,
          "rt": 1302,
          "correct": true,
          "direction": 0
        },
        {
          "trial_number": 4,
          "rt": 1564,
          "correct": true,
          "direction": 180
        },
        {
          "trial_number": 5,
          "rt": 1582,
          "correct": false,
          "direction": 180
        },
        {
          "trial_number": 6,
          "rt": 1293,
          "correct": true,
          "direction": 0
        },
        {
          "trial_number": 7,
          "rt": 1540,
          "correct": true,
          "direction": 180
        },
        {
          "trial_number": 8,
          "rt": 1474,
          "correct": true,
          "direction": 180
        },
        {
          "trial_number": 9,
          "rt": 1363,
          "correct": true,
          "direction": 180
        },
        {
          "trial_number": 10,
          "rt": 1281,
          "correct": true,
          "direction": 0
        },
        {
          "trial_number": 11,
          "rt": 1350,
          "correct": true,
          "direction": 0
        },
        {
          "trial_number": 12,
          "rt": 1716,
          "correct": true,
          "direction": 0
        },
        {
          "trial_number": 13,
          "rt": 1166,
          "correct": false,
          "direction": 0
        },
        {
          "trial_number": 14,
          "rt": 1398,
          "correct": true,
          "direction": 180
        },
        {
          "trial_number": 15,
          "rt": 1447,
          "correct": false,
          "direction": 180
        },
        {
          "trial_number": 16,
          "rt": 1159,
          "correct": false,
          "direction": 0
        },
        {
          "trial_number": 17,
          "rt": 1599,
          "correct": false,
          "direction": 180
        },
        {
          "trial_number": 18,
          "rt": 1399,
          "correct": true,
          "direction": 180
        },
        {
          "trial_number": 19,
          "rt": 1754,
          "correct": true,
          "direction": 180
        },
        {
          "trial_number": 20,
          "rt": 1339,
          "correct": true,
          "direction": 0
        },
        {
          "trial_number": 21,
          "rt": 1710,
          "correct": false,
          "direction": 0
        },
        {
          "trial_number": 22,
          "rt": 1323,
          "correct": true,
          "direction": 0
        },
        {
          "trial_number": 23,
          "rt": 1452,
          "correct": true,
          "direction": 0
        },
        {
          "trial_number": 24,
          "rt": 949,
          "correct": true,
          "direction": 180
        },
        {
          "trial_number": 25,
          "rt": 1163,
          "correct": true,
          "direction": 180
        },
        {
          "trial_number": 26,
          "rt": 1008,
          "correct": true,
          "direction": 0
        },
        {
          "trial_number": 27,
          "rt": 1044,
          "correct": true,
          "direction": 180
        },
        {
          "trial_number": 28,
          "rt": 1458,
          "correct": true,
          "direction": 180
        },
        {
          "trial_number": 29,
          "rt": 1528,
          "correct": true,
          "direction": 180
        }
      ],
      "meanRT": 1375,
      "accuracy": 73
    }
  }
}