{
  "experiment": "rdk-face-1",
  "UUID": "b75e1735-64ed-45c6-9647-0427593d9b09",
  "data": {
    "session": {
      "experiment_version": "1.8.6",
      "treatment": "faces_towards_away_catch",
      "file_version": "1.8.6",
      "totalTrials": 120,
      "totalTrialsIncludingCatch": 132,
      "conditions": {
        "gazeTowardsCount": 60,
        "gazeAwayCount": 60,
        "gazeTowardsAccuracy": 87,
        "gazeAwayAccuracy": 87
      },
      "session_group": "default",
      "browserData": {
        "os": "Windows",
        "browser": "Chrome",
        "screenResolution": "1920x1080",
        "browserViewport": "1920x1080",
        "devicePixelRatio": 1,
        "colorDepth": 24,
        "hardwareConcurrency": 4,
        "deviceMemory": 8,
        "gpuRenderer": "Unknown",
        "measuredRefreshRateHz": 59
      },
      "attention": {
        "visibilityEvents": []
      },
      "calibration": {
        "monitorWidthCm": 38,
        "viewingDistanceCm": 54,
        "pixelsPerDegree": 50
      },
      "parameters": {
        "coherence": 0.4,
        "apertureDeg": 5,
        "densityDotsPerDeg2": 40,
        "dotDiameterDeg": 0.035,
        "dotSpeedDegPerSec": 3,
        "lifetimeMs": 200,
        "fixationDurationMs": 1500,
        "faceDurationMs": 1500,
        "testDurationMs": 2000,
        "catchResponseMs": 3000
      },
      "prolific": {
        "prolificPid": "63f77dc98bfabd95812edc2c",
        "studyId": "",
        "sessionId": ""
      },
      "timing": {
        "startTime": "2026-03-06T06:30:44.424Z",
        "endTime": "2026-03-06T06:44:51.686Z",
        "totalElapsedTimeMs": 847262
      }
    },
    "trials": [
      {
        "trial_number": 0,
        "trial_index": 49,
        "rt": 966,
        "correct": true,
        "response": "ArrowRight",
        "congruent": true,
        "gazeTowards": false,
        "gazeCondition": "away",
        "faceOnLeft": true,
        "impliedDirection": 0,
        "testDirection": 0,
        "avgFps": 61,
        "minFps": 60,
        "maxFps": 561,
        "totalFrames": 59,
        "frameRates": 61
      },
      {
        "trial_number": 1,
        "trial_index": 54,
        "rt": 1633,
        "correct": true,
        "response": "ArrowLeft",
        "congruent": true,
        "gazeTowards": true,
        "gazeCondition": "towards",
        "faceOnLeft": false,
        "impliedDirection": 180,
        "testDirection": 180,
        "avgFps": 60,
        "minFps": 44,
        "maxFps": 60,
        "totalFrames": 97,
        "frameRates": 60
      },
      {
        "trial_number": 2,
        "trial_index": 59,
        "rt": 1065,
        "correct": true,
        "response": "ArrowRight",
        "congruent": false,
        "gazeTowards": false,
        "gazeCondition": "away",
        "faceOnLeft": false,
        "impliedDirection": 180,
        "testDirection": 0,
        "avgFps": 60,
        "minFps": 59,
        "maxFps": 77,
        "totalFrames": 64,
        "frameRates": 60
      },
      {
        "trial_number": 3,
        "trial_index": 64,
        "rt": 789,
        "correct": true,
        "response": "ArrowLeft",
        "congruent": true,
        "gazeTowards": false,
        "gazeCondition": "away",
        "faceOnLeft": false,
        "impliedDirection": 180,
        "testDirection": 180,
        "avgFps": 61,
        "minFps": 58,
        "maxFps": 367,
        "totalFrames": 47,
        "frameRates": 61
      },
      {
        "trial_number": 4,
        "trial_index": 69,
        "rt": 959,
        "correct": true,
        "response": "ArrowLeft",
        "congruent": false,
        "gazeTowards": true,
        "gazeCondition": "towards",
        "faceOnLeft": true,
        "impliedDirection": 0,
        "testDirection": 180,
        "avgFps": 60,
        "minFps": 45,
        "maxFps": 110,
        "totalFrames": 58,
        "frameRates": 60
      },
      {
        "trial_number": 5,
        "trial_index": 74,
        "rt": 1463,
        "correct": false,
        "response": "ArrowRight",
        "congruent": true,
        "gazeTowards": true,
        "gazeCondition": "towards",
        "faceOnLeft": false,
        "impliedDirection": 180,
        "testDirection": 180,
        "avgFps": 60,
        "minFps": 59,
        "maxFps": 87,
        "totalFrames": 88,
        "frameRates": 60
      },
      {
        "trial_number": 6,
        "trial_index": 82,
        "rt": 1173,
        "correct": true,
        "response": "ArrowLeft",
        "congruent": true,
        "gazeTowards": true,
        "gazeCondition": "towards",
        "faceOnLeft": false,
        "impliedDirection": 180,
        "testDirection": 180,
        "avgFps": 60,
        "minFps": 59,
        "maxFps": 85,
        "totalFrames": 70,
        "frameRates": 60
      },
      {
        "trial_number": 7,
        "trial_index": 87,
        "rt": 891,
        "correct": true,
        "response": "ArrowRight",
        "congruent": false,
        "gazeTowards": true,
        "gazeCondition": "towards",
        "faceOnLeft": false,
        "impliedDirection": 180,
        "testDirection": 0,
        "avgFps": 60,
        "minFps": 56,
        "maxFps": 60,
        "totalFrames": 52,
        "frameRates": 60
      },
      {
        "trial_number": 8,
        "trial_index": 92,
        "rt": 1154,
        "correct": true,
        "response": "ArrowLeft",
        "congruent": false,
        "gazeTowards": true,
        "gazeCondition": "towards",
        "faceOnLeft": true,
        "impliedDirection": 0,
        "testDirection": 180,
        "avgFps": 60,
        "minFps": 48,
        "maxFps": 61,
        "totalFrames": 68,
        "frameRates": 60
      },
      {
        "trial_number": 9,
        "trial_index": 97,
        "rt": 858,
        "correct": true,
        "response": "ArrowRight",
        "congruent": true,
        "gazeTowards": true,
        "gazeCondition": "towards",
        "faceOnLeft": true,
        "impliedDirection": 0,
        "testDirection": 0,
        "avgFps": 60,
        "minFps": 54,
        "maxFps": 60,
        "totalFrames": 51,
        "frameRates": 60
      },
      {
        "trial_number": 10,
        "trial_index": 105,
        "rt": 1243,
        "correct": true,
        "response": "ArrowLeft",
        "congruent": false,
        "gazeTowards": true,
        "gazeCondition": "towards",
        "faceOnLeft": true,
        "impliedDirection": 0,
        "testDirection": 180,
        "avgFps": 60,
        "minFps": 60,
        "maxFps": 102,
        "totalFrames": 74,
        "frameRates": 60
      },
      {
        "trial_number": 11,
        "trial_index": 110,
        "rt": 1542,
        "correct": true,
        "response": "ArrowLeft",
        "congruent": true,
        "gazeTowards": true,
        "gazeCondition": "towards",
        "faceOnLeft": false,
        "impliedDirection": 180,
        "testDirection": 180,
        "avgFps": 60,
        "minFps": 60,
        "maxFps": 82,
        "totalFrames": 93,
        "frameRates": 60
      },
      {
        "trial_number": 12,
        "trial_index": 115,
        "rt": 1115,
        "correct": true,
        "response": "ArrowRight",
        "congruent": false,
        "gazeTowards": false,
        "gazeCondition": "away",
        "faceOnLeft": false,
        "impliedDirection": 180,
        "testDirection": 0,
        "avgFps": 60,
        "minFps": 51,
        "maxFps": 83,
        "totalFrames": 67,
        "frameRates": 60
      },
      {
        "trial_number": 13,
        "trial_index": 120,
        "rt": 1422,
        "correct": true,
        "response": "ArrowLeft",
        "congruent": true,
        "gazeTowards": false,
        "gazeCondition": "away",
        "faceOnLeft": false,
        "impliedDirection": 180,
        "testDirection": 180,
        "avgFps": 60,
        "minFps": 54,
        "maxFps": 61,
        "totalFrames": 85,
        "frameRates": 60
      },
      {
        "trial_number": 14,
        "trial_index": 125,
        "rt": 1791,
        "correct": false,
        "response": "ArrowRight",
        "congruent": true,
        "gazeTowards": false,
        "gazeCondition": "away",
        "faceOnLeft": false,
        "impliedDirection": 180,
        "testDirection": 180,
        "avgFps": 60,
        "minFps": 60,
        "maxFps": 73,
        "totalFrames": 107,
        "frameRates": 60
      },
      {
        "trial_number": 15,
        "trial_index": 130,
        "rt": 1603,
        "correct": true,
        "response": "ArrowRight",
        "congruent": false,
        "gazeTowards": false,
        "gazeCondition": "away",
        "faceOnLeft": false,
        "impliedDirection": 180,
        "testDirection": 0,
        "avgFps": 59,
        "minFps": 30,
        "maxFps": 61,
        "totalFrames": 94,
        "frameRates": 59
      },
      {
        "trial_number": 16,
        "trial_index": 135,
        "rt": 1853,
        "correct": true,
        "response": "ArrowRight",
        "congruent": false,
        "gazeTowards": true,
        "gazeCondition": "towards",
        "faceOnLeft": false,
        "impliedDirection": 180,
        "testDirection": 0,
        "avgFps": 60,
        "minFps": 44,
        "maxFps": 76,
        "totalFrames": 111,
        "frameRates": 60
      },
      {
        "trial_number": 17,
        "trial_index": 140,
        "rt": 939,
        "correct": true,
        "response": "ArrowLeft",
        "congruent": true,
        "gazeTowards": true,
        "gazeCondition": "towards",
        "faceOnLeft": false,
        "impliedDirection": 180,
        "testDirection": 180,
        "avgFps": 59,
        "minFps": 30,
        "maxFps": 129,
        "totalFrames": 55,
        "frameRates": 59
      },
      {
        "trial_number": 18,
        "trial_index": 145,
        "rt": null,
        "correct": false,
        "response": null,
        "congruent": true,
        "gazeTowards": true,
        "gazeCondition": "towards",
        "faceOnLeft": true,
        "impliedDirection": 0,
        "testDirection": 0,
        "avgFps": 60,
        "minFps": 60,
        "maxFps": 85,
        "totalFrames": 121,
        "frameRates": 60
      },
      {
        "trial_number": 19,
        "trial_index": 150,
        "rt": 1631,
        "correct": true,
        "response": "ArrowRight",
        "congruent": true,
        "gazeTowards": false,
        "gazeCondition": "away",
        "faceOnLeft": true,
        "impliedDirection": 0,
        "testDirection": 0,
        "avgFps": 60,
        "minFps": 60,
        "maxFps": 87,
        "totalFrames": 98,
        "frameRates": 60
      },
      {
        "trial_number": 20,
        "trial_index": 155,
        "rt": 794,
        "correct": true,
        "response": "ArrowLeft",
        "congruent": true,
        "gazeTowards": true,
        "gazeCondition": "towards",
        "faceOnLeft": false,
        "impliedDirection": 180,
        "testDirection": 180,
        "avgFps": 59,
        "minFps": 30,
        "maxFps": 85,
        "totalFrames": 47,
        "frameRates": 59
      },
      {
        "trial_number": 21,
        "trial_index": 160,
        "rt": 1230,
        "correct": true,
        "response": "ArrowRight",
        "congruent": false,
        "gazeTowards": true,
        "gazeCondition": "towards",
        "faceOnLeft": false,
        "impliedDirection": 180,
        "testDirection": 0,
        "avgFps": 61,
        "minFps": 59,
        "maxFps": 250,
        "totalFrames": 75,
        "frameRates": 61
      },
      {
        "trial_number": 22,
        "trial_index": 165,
        "rt": 1358,
        "correct": true,
        "response": "ArrowLeft",
        "congruent": false,
        "gazeTowards": false,
        "gazeCondition": "away",
        "faceOnLeft": true,
        "impliedDirection": 0,
        "testDirection": 180,
        "avgFps": 60,
        "minFps": 59,
        "maxFps": 97,
        "totalFrames": 81,
        "frameRates": 60
      },
      {
        "trial_number": 23,
        "trial_index": 170,
        "rt": 905,
        "correct": true,
        "response": "ArrowLeft",
        "congruent": true,
        "gazeTowards": false,
        "gazeCondition": "away",
        "faceOnLeft": false,
        "impliedDirection": 180,
        "testDirection": 180,
        "avgFps": 60,
        "minFps": 60,
        "maxFps": 83,
        "totalFrames": 54,
        "frameRates": 60
      },
      {
        "trial_number": 24,
        "trial_index": 175,
        "rt": 986,
        "correct": true,
        "response": "ArrowRight",
        "congruent": true,
        "gazeTowards": false,
        "gazeCondition": "away",
        "faceOnLeft": true,
        "impliedDirection": 0,
        "testDirection": 0,
        "avgFps": 61,
        "minFps": 59,
        "maxFps": 89,
        "totalFrames": 59,
        "frameRates": 61
      },
      {
        "trial_number": 25,
        "trial_index": 180,
        "rt": 1362,
        "correct": true,
        "response": "ArrowRight",
        "congruent": true,
        "gazeTowards": true,
        "gazeCondition": "towards",
        "faceOnLeft": true,
        "impliedDirection": 0,
        "testDirection": 0,
        "avgFps": 60,
        "minFps": 44,
        "maxFps": 63,
        "totalFrames": 81,
        "frameRates": 60
      },
      {
        "trial_number": 26,
        "trial_index": 185,
        "rt": 1538,
        "correct": true,
        "response": "ArrowRight",
        "congruent": true,
        "gazeTowards": true,
        "gazeCondition": "towards",
        "faceOnLeft": true,
        "impliedDirection": 0,
        "testDirection": 0,
        "avgFps": 60,
        "minFps": 54,
        "maxFps": 75,
        "totalFrames": 92,
        "frameRates": 60
      },
      {
        "trial_number": 27,
        "trial_index": 190,
        "rt": 995,
        "correct": true,
        "response": "ArrowLeft",
        "congruent": false,
        "gazeTowards": false,
        "gazeCondition": "away",
        "faceOnLeft": true,
        "impliedDirection": 0,
        "testDirection": 180,
        "avgFps": 60,
        "minFps": 59,
        "maxFps": 103,
        "totalFrames": 60,
        "frameRates": 60
      },
      {
        "trial_number": 28,
        "trial_index": 195,
        "rt": 839,
        "correct": true,
        "response": "ArrowRight",
        "congruent": false,
        "gazeTowards": false,
        "gazeCondition": "away",
        "faceOnLeft": false,
        "impliedDirection": 180,
        "testDirection": 0,
        "avgFps": 60,
        "minFps": 59,
        "maxFps": 64,
        "totalFrames": 50,
        "frameRates": 60
      },
      {
        "trial_number": 29,
        "trial_index": 200,
        "rt": 785,
        "correct": true,
        "response": "ArrowLeft",
        "congruent": true,
        "gazeTowards": true,
        "gazeCondition": "towards",
        "faceOnLeft": false,
        "impliedDirection": 180,
        "testDirection": 180,
        "avgFps": 61,
        "minFps": 60,
        "maxFps": 92,
        "totalFrames": 47,
        "frameRates": 61
      },
      {
        "trial_number": 30,
        "trial_index": 205,
        "rt": 1096,
        "correct": true,
        "response": "ArrowRight",
        "congruent": false,
        "gazeTowards": true,
        "gazeCondition": "towards",
        "faceOnLeft": false,
        "impliedDirection": 180,
        "testDirection": 0,
        "avgFps": 60,
        "minFps": 43,
        "maxFps": 61,
        "totalFrames": 65,
        "frameRates": 60
      },
      {
        "trial_number": 31,
        "trial_index": 211,
        "rt": 666,
        "correct": true,
        "response": "ArrowRight",
        "congruent": false,
        "gazeTowards": false,
        "gazeCondition": "away",
        "faceOnLeft": false,
        "impliedDirection": 180,
        "testDirection": 0,
        "avgFps": 61,
        "minFps": 43,
        "maxFps": 117,
        "totalFrames": 40,
        "frameRates": 61
      },
      {
        "trial_number": 32,
        "trial_index": 219,
        "rt": 1183,
        "correct": true,
        "response": "ArrowLeft",
        "congruent": false,
        "gazeTowards": false,
        "gazeCondition": "away",
        "faceOnLeft": true,
        "impliedDirection": 0,
        "testDirection": 180,
        "avgFps": 60,
        "minFps": 51,
        "maxFps": 61,
        "totalFrames": 70,
        "frameRates": 60
      },
      {
        "trial_number": 33,
        "trial_index": 224,
        "rt": 873,
        "correct": true,
        "response": "ArrowRight",
        "congruent": false,
        "gazeTowards": true,
        "gazeCondition": "towards",
        "faceOnLeft": false,
        "impliedDirection": 180,
        "testDirection": 0,
        "avgFps": 60,
        "minFps": 51,
        "maxFps": 61,
        "totalFrames": 52,
        "frameRates": 60
      },
      {
        "trial_number": 34,
        "trial_index": 229,
        "rt": 838,
        "correct": true,
        "response": "ArrowLeft",
        "congruent": false,
        "gazeTowards": false,
        "gazeCondition": "away",
        "faceOnLeft": true,
        "impliedDirection": 0,
        "testDirection": 180,
        "avgFps": 60,
        "minFps": 44,
        "maxFps": 72,
        "totalFrames": 50,
        "frameRates": 60
      },
      {
        "trial_number": 35,
        "trial_index": 234,
        "rt": 1238,
        "correct": true,
        "response": "ArrowRight",
        "congruent": true,
        "gazeTowards": false,
        "gazeCondition": "away",
        "faceOnLeft": true,
        "impliedDirection": 0,
        "testDirection": 0,
        "avgFps": 60,
        "minFps": 60,
        "maxFps": 85,
        "totalFrames": 74,
        "frameRates": 60
      },
      {
        "trial_number": 36,
        "trial_index": 239,
        "rt": 1155,
        "correct": true,
        "response": "ArrowLeft",
        "congruent": true,
        "gazeTowards": false,
        "gazeCondition": "away",
        "faceOnLeft": false,
        "impliedDirection": 180,
        "testDirection": 180,
        "avgFps": 60,
        "minFps": 57,
        "maxFps": 61,
        "totalFrames": 69,
        "frameRates": 60
      },
      {
        "trial_number": 37,
        "trial_index": 244,
        "rt": 1612,
        "correct": true,
        "response": "ArrowRight",
        "congruent": true,
        "gazeTowards": false,
        "gazeCondition": "away",
        "faceOnLeft": true,
        "impliedDirection": 0,
        "testDirection": 0,
        "avgFps": 60,
        "minFps": 59,
        "maxFps": 118,
        "totalFrames": 97,
        "frameRates": 60
      },
      {
        "trial_number": 38,
        "trial_index": 252,
        "rt": 926,
        "correct": true,
        "response": "ArrowRight",
        "congruent": false,
        "gazeTowards": true,
        "gazeCondition": "towards",
        "faceOnLeft": false,
        "impliedDirection": 180,
        "testDirection": 0,
        "avgFps": 60,
        "minFps": 51,
        "maxFps": 61,
        "totalFrames": 55,
        "frameRates": 60
      },
      {
        "trial_number": 39,
        "trial_index": 257,
        "rt": 899,
        "correct": true,
        "response": "ArrowLeft",
        "congruent": true,
        "gazeTowards": true,
        "gazeCondition": "towards",
        "faceOnLeft": false,
        "impliedDirection": 180,
        "testDirection": 180,
        "avgFps": 61,
        "minFps": 53,
        "maxFps": 510,
        "totalFrames": 54,
        "frameRates": 61
      },
      {
        "trial_number": 40,
        "trial_index": 262,
        "rt": 1279,
        "correct": true,
        "response": "ArrowRight",
        "congruent": false,
        "gazeTowards": true,
        "gazeCondition": "towards",
        "faceOnLeft": false,
        "impliedDirection": 180,
        "testDirection": 0,
        "avgFps": 60,
        "minFps": 53,
        "maxFps": 88,
        "totalFrames": 77,
        "frameRates": 60
      },
      {
        "trial_number": 41,
        "trial_index": 267,
        "rt": 1059,
        "correct": true,
        "response": "ArrowLeft",
        "congruent": false,
        "gazeTowards": true,
        "gazeCondition": "towards",
        "faceOnLeft": true,
        "impliedDirection": 0,
        "testDirection": 180,
        "avgFps": 60,
        "minFps": 49,
        "maxFps": 84,
        "totalFrames": 63,
        "frameRates": 60
      },
      {
        "trial_number": 42,
        "trial_index": 272,
        "rt": 825,
        "correct": true,
        "response": "ArrowRight",
        "congruent": false,
        "gazeTowards": true,
        "gazeCondition": "towards",
        "faceOnLeft": false,
        "impliedDirection": 180,
        "testDirection": 0,
        "avgFps": 60,
        "minFps": 60,
        "maxFps": 81,
        "totalFrames": 49,
        "frameRates": 60
      },
      {
        "trial_number": 43,
        "trial_index": 277,
        "rt": 1274,
        "correct": true,
        "response": "ArrowRight",
        "congruent": false,
        "gazeTowards": true,
        "gazeCondition": "towards",
        "faceOnLeft": false,
        "impliedDirection": 180,
        "testDirection": 0,
        "avgFps": 61,
        "minFps": 60,
        "maxFps": 111,
        "totalFrames": 77,
        "frameRates": 61
      },
      {
        "trial_number": 44,
        "trial_index": 282,
        "rt": 1761,
        "correct": false,
        "response": "ArrowLeft",
        "congruent": false,
        "gazeTowards": false,
        "gazeCondition": "away",
        "faceOnLeft": false,
        "impliedDirection": 180,
        "testDirection": 0,
        "avgFps": 61,
        "minFps": 59,
        "maxFps": 568,
        "totalFrames": 106,
        "frameRates": 61
      },
      {
        "trial_number": 45,
        "trial_index": 287,
        "rt": 1359,
        "correct": true,
        "response": "ArrowLeft",
        "congruent": true,
        "gazeTowards": false,
        "gazeCondition": "away",
        "faceOnLeft": false,
        "impliedDirection": 180,
        "testDirection": 180,
        "avgFps": 60,
        "minFps": 59,
        "maxFps": 76,
        "totalFrames": 82,
        "frameRates": 60
      },
      {
        "trial_number": 46,
        "trial_index": 292,
        "rt": 1367,
        "correct": true,
        "response": "ArrowRight",
        "congruent": true,
        "gazeTowards": true,
        "gazeCondition": "towards",
        "faceOnLeft": true,
        "impliedDirection": 0,
        "testDirection": 0,
        "avgFps": 60,
        "minFps": 60,
        "maxFps": 108,
        "totalFrames": 82,
        "frameRates": 60
      },
      {
        "trial_number": 47,
        "trial_index": 297,
        "rt": 1261,
        "correct": true,
        "response": "ArrowRight",
        "congruent": true,
        "gazeTowards": false,
        "gazeCondition": "away",
        "faceOnLeft": true,
        "impliedDirection": 0,
        "testDirection": 0,
        "avgFps": 60,
        "minFps": 60,
        "maxFps": 120,
        "totalFrames": 76,
        "frameRates": 60
      },
      {
        "trial_number": 48,
        "trial_index": 302,
        "rt": 1783,
        "correct": false,
        "response": "ArrowLeft",
        "congruent": true,
        "gazeTowards": true,
        "gazeCondition": "towards",
        "faceOnLeft": true,
        "impliedDirection": 0,
        "testDirection": 0,
        "avgFps": 60,
        "minFps": 53,
        "maxFps": 171,
        "totalFrames": 107,
        "frameRates": 60
      },
      {
        "trial_number": 49,
        "trial_index": 307,
        "rt": 1337,
        "correct": false,
        "response": "ArrowLeft",
        "congruent": false,
        "gazeTowards": true,
        "gazeCondition": "towards",
        "faceOnLeft": false,
        "impliedDirection": 180,
        "testDirection": 0,
        "avgFps": 60,
        "minFps": 60,
        "maxFps": 69,
        "totalFrames": 80,
        "frameRates": 60
      },
      {
        "trial_number": 50,
        "trial_index": 312,
        "rt": 1093,
        "correct": true,
        "response": "ArrowRight",
        "congruent": false,
        "gazeTowards": false,
        "gazeCondition": "away",
        "faceOnLeft": false,
        "impliedDirection": 180,
        "testDirection": 0,
        "avgFps": 60,
        "minFps": 60,
        "maxFps": 71,
        "totalFrames": 66,
        "frameRates": 60
      },
      {
        "trial_number": 51,
        "trial_index": 317,
        "rt": 1130,
        "correct": true,
        "response": "ArrowRight",
        "congruent": false,
        "gazeTowards": false,
        "gazeCondition": "away",
        "faceOnLeft": false,
        "impliedDirection": 180,
        "testDirection": 0,
        "avgFps": 61,
        "minFps": 60,
        "maxFps": 97,
        "totalFrames": 68,
        "frameRates": 61
      },
      {
        "trial_number": 52,
        "trial_index": 325,
        "rt": 1201,
        "correct": true,
        "response": "ArrowRight",
        "congruent": false,
        "gazeTowards": true,
        "gazeCondition": "towards",
        "faceOnLeft": false,
        "impliedDirection": 180,
        "testDirection": 0,
        "avgFps": 60,
        "minFps": 42,
        "maxFps": 61,
        "totalFrames": 71,
        "frameRates": 60
      },
      {
        "trial_number": 53,
        "trial_index": 330,
        "rt": 1563,
        "correct": false,
        "response": "ArrowLeft",
        "congruent": true,
        "gazeTowards": false,
        "gazeCondition": "away",
        "faceOnLeft": true,
        "impliedDirection": 0,
        "testDirection": 0,
        "avgFps": 60,
        "minFps": 43,
        "maxFps": 60,
        "totalFrames": 93,
        "frameRates": 60
      },
      {
        "trial_number": 54,
        "trial_index": 335,
        "rt": 941,
        "correct": true,
        "response": "ArrowLeft",
        "congruent": true,
        "gazeTowards": true,
        "gazeCondition": "towards",
        "faceOnLeft": false,
        "impliedDirection": 180,
        "testDirection": 180,
        "avgFps": 60,
        "minFps": 39,
        "maxFps": 91,
        "totalFrames": 56,
        "frameRates": 60
      },
      {
        "trial_number": 55,
        "trial_index": 340,
        "rt": 1276,
        "correct": true,
        "response": "ArrowRight",
        "congruent": true,
        "gazeTowards": false,
        "gazeCondition": "away",
        "faceOnLeft": true,
        "impliedDirection": 0,
        "testDirection": 0,
        "avgFps": 60,
        "minFps": 52,
        "maxFps": 83,
        "totalFrames": 77,
        "frameRates": 60
      },
      {
        "trial_number": 56,
        "trial_index": 345,
        "rt": 795,
        "correct": true,
        "response": "ArrowLeft",
        "congruent": false,
        "gazeTowards": true,
        "gazeCondition": "towards",
        "faceOnLeft": true,
        "impliedDirection": 0,
        "testDirection": 180,
        "avgFps": 61,
        "minFps": 59,
        "maxFps": 84,
        "totalFrames": 48,
        "frameRates": 61
      },
      {
        "trial_number": 57,
        "trial_index": 350,
        "rt": 1151,
        "correct": true,
        "response": "ArrowLeft",
        "congruent": true,
        "gazeTowards": true,
        "gazeCondition": "towards",
        "faceOnLeft": false,
        "impliedDirection": 180,
        "testDirection": 180,
        "avgFps": 60,
        "minFps": 60,
        "maxFps": 101,
        "totalFrames": 69,
        "frameRates": 60
      },
      {
        "trial_number": 58,
        "trial_index": 355,
        "rt": 1010,
        "correct": true,
        "response": "ArrowLeft",
        "congruent": true,
        "gazeTowards": true,
        "gazeCondition": "towards",
        "faceOnLeft": false,
        "impliedDirection": 180,
        "testDirection": 180,
        "avgFps": 60,
        "minFps": 45,
        "maxFps": 143,
        "totalFrames": 60,
        "frameRates": 60
      },
      {
        "trial_number": 59,
        "trial_index": 360,
        "rt": 946,
        "correct": true,
        "response": "ArrowLeft",
        "congruent": false,
        "gazeTowards": true,
        "gazeCondition": "towards",
        "faceOnLeft": true,
        "impliedDirection": 0,
        "testDirection": 180,
        "avgFps": 61,
        "minFps": 42,
        "maxFps": 838,
        "totalFrames": 57,
        "frameRates": 61
      },
      {
        "trial_number": 60,
        "trial_index": 365,
        "rt": 1695,
        "correct": false,
        "response": "ArrowRight",
        "congruent": false,
        "gazeTowards": false,
        "gazeCondition": "away",
        "faceOnLeft": true,
        "impliedDirection": 0,
        "testDirection": 180,
        "avgFps": 60,
        "minFps": 60,
        "maxFps": 82,
        "totalFrames": 101,
        "frameRates": 60
      },
      {
        "trial_number": 61,
        "trial_index": 371,
        "rt": 1123,
        "correct": true,
        "response": "ArrowRight",
        "congruent": true,
        "gazeTowards": false,
        "gazeCondition": "away",
        "faceOnLeft": true,
        "impliedDirection": 0,
        "testDirection": 0,
        "avgFps": 60,
        "minFps": 42,
        "maxFps": 60,
        "totalFrames": 66,
        "frameRates": 60
      },
      {
        "trial_number": 62,
        "trial_index": 376,
        "rt": 979,
        "correct": true,
        "response": "ArrowRight",
        "congruent": true,
        "gazeTowards": false,
        "gazeCondition": "away",
        "faceOnLeft": true,
        "impliedDirection": 0,
        "testDirection": 0,
        "avgFps": 60,
        "minFps": 45,
        "maxFps": 63,
        "totalFrames": 59,
        "frameRates": 60
      },
      {
        "trial_number": 63,
        "trial_index": 381,
        "rt": 1275,
        "correct": true,
        "response": "ArrowLeft",
        "congruent": false,
        "gazeTowards": true,
        "gazeCondition": "towards",
        "faceOnLeft": true,
        "impliedDirection": 0,
        "testDirection": 180,
        "avgFps": 60,
        "minFps": 60,
        "maxFps": 99,
        "totalFrames": 77,
        "frameRates": 60
      },
      {
        "trial_number": 64,
        "trial_index": 386,
        "rt": 1176,
        "correct": true,
        "response": "ArrowRight",
        "congruent": false,
        "gazeTowards": false,
        "gazeCondition": "away",
        "faceOnLeft": false,
        "impliedDirection": 180,
        "testDirection": 0,
        "avgFps": 60,
        "minFps": 50,
        "maxFps": 64,
        "totalFrames": 71,
        "frameRates": 60
      },
      {
        "trial_number": 65,
        "trial_index": 391,
        "rt": 1024,
        "correct": true,
        "response": "ArrowLeft",
        "congruent": false,
        "gazeTowards": false,
        "gazeCondition": "away",
        "faceOnLeft": true,
        "impliedDirection": 0,
        "testDirection": 180,
        "avgFps": 60,
        "minFps": 60,
        "maxFps": 61,
        "totalFrames": 61,
        "frameRates": 60
      },
      {
        "trial_number": 66,
        "trial_index": 399,
        "rt": 1663,
        "correct": true,
        "response": "ArrowLeft",
        "congruent": false,
        "gazeTowards": false,
        "gazeCondition": "away",
        "faceOnLeft": true,
        "impliedDirection": 0,
        "testDirection": 180,
        "avgFps": 60,
        "minFps": 30,
        "maxFps": 120,
        "totalFrames": 99,
        "frameRates": 60
      },
      {
        "trial_number": 67,
        "trial_index": 404,
        "rt": 1474,
        "correct": true,
        "response": "ArrowRight",
        "congruent": true,
        "gazeTowards": false,
        "gazeCondition": "away",
        "faceOnLeft": true,
        "impliedDirection": 0,
        "testDirection": 0,
        "avgFps": 60,
        "minFps": 46,
        "maxFps": 61,
        "totalFrames": 88,
        "frameRates": 60
      },
      {
        "trial_number": 68,
        "trial_index": 409,
        "rt": 1140,
        "correct": true,
        "response": "ArrowRight",
        "congruent": false,
        "gazeTowards": true,
        "gazeCondition": "towards",
        "faceOnLeft": false,
        "impliedDirection": 180,
        "testDirection": 0,
        "avgFps": 60,
        "minFps": 60,
        "maxFps": 70,
        "totalFrames": 68,
        "frameRates": 60
      },
      {
        "trial_number": 69,
        "trial_index": 414,
        "rt": 1163,
        "correct": true,
        "response": "ArrowRight",
        "congruent": false,
        "gazeTowards": false,
        "gazeCondition": "away",
        "faceOnLeft": false,
        "impliedDirection": 180,
        "testDirection": 0,
        "avgFps": 60,
        "minFps": 40,
        "maxFps": 60,
        "totalFrames": 69,
        "frameRates": 60
      },
      {
        "trial_number": 70,
        "trial_index": 419,
        "rt": 1080,
        "correct": true,
        "response": "ArrowLeft",
        "congruent": true,
        "gazeTowards": true,
        "gazeCondition": "towards",
        "faceOnLeft": false,
        "impliedDirection": 180,
        "testDirection": 180,
        "avgFps": 60,
        "minFps": 60,
        "maxFps": 82,
        "totalFrames": 65,
        "frameRates": 60
      },
      {
        "trial_number": 71,
        "trial_index": 424,
        "rt": 1635,
        "correct": false,
        "response": "ArrowRight",
        "congruent": false,
        "gazeTowards": false,
        "gazeCondition": "away",
        "faceOnLeft": true,
        "impliedDirection": 0,
        "testDirection": 180,
        "avgFps": 60,
        "minFps": 46,
        "maxFps": 61,
        "totalFrames": 97,
        "frameRates": 60
      },
      {
        "trial_number": 72,
        "trial_index": 429,
        "rt": 841,
        "correct": true,
        "response": "ArrowRight",
        "congruent": false,
        "gazeTowards": true,
        "gazeCondition": "towards",
        "faceOnLeft": false,
        "impliedDirection": 180,
        "testDirection": 0,
        "avgFps": 60,
        "minFps": 49,
        "maxFps": 62,
        "totalFrames": 50,
        "frameRates": 60
      },
      {
        "trial_number": 73,
        "trial_index": 434,
        "rt": 1002,
        "correct": true,
        "response": "ArrowRight",
        "congruent": false,
        "gazeTowards": false,
        "gazeCondition": "away",
        "faceOnLeft": false,
        "impliedDirection": 180,
        "testDirection": 0,
        "avgFps": 60,
        "minFps": 59,
        "maxFps": 63,
        "totalFrames": 59,
        "frameRates": 60
      },
      {
        "trial_number": 74,
        "trial_index": 439,
        "rt": 871,
        "correct": true,
        "response": "ArrowLeft",
        "congruent": true,
        "gazeTowards": false,
        "gazeCondition": "away",
        "faceOnLeft": false,
        "impliedDirection": 180,
        "testDirection": 180,
        "avgFps": 60,
        "minFps": 60,
        "maxFps": 82,
        "totalFrames": 52,
        "frameRates": 60
      },
      {
        "trial_number": 75,
        "trial_index": 447,
        "rt": 1040,
        "correct": true,
        "response": "ArrowLeft",
        "congruent": false,
        "gazeTowards": true,
        "gazeCondition": "towards",
        "faceOnLeft": true,
        "impliedDirection": 0,
        "testDirection": 180,
        "avgFps": 60,
        "minFps": 60,
        "maxFps": 85,
        "totalFrames": 62,
        "frameRates": 60
      },
      {
        "trial_number": 76,
        "trial_index": 452,
        "rt": 1582,
        "correct": true,
        "response": "ArrowLeft",
        "congruent": false,
        "gazeTowards": false,
        "gazeCondition": "away",
        "faceOnLeft": true,
        "impliedDirection": 0,
        "testDirection": 180,
        "avgFps": 60,
        "minFps": 59,
        "maxFps": 81,
        "totalFrames": 95,
        "frameRates": 60
      },
      {
        "trial_number": 77,
        "trial_index": 457,
        "rt": 1592,
        "correct": true,
        "response": "ArrowLeft",
        "congruent": false,
        "gazeTowards": false,
        "gazeCondition": "away",
        "faceOnLeft": true,
        "impliedDirection": 0,
        "testDirection": 180,
        "avgFps": 60,
        "minFps": 60,
        "maxFps": 114,
        "totalFrames": 95,
        "frameRates": 60
      },
      {
        "trial_number": 78,
        "trial_index": 462,
        "rt": 1147,
        "correct": true,
        "response": "ArrowRight",
        "congruent": true,
        "gazeTowards": true,
        "gazeCondition": "towards",
        "faceOnLeft": true,
        "impliedDirection": 0,
        "testDirection": 0,
        "avgFps": 60,
        "minFps": 51,
        "maxFps": 64,
        "totalFrames": 69,
        "frameRates": 60
      },
      {
        "trial_number": 79,
        "trial_index": 467,
        "rt": 1181,
        "correct": true,
        "response": "ArrowLeft",
        "congruent": false,
        "gazeTowards": true,
        "gazeCondition": "towards",
        "faceOnLeft": true,
        "impliedDirection": 0,
        "testDirection": 180,
        "avgFps": 61,
        "minFps": 60,
        "maxFps": 233,
        "totalFrames": 71,
        "frameRates": 61
      },
      {
        "trial_number": 80,
        "trial_index": 472,
        "rt": 1672,
        "correct": true,
        "response": "ArrowRight",
        "congruent": false,
        "gazeTowards": false,
        "gazeCondition": "away",
        "faceOnLeft": false,
        "impliedDirection": 180,
        "testDirection": 0,
        "avgFps": 60,
        "minFps": 60,
        "maxFps": 88,
        "totalFrames": 100,
        "frameRates": 60
      },
      {
        "trial_number": 81,
        "trial_index": 477,
        "rt": 1334,
        "correct": true,
        "response": "ArrowRight",
        "congruent": false,
        "gazeTowards": false,
        "gazeCondition": "away",
        "faceOnLeft": false,
        "impliedDirection": 180,
        "testDirection": 0,
        "avgFps": 60,
        "minFps": 44,
        "maxFps": 79,
        "totalFrames": 79,
        "frameRates": 60
      },
      {
        "trial_number": 82,
        "trial_index": 482,
        "rt": 889,
        "correct": true,
        "response": "ArrowLeft",
        "congruent": true,
        "gazeTowards": false,
        "gazeCondition": "away",
        "faceOnLeft": false,
        "impliedDirection": 180,
        "testDirection": 180,
        "avgFps": 60,
        "minFps": 53,
        "maxFps": 63,
        "totalFrames": 53,
        "frameRates": 60
      },
      {
        "trial_number": 83,
        "trial_index": 487,
        "rt": 1656,
        "correct": true,
        "response": "ArrowRight",
        "congruent": false,
        "gazeTowards": true,
        "gazeCondition": "towards",
        "faceOnLeft": false,
        "impliedDirection": 180,
        "testDirection": 0,
        "avgFps": 60,
        "minFps": 53,
        "maxFps": 106,
        "totalFrames": 99,
        "frameRates": 60
      },
      {
        "trial_number": 84,
        "trial_index": 492,
        "rt": 1914,
        "correct": true,
        "response": "ArrowRight",
        "congruent": true,
        "gazeTowards": true,
        "gazeCondition": "towards",
        "faceOnLeft": true,
        "impliedDirection": 0,
        "testDirection": 0,
        "avgFps": 60,
        "minFps": 40,
        "maxFps": 176,
        "totalFrames": 114,
        "frameRates": 60
      },
      {
        "trial_number": 85,
        "trial_index": 497,
        "rt": 1882,
        "correct": true,
        "response": "ArrowLeft",
        "congruent": false,
        "gazeTowards": false,
        "gazeCondition": "away",
        "faceOnLeft": true,
        "impliedDirection": 0,
        "testDirection": 180,
        "avgFps": 60,
        "minFps": 51,
        "maxFps": 82,
        "totalFrames": 113,
        "frameRates": 60
      },
      {
        "trial_number": 86,
        "trial_index": 502,
        "rt": 1349,
        "correct": true,
        "response": "ArrowRight",
        "congruent": true,
        "gazeTowards": false,
        "gazeCondition": "away",
        "faceOnLeft": true,
        "impliedDirection": 0,
        "testDirection": 0,
        "avgFps": 60,
        "minFps": 60,
        "maxFps": 77,
        "totalFrames": 81,
        "frameRates": 60
      },
      {
        "trial_number": 87,
        "trial_index": 507,
        "rt": null,
        "correct": false,
        "response": null,
        "congruent": false,
        "gazeTowards": false,
        "gazeCondition": "away",
        "faceOnLeft": true,
        "impliedDirection": 0,
        "testDirection": 180,
        "avgFps": 60,
        "minFps": 30,
        "maxFps": 75,
        "totalFrames": 119,
        "frameRates": 60
      },
      {
        "trial_number": 88,
        "trial_index": 515,
        "rt": 1986,
        "correct": false,
        "response": "ArrowLeft",
        "congruent": true,
        "gazeTowards": true,
        "gazeCondition": "towards",
        "faceOnLeft": true,
        "impliedDirection": 0,
        "testDirection": 0,
        "avgFps": 60,
        "minFps": 51,
        "maxFps": 60,
        "totalFrames": 118,
        "frameRates": 60
      },
      {
        "trial_number": 89,
        "trial_index": 520,
        "rt": 964,
        "correct": true,
        "response": "ArrowRight",
        "congruent": false,
        "gazeTowards": true,
        "gazeCondition": "towards",
        "faceOnLeft": false,
        "impliedDirection": 180,
        "testDirection": 0,
        "avgFps": 61,
        "minFps": 57,
        "maxFps": 155,
        "totalFrames": 58,
        "frameRates": 61
      },
      {
        "trial_number": 90,
        "trial_index": 525,
        "rt": 1086,
        "correct": true,
        "response": "ArrowLeft",
        "congruent": true,
        "gazeTowards": false,
        "gazeCondition": "away",
        "faceOnLeft": false,
        "impliedDirection": 180,
        "testDirection": 180,
        "avgFps": 61,
        "minFps": 60,
        "maxFps": 144,
        "totalFrames": 65,
        "frameRates": 61
      },
      {
        "trial_number": 91,
        "trial_index": 531,
        "rt": 1293,
        "correct": false,
        "response": "ArrowRight",
        "congruent": false,
        "gazeTowards": false,
        "gazeCondition": "away",
        "faceOnLeft": true,
        "impliedDirection": 0,
        "testDirection": 180,
        "avgFps": 61,
        "minFps": 56,
        "maxFps": 266,
        "totalFrames": 78,
        "frameRates": 61
      },
      {
        "trial_number": 92,
        "trial_index": 536,
        "rt": 1167,
        "correct": false,
        "response": "ArrowLeft",
        "congruent": true,
        "gazeTowards": true,
        "gazeCondition": "towards",
        "faceOnLeft": true,
        "impliedDirection": 0,
        "testDirection": 0,
        "avgFps": 60,
        "minFps": 58,
        "maxFps": 89,
        "totalFrames": 70,
        "frameRates": 60
      },
      {
        "trial_number": 93,
        "trial_index": 541,
        "rt": 1523,
        "correct": true,
        "response": "ArrowRight",
        "congruent": true,
        "gazeTowards": true,
        "gazeCondition": "towards",
        "faceOnLeft": true,
        "impliedDirection": 0,
        "testDirection": 0,
        "avgFps": 60,
        "minFps": 60,
        "maxFps": 112,
        "totalFrames": 92,
        "frameRates": 60
      },
      {
        "trial_number": 94,
        "trial_index": 546,
        "rt": 1560,
        "correct": false,
        "response": "ArrowLeft",
        "congruent": true,
        "gazeTowards": true,
        "gazeCondition": "towards",
        "faceOnLeft": true,
        "impliedDirection": 0,
        "testDirection": 0,
        "avgFps": 60,
        "minFps": 60,
        "maxFps": 109,
        "totalFrames": 94,
        "frameRates": 60
      },
      {
        "trial_number": 95,
        "trial_index": 551,
        "rt": 1362,
        "correct": true,
        "response": "ArrowLeft",
        "congruent": true,
        "gazeTowards": false,
        "gazeCondition": "away",
        "faceOnLeft": false,
        "impliedDirection": 180,
        "testDirection": 180,
        "avgFps": 60,
        "minFps": 52,
        "maxFps": 83,
        "totalFrames": 82,
        "frameRates": 60
      },
      {
        "trial_number": 96,
        "trial_index": 559,
        "rt": 1408,
        "correct": true,
        "response": "ArrowLeft",
        "congruent": false,
        "gazeTowards": true,
        "gazeCondition": "towards",
        "faceOnLeft": true,
        "impliedDirection": 0,
        "testDirection": 180,
        "avgFps": 60,
        "minFps": 43,
        "maxFps": 61,
        "totalFrames": 84,
        "frameRates": 60
      },
      {
        "trial_number": 97,
        "trial_index": 564,
        "rt": 1476,
        "correct": true,
        "response": "ArrowRight",
        "congruent": true,
        "gazeTowards": false,
        "gazeCondition": "away",
        "faceOnLeft": true,
        "impliedDirection": 0,
        "testDirection": 0,
        "avgFps": 60,
        "minFps": 60,
        "maxFps": 72,
        "totalFrames": 89,
        "frameRates": 60
      },
      {
        "trial_number": 98,
        "trial_index": 569,
        "rt": 1374,
        "correct": true,
        "response": "ArrowRight",
        "congruent": true,
        "gazeTowards": true,
        "gazeCondition": "towards",
        "faceOnLeft": true,
        "impliedDirection": 0,
        "testDirection": 0,
        "avgFps": 60,
        "minFps": 58,
        "maxFps": 73,
        "totalFrames": 82,
        "frameRates": 60
      },
      {
        "trial_number": 99,
        "trial_index": 574,
        "rt": 1446,
        "correct": false,
        "response": "ArrowRight",
        "congruent": false,
        "gazeTowards": false,
        "gazeCondition": "away",
        "faceOnLeft": true,
        "impliedDirection": 0,
        "testDirection": 180,
        "avgFps": 60,
        "minFps": 58,
        "maxFps": 123,
        "totalFrames": 87,
        "frameRates": 60
      },
      {
        "trial_number": 100,
        "trial_index": 579,
        "rt": 1149,
        "correct": true,
        "response": "ArrowLeft",
        "congruent": true,
        "gazeTowards": true,
        "gazeCondition": "towards",
        "faceOnLeft": false,
        "impliedDirection": 180,
        "testDirection": 180,
        "avgFps": 60,
        "minFps": 60,
        "maxFps": 66,
        "totalFrames": 69,
        "frameRates": 60
      },
      {
        "trial_number": 101,
        "trial_index": 587,
        "rt": 984,
        "correct": true,
        "response": "ArrowRight",
        "congruent": false,
        "gazeTowards": false,
        "gazeCondition": "away",
        "faceOnLeft": false,
        "impliedDirection": 180,
        "testDirection": 0,
        "avgFps": 60,
        "minFps": 60,
        "maxFps": 85,
        "totalFrames": 59,
        "frameRates": 60
      },
      {
        "trial_number": 102,
        "trial_index": 592,
        "rt": 1024,
        "correct": true,
        "response": "ArrowLeft",
        "congruent": true,
        "gazeTowards": false,
        "gazeCondition": "away",
        "faceOnLeft": false,
        "impliedDirection": 180,
        "testDirection": 180,
        "avgFps": 60,
        "minFps": 60,
        "maxFps": 85,
        "totalFrames": 61,
        "frameRates": 60
      },
      {
        "trial_number": 103,
        "trial_index": 597,
        "rt": 999,
        "correct": true,
        "response": "ArrowRight",
        "congruent": true,
        "gazeTowards": false,
        "gazeCondition": "away",
        "faceOnLeft": true,
        "impliedDirection": 0,
        "testDirection": 0,
        "avgFps": 60,
        "minFps": 42,
        "maxFps": 61,
        "totalFrames": 59,
        "frameRates": 60
      },
      {
        "trial_number": 104,
        "trial_index": 602,
        "rt": 1000,
        "correct": true,
        "response": "ArrowRight",
        "congruent": false,
        "gazeTowards": true,
        "gazeCondition": "towards",
        "faceOnLeft": false,
        "impliedDirection": 180,
        "testDirection": 0,
        "avgFps": 60,
        "minFps": 59,
        "maxFps": 70,
        "totalFrames": 60,
        "frameRates": 60
      },
      {
        "trial_number": 105,
        "trial_index": 610,
        "rt": 1382,
        "correct": true,
        "response": "ArrowLeft",
        "congruent": true,
        "gazeTowards": false,
        "gazeCondition": "away",
        "faceOnLeft": false,
        "impliedDirection": 180,
        "testDirection": 180,
        "avgFps": 60,
        "minFps": 59,
        "maxFps": 67,
        "totalFrames": 83,
        "frameRates": 60
      },
      {
        "trial_number": 106,
        "trial_index": 615,
        "rt": null,
        "correct": false,
        "response": null,
        "congruent": false,
        "gazeTowards": true,
        "gazeCondition": "towards",
        "faceOnLeft": true,
        "impliedDirection": 0,
        "testDirection": 180,
        "avgFps": 60,
        "minFps": 49,
        "maxFps": 442,
        "totalFrames": 120,
        "frameRates": 60
      },
      {
        "trial_number": 107,
        "trial_index": 620,
        "rt": 800,
        "correct": true,
        "response": "ArrowRight",
        "congruent": false,
        "gazeTowards": true,
        "gazeCondition": "towards",
        "faceOnLeft": false,
        "impliedDirection": 180,
        "testDirection": 0,
        "avgFps": 60,
        "minFps": 44,
        "maxFps": 89,
        "totalFrames": 48,
        "frameRates": 60
      },
      {
        "trial_number": 108,
        "trial_index": 625,
        "rt": 1052,
        "correct": true,
        "response": "ArrowRight",
        "congruent": false,
        "gazeTowards": true,
        "gazeCondition": "towards",
        "faceOnLeft": false,
        "impliedDirection": 180,
        "testDirection": 0,
        "avgFps": 60,
        "minFps": 60,
        "maxFps": 82,
        "totalFrames": 63,
        "frameRates": 60
      },
      {
        "trial_number": 109,
        "trial_index": 630,
        "rt": 1348,
        "correct": true,
        "response": "ArrowRight",
        "congruent": true,
        "gazeTowards": true,
        "gazeCondition": "towards",
        "faceOnLeft": true,
        "impliedDirection": 0,
        "testDirection": 0,
        "avgFps": 59,
        "minFps": 30,
        "maxFps": 65,
        "totalFrames": 80,
        "frameRates": 59
      },
      {
        "trial_number": 110,
        "trial_index": 635,
        "rt": 1020,
        "correct": true,
        "response": "ArrowRight",
        "congruent": true,
        "gazeTowards": true,
        "gazeCondition": "towards",
        "faceOnLeft": true,
        "impliedDirection": 0,
        "testDirection": 0,
        "avgFps": 60,
        "minFps": 47,
        "maxFps": 104,
        "totalFrames": 61,
        "frameRates": 60
      },
      {
        "trial_number": 111,
        "trial_index": 640,
        "rt": 701,
        "correct": true,
        "response": "ArrowLeft",
        "congruent": false,
        "gazeTowards": true,
        "gazeCondition": "towards",
        "faceOnLeft": true,
        "impliedDirection": 0,
        "testDirection": 180,
        "avgFps": 60,
        "minFps": 44,
        "maxFps": 62,
        "totalFrames": 41,
        "frameRates": 60
      },
      {
        "trial_number": 112,
        "trial_index": 645,
        "rt": 1159,
        "correct": true,
        "response": "ArrowRight",
        "congruent": true,
        "gazeTowards": false,
        "gazeCondition": "away",
        "faceOnLeft": true,
        "impliedDirection": 0,
        "testDirection": 0,
        "avgFps": 60,
        "minFps": 60,
        "maxFps": 119,
        "totalFrames": 69,
        "frameRates": 60
      },
      {
        "trial_number": 113,
        "trial_index": 650,
        "rt": 1224,
        "correct": true,
        "response": "ArrowLeft",
        "congruent": true,
        "gazeTowards": false,
        "gazeCondition": "away",
        "faceOnLeft": false,
        "impliedDirection": 180,
        "testDirection": 180,
        "avgFps": 60,
        "minFps": 48,
        "maxFps": 60,
        "totalFrames": 73,
        "frameRates": 60
      },
      {
        "trial_number": 114,
        "trial_index": 658,
        "rt": 1098,
        "correct": true,
        "response": "ArrowLeft",
        "congruent": true,
        "gazeTowards": true,
        "gazeCondition": "towards",
        "faceOnLeft": false,
        "impliedDirection": 180,
        "testDirection": 180,
        "avgFps": 60,
        "minFps": 60,
        "maxFps": 94,
        "totalFrames": 66,
        "frameRates": 60
      },
      {
        "trial_number": 115,
        "trial_index": 663,
        "rt": 1215,
        "correct": true,
        "response": "ArrowLeft",
        "congruent": true,
        "gazeTowards": false,
        "gazeCondition": "away",
        "faceOnLeft": false,
        "impliedDirection": 180,
        "testDirection": 180,
        "avgFps": 60,
        "minFps": 50,
        "maxFps": 106,
        "totalFrames": 73,
        "frameRates": 60
      },
      {
        "trial_number": 116,
        "trial_index": 668,
        "rt": 847,
        "correct": true,
        "response": "ArrowRight",
        "congruent": true,
        "gazeTowards": true,
        "gazeCondition": "towards",
        "faceOnLeft": true,
        "impliedDirection": 0,
        "testDirection": 0,
        "avgFps": 61,
        "minFps": 60,
        "maxFps": 152,
        "totalFrames": 51,
        "frameRates": 61
      },
      {
        "trial_number": 117,
        "trial_index": 673,
        "rt": 1276,
        "correct": true,
        "response": "ArrowRight",
        "congruent": false,
        "gazeTowards": false,
        "gazeCondition": "away",
        "faceOnLeft": false,
        "impliedDirection": 180,
        "testDirection": 0,
        "avgFps": 60,
        "minFps": 59,
        "maxFps": 69,
        "totalFrames": 76,
        "frameRates": 60
      },
      {
        "trial_number": 118,
        "trial_index": 678,
        "rt": 1152,
        "correct": true,
        "response": "ArrowLeft",
        "congruent": false,
        "gazeTowards": false,
        "gazeCondition": "away",
        "faceOnLeft": true,
        "impliedDirection": 0,
        "testDirection": 180,
        "avgFps": 60,
        "minFps": 48,
        "maxFps": 60,
        "totalFrames": 69,
        "frameRates": 60
      },
      {
        "trial_number": 119,
        "trial_index": 683,
        "rt": 1173,
        "correct": true,
        "response": "ArrowRight",
        "congruent": true,
        "gazeTowards": false,
        "gazeCondition": "away",
        "faceOnLeft": true,
        "impliedDirection": 0,
        "testDirection": 0,
        "avgFps": 60,
        "minFps": 45,
        "maxFps": 65,
        "totalFrames": 69,
        "frameRates": 60
      }
    ],
    "catch": {
      "total": 12,
      "correct": 12,
      "accuracy": 100,
      "meanRT": 786,
      "trials": [
        {
          "trial_number": 0,
          "trial_index": 78,
          "rt": 1539,
          "correct": true,
          "colorTarget": "tree",
          "gazeTowards": false,
          "gazeCondition": "away",
          "faceOnLeft": false
        },
        {
          "trial_number": 1,
          "trial_index": 101,
          "rt": 890,
          "correct": true,
          "colorTarget": "tree",
          "gazeTowards": true,
          "gazeCondition": "towards",
          "faceOnLeft": false
        },
        {
          "trial_number": 2,
          "trial_index": 215,
          "rt": 779,
          "correct": true,
          "colorTarget": "face",
          "gazeTowards": true,
          "gazeCondition": "towards",
          "faceOnLeft": true
        },
        {
          "trial_number": 3,
          "trial_index": 248,
          "rt": 805,
          "correct": true,
          "colorTarget": "tree",
          "gazeTowards": true,
          "gazeCondition": "towards",
          "faceOnLeft": true
        },
        {
          "trial_number": 4,
          "trial_index": 321,
          "rt": 705,
          "correct": true,
          "colorTarget": "tree",
          "gazeTowards": true,
          "gazeCondition": "towards",
          "faceOnLeft": false
        },
        {
          "trial_number": 5,
          "trial_index": 395,
          "rt": 604,
          "correct": true,
          "colorTarget": "tree",
          "gazeTowards": true,
          "gazeCondition": "towards",
          "faceOnLeft": false
        },
        {
          "trial_number": 6,
          "trial_index": 443,
          "rt": 791,
          "correct": true,
          "colorTarget": "face",
          "gazeTowards": false,
          "gazeCondition": "away",
          "faceOnLeft": false
        },
        {
          "trial_number": 7,
          "trial_index": 511,
          "rt": 728,
          "correct": true,
          "colorTarget": "face",
          "gazeTowards": false,
          "gazeCondition": "away",
          "faceOnLeft": true
        },
        {
          "trial_number": 8,
          "trial_index": 555,
          "rt": 666,
          "correct": true,
          "colorTarget": "face",
          "gazeTowards": false,
          "gazeCondition": "away",
          "faceOnLeft": true
        },
        {
          "trial_number": 9,
          "trial_index": 583,
          "rt": 604,
          "correct": true,
          "colorTarget": "face",
          "gazeTowards": true,
          "gazeCondition": "towards",
          "faceOnLeft": true
        },
        {
          "trial_number": 10,
          "trial_index": 606,
          "rt": 618,
          "correct": true,
          "colorTarget": "face",
          "gazeTowards": false,
          "gazeCondition": "away",
          "faceOnLeft": false
        },
        {
          "trial_number": 11,
          "trial_index": 654,
          "rt": 703,
          "correct": true,
          "colorTarget": "tree",
          "gazeTowards": false,
          "gazeCondition": "away",
          "faceOnLeft": true
        }
      ]
    },
    "practice": {
      "trials": [
        {
          "trial_number": 0,
          "rt": null,
          "correct": false,
          "direction": 180
        },
        {
          "trial_number": 1,
          "rt": 718,
          "correct": true,
          "direction": 0
        },
        {
          "trial_number": 2,
          "rt": 777,
          "correct": true,
          "direction": 180
        },
        {
          "trial_number": 3,
          "rt": 687,
          "correct": true,
          "direction": 0
        },
        {
          "trial_number": 4,
          "rt": 931,
          "correct": true,
          "direction": 180
        },
        {
          "trial_number": 5,
          "rt": 798,
          "correct": true,
          "direction": 0
        },
        {
          "trial_number": 6,
          "rt": 910,
          "correct": true,
          "direction": 0
        },
        {
          "trial_number": 7,
          "rt": 891,
          "correct": true,
          "direction": 180
        },
        {
          "trial_number": 8,
          "rt": 905,
          "correct": true,
          "direction": 0
        },
        {
          "trial_number": 9,
          "rt": 958,
          "correct": true,
          "direction": 0
        }
      ],
      "meanRT": 842,
      "accuracy": 90
    }
  }
}