{
  "experiment": "rdk-face-1",
  "UUID": "7c3004ca-b4c2-4224-96de-344e3fd693d7",
  "data": {
    "session": {
      "experiment_version": "1.8.6",
      "treatment": "faces_towards_away_catch",
      "file_version": "1.8.6",
      "totalTrials": 120,
      "totalTrialsIncludingCatch": 132,
      "conditions": {
        "gazeTowardsCount": 60,
        "gazeAwayCount": 60,
        "gazeTowardsAccuracy": 98,
        "gazeAwayAccuracy": 98
      },
      "session_group": "default",
      "browserData": {
        "os": "Windows",
        "browser": "Chrome",
        "screenResolution": "1463x915",
        "browserViewport": "1463x915",
        "devicePixelRatio": 1.75,
        "colorDepth": 32,
        "hardwareConcurrency": 20,
        "deviceMemory": 8,
        "gpuRenderer": "ANGLE (Intel, Intel(R) UHD Graphics (0x0000A720) Direct3D11 vs_5_0 ps_5_0, D3D11)",
        "measuredRefreshRateHz": 131
      },
      "attention": {
        "visibilityEvents": []
      },
      "calibration": {
        "monitorWidthCm": 38,
        "viewingDistanceCm": 54,
        "pixelsPerDegree": 50
      },
      "parameters": {
        "coherence": 0.4,
        "apertureDeg": 5,
        "densityDotsPerDeg2": 40,
        "dotDiameterDeg": 0.035,
        "dotSpeedDegPerSec": 3,
        "lifetimeMs": 200,
        "fixationDurationMs": 1500,
        "faceDurationMs": 1500,
        "testDurationMs": 2000,
        "catchResponseMs": 3000
      },
      "prolific": {
        "prolificPid": "66c36df6ecc2ac79afcddf7b",
        "studyId": "",
        "sessionId": ""
      },
      "timing": {
        "startTime": "2026-03-06T03:53:51.104Z",
        "endTime": "2026-03-06T04:09:02.172Z",
        "totalElapsedTimeMs": 911068
      }
    },
    "trials": [
      {
        "trial_number": 0,
        "trial_index": 90,
        "rt": 1282,
        "correct": true,
        "response": "ArrowLeft",
        "congruent": false,
        "gazeTowards": false,
        "gazeCondition": "away",
        "faceOnLeft": true,
        "impliedDirection": 0,
        "testDirection": 180,
        "avgFps": 239,
        "minFps": 106,
        "maxFps": 333,
        "totalFrames": 307,
        "frameRates": 239
      },
      {
        "trial_number": 1,
        "trial_index": 95,
        "rt": 1011,
        "correct": true,
        "response": "ArrowLeft",
        "congruent": true,
        "gazeTowards": false,
        "gazeCondition": "away",
        "faceOnLeft": false,
        "impliedDirection": 180,
        "testDirection": 180,
        "avgFps": 239,
        "minFps": 104,
        "maxFps": 370,
        "totalFrames": 242,
        "frameRates": 239
      },
      {
        "trial_number": 2,
        "trial_index": 103,
        "rt": 943,
        "correct": true,
        "response": "ArrowLeft",
        "congruent": true,
        "gazeTowards": true,
        "gazeCondition": "towards",
        "faceOnLeft": false,
        "impliedDirection": 180,
        "testDirection": 180,
        "avgFps": 240,
        "minFps": 222,
        "maxFps": 263,
        "totalFrames": 226,
        "frameRates": 240
      },
      {
        "trial_number": 3,
        "trial_index": 108,
        "rt": 1200,
        "correct": true,
        "response": "ArrowRight",
        "congruent": false,
        "gazeTowards": false,
        "gazeCondition": "away",
        "faceOnLeft": false,
        "impliedDirection": 180,
        "testDirection": 0,
        "avgFps": 240,
        "minFps": 213,
        "maxFps": 270,
        "totalFrames": 288,
        "frameRates": 240
      },
      {
        "trial_number": 4,
        "trial_index": 113,
        "rt": 1272,
        "correct": true,
        "response": "ArrowRight",
        "congruent": false,
        "gazeTowards": true,
        "gazeCondition": "towards",
        "faceOnLeft": false,
        "impliedDirection": 180,
        "testDirection": 0,
        "avgFps": 240,
        "minFps": 213,
        "maxFps": 270,
        "totalFrames": 305,
        "frameRates": 240
      },
      {
        "trial_number": 5,
        "trial_index": 118,
        "rt": 814,
        "correct": true,
        "response": "ArrowLeft",
        "congruent": true,
        "gazeTowards": false,
        "gazeCondition": "away",
        "faceOnLeft": false,
        "impliedDirection": 180,
        "testDirection": 180,
        "avgFps": 240,
        "minFps": 222,
        "maxFps": 270,
        "totalFrames": 195,
        "frameRates": 240
      },
      {
        "trial_number": 6,
        "trial_index": 123,
        "rt": 879,
        "correct": true,
        "response": "ArrowRight",
        "congruent": true,
        "gazeTowards": false,
        "gazeCondition": "away",
        "faceOnLeft": true,
        "impliedDirection": 0,
        "testDirection": 0,
        "avgFps": 240,
        "minFps": 227,
        "maxFps": 263,
        "totalFrames": 210,
        "frameRates": 240
      },
      {
        "trial_number": 7,
        "trial_index": 128,
        "rt": 1222,
        "correct": true,
        "response": "ArrowLeft",
        "congruent": true,
        "gazeTowards": false,
        "gazeCondition": "away",
        "faceOnLeft": false,
        "impliedDirection": 180,
        "testDirection": 180,
        "avgFps": 240,
        "minFps": 227,
        "maxFps": 263,
        "totalFrames": 293,
        "frameRates": 240
      },
      {
        "trial_number": 8,
        "trial_index": 133,
        "rt": 1006,
        "correct": true,
        "response": "ArrowLeft",
        "congruent": true,
        "gazeTowards": true,
        "gazeCondition": "towards",
        "faceOnLeft": false,
        "impliedDirection": 180,
        "testDirection": 180,
        "avgFps": 240,
        "minFps": 217,
        "maxFps": 263,
        "totalFrames": 241,
        "frameRates": 240
      },
      {
        "trial_number": 9,
        "trial_index": 138,
        "rt": 997,
        "correct": false,
        "response": "ArrowLeft",
        "congruent": true,
        "gazeTowards": true,
        "gazeCondition": "towards",
        "faceOnLeft": true,
        "impliedDirection": 0,
        "testDirection": 0,
        "avgFps": 240,
        "minFps": 227,
        "maxFps": 256,
        "totalFrames": 239,
        "frameRates": 240
      },
      {
        "trial_number": 10,
        "trial_index": 143,
        "rt": 1325,
        "correct": true,
        "response": "ArrowRight",
        "congruent": false,
        "gazeTowards": false,
        "gazeCondition": "away",
        "faceOnLeft": false,
        "impliedDirection": 180,
        "testDirection": 0,
        "avgFps": 240,
        "minFps": 217,
        "maxFps": 263,
        "totalFrames": 317,
        "frameRates": 240
      },
      {
        "trial_number": 11,
        "trial_index": 148,
        "rt": 688,
        "correct": true,
        "response": "ArrowRight",
        "congruent": true,
        "gazeTowards": false,
        "gazeCondition": "away",
        "faceOnLeft": true,
        "impliedDirection": 0,
        "testDirection": 0,
        "avgFps": 240,
        "minFps": 227,
        "maxFps": 270,
        "totalFrames": 165,
        "frameRates": 240
      },
      {
        "trial_number": 12,
        "trial_index": 153,
        "rt": 573,
        "correct": true,
        "response": "ArrowLeft",
        "congruent": false,
        "gazeTowards": true,
        "gazeCondition": "towards",
        "faceOnLeft": true,
        "impliedDirection": 0,
        "testDirection": 180,
        "avgFps": 240,
        "minFps": 227,
        "maxFps": 250,
        "totalFrames": 137,
        "frameRates": 240
      },
      {
        "trial_number": 13,
        "trial_index": 158,
        "rt": 830,
        "correct": true,
        "response": "ArrowRight",
        "congruent": false,
        "gazeTowards": false,
        "gazeCondition": "away",
        "faceOnLeft": false,
        "impliedDirection": 180,
        "testDirection": 0,
        "avgFps": 240,
        "minFps": 208,
        "maxFps": 278,
        "totalFrames": 199,
        "frameRates": 240
      },
      {
        "trial_number": 14,
        "trial_index": 163,
        "rt": 593,
        "correct": true,
        "response": "ArrowLeft",
        "congruent": false,
        "gazeTowards": false,
        "gazeCondition": "away",
        "faceOnLeft": true,
        "impliedDirection": 0,
        "testDirection": 180,
        "avgFps": 240,
        "minFps": 227,
        "maxFps": 263,
        "totalFrames": 142,
        "frameRates": 240
      },
      {
        "trial_number": 15,
        "trial_index": 168,
        "rt": 1037,
        "correct": true,
        "response": "ArrowLeft",
        "congruent": false,
        "gazeTowards": false,
        "gazeCondition": "away",
        "faceOnLeft": true,
        "impliedDirection": 0,
        "testDirection": 180,
        "avgFps": 240,
        "minFps": 227,
        "maxFps": 263,
        "totalFrames": 249,
        "frameRates": 240
      },
      {
        "trial_number": 16,
        "trial_index": 173,
        "rt": 707,
        "correct": true,
        "response": "ArrowRight",
        "congruent": false,
        "gazeTowards": true,
        "gazeCondition": "towards",
        "faceOnLeft": false,
        "impliedDirection": 180,
        "testDirection": 0,
        "avgFps": 239,
        "minFps": 102,
        "maxFps": 370,
        "totalFrames": 169,
        "frameRates": 239
      },
      {
        "trial_number": 17,
        "trial_index": 178,
        "rt": 803,
        "correct": true,
        "response": "ArrowRight",
        "congruent": false,
        "gazeTowards": false,
        "gazeCondition": "away",
        "faceOnLeft": false,
        "impliedDirection": 180,
        "testDirection": 0,
        "avgFps": 240,
        "minFps": 227,
        "maxFps": 256,
        "totalFrames": 192,
        "frameRates": 240
      },
      {
        "trial_number": 18,
        "trial_index": 183,
        "rt": 628,
        "correct": true,
        "response": "ArrowRight",
        "congruent": true,
        "gazeTowards": false,
        "gazeCondition": "away",
        "faceOnLeft": true,
        "impliedDirection": 0,
        "testDirection": 0,
        "avgFps": 239,
        "minFps": 125,
        "maxFps": 256,
        "totalFrames": 150,
        "frameRates": 239
      },
      {
        "trial_number": 19,
        "trial_index": 188,
        "rt": 542,
        "correct": true,
        "response": "ArrowLeft",
        "congruent": true,
        "gazeTowards": false,
        "gazeCondition": "away",
        "faceOnLeft": false,
        "impliedDirection": 180,
        "testDirection": 180,
        "avgFps": 240,
        "minFps": 227,
        "maxFps": 256,
        "totalFrames": 130,
        "frameRates": 240
      },
      {
        "trial_number": 20,
        "trial_index": 196,
        "rt": 533,
        "correct": true,
        "response": "ArrowRight",
        "congruent": false,
        "gazeTowards": true,
        "gazeCondition": "towards",
        "faceOnLeft": false,
        "impliedDirection": 180,
        "testDirection": 0,
        "avgFps": 240,
        "minFps": 227,
        "maxFps": 256,
        "totalFrames": 128,
        "frameRates": 240
      },
      {
        "trial_number": 21,
        "trial_index": 201,
        "rt": 614,
        "correct": true,
        "response": "ArrowRight",
        "congruent": false,
        "gazeTowards": true,
        "gazeCondition": "towards",
        "faceOnLeft": false,
        "impliedDirection": 180,
        "testDirection": 0,
        "avgFps": 240,
        "minFps": 227,
        "maxFps": 263,
        "totalFrames": 147,
        "frameRates": 240
      },
      {
        "trial_number": 22,
        "trial_index": 209,
        "rt": 659,
        "correct": true,
        "response": "ArrowLeft",
        "congruent": true,
        "gazeTowards": true,
        "gazeCondition": "towards",
        "faceOnLeft": false,
        "impliedDirection": 180,
        "testDirection": 180,
        "avgFps": 239,
        "minFps": 101,
        "maxFps": 417,
        "totalFrames": 157,
        "frameRates": 239
      },
      {
        "trial_number": 23,
        "trial_index": 214,
        "rt": 525,
        "correct": true,
        "response": "ArrowLeft",
        "congruent": false,
        "gazeTowards": false,
        "gazeCondition": "away",
        "faceOnLeft": true,
        "impliedDirection": 0,
        "testDirection": 180,
        "avgFps": 240,
        "minFps": 213,
        "maxFps": 278,
        "totalFrames": 126,
        "frameRates": 240
      },
      {
        "trial_number": 24,
        "trial_index": 219,
        "rt": 598,
        "correct": true,
        "response": "ArrowRight",
        "congruent": false,
        "gazeTowards": true,
        "gazeCondition": "towards",
        "faceOnLeft": false,
        "impliedDirection": 180,
        "testDirection": 0,
        "avgFps": 240,
        "minFps": 227,
        "maxFps": 256,
        "totalFrames": 143,
        "frameRates": 240
      },
      {
        "trial_number": 25,
        "trial_index": 224,
        "rt": 561,
        "correct": true,
        "response": "ArrowRight",
        "congruent": false,
        "gazeTowards": false,
        "gazeCondition": "away",
        "faceOnLeft": false,
        "impliedDirection": 180,
        "testDirection": 0,
        "avgFps": 240,
        "minFps": 227,
        "maxFps": 256,
        "totalFrames": 135,
        "frameRates": 240
      },
      {
        "trial_number": 26,
        "trial_index": 229,
        "rt": 913,
        "correct": true,
        "response": "ArrowRight",
        "congruent": true,
        "gazeTowards": true,
        "gazeCondition": "towards",
        "faceOnLeft": true,
        "impliedDirection": 0,
        "testDirection": 0,
        "avgFps": 240,
        "minFps": 208,
        "maxFps": 263,
        "totalFrames": 219,
        "frameRates": 240
      },
      {
        "trial_number": 27,
        "trial_index": 234,
        "rt": 979,
        "correct": true,
        "response": "ArrowRight",
        "congruent": true,
        "gazeTowards": true,
        "gazeCondition": "towards",
        "faceOnLeft": true,
        "impliedDirection": 0,
        "testDirection": 0,
        "avgFps": 240,
        "minFps": 227,
        "maxFps": 263,
        "totalFrames": 235,
        "frameRates": 240
      },
      {
        "trial_number": 28,
        "trial_index": 239,
        "rt": 1213,
        "correct": true,
        "response": "ArrowRight",
        "congruent": true,
        "gazeTowards": true,
        "gazeCondition": "towards",
        "faceOnLeft": true,
        "impliedDirection": 0,
        "testDirection": 0,
        "avgFps": 240,
        "minFps": 208,
        "maxFps": 286,
        "totalFrames": 291,
        "frameRates": 240
      },
      {
        "trial_number": 29,
        "trial_index": 244,
        "rt": 1179,
        "correct": true,
        "response": "ArrowLeft",
        "congruent": true,
        "gazeTowards": false,
        "gazeCondition": "away",
        "faceOnLeft": false,
        "impliedDirection": 180,
        "testDirection": 180,
        "avgFps": 240,
        "minFps": 227,
        "maxFps": 256,
        "totalFrames": 283,
        "frameRates": 240
      },
      {
        "trial_number": 30,
        "trial_index": 250,
        "rt": 825,
        "correct": true,
        "response": "ArrowRight",
        "congruent": true,
        "gazeTowards": false,
        "gazeCondition": "away",
        "faceOnLeft": true,
        "impliedDirection": 0,
        "testDirection": 0,
        "avgFps": 240,
        "minFps": 227,
        "maxFps": 256,
        "totalFrames": 198,
        "frameRates": 240
      },
      {
        "trial_number": 31,
        "trial_index": 255,
        "rt": 763,
        "correct": true,
        "response": "ArrowLeft",
        "congruent": false,
        "gazeTowards": false,
        "gazeCondition": "away",
        "faceOnLeft": true,
        "impliedDirection": 0,
        "testDirection": 180,
        "avgFps": 240,
        "minFps": 213,
        "maxFps": 256,
        "totalFrames": 183,
        "frameRates": 240
      },
      {
        "trial_number": 32,
        "trial_index": 260,
        "rt": 732,
        "correct": true,
        "response": "ArrowRight",
        "congruent": false,
        "gazeTowards": true,
        "gazeCondition": "towards",
        "faceOnLeft": false,
        "impliedDirection": 180,
        "testDirection": 0,
        "avgFps": 240,
        "minFps": 227,
        "maxFps": 256,
        "totalFrames": 176,
        "frameRates": 240
      },
      {
        "trial_number": 33,
        "trial_index": 265,
        "rt": 576,
        "correct": true,
        "response": "ArrowRight",
        "congruent": true,
        "gazeTowards": false,
        "gazeCondition": "away",
        "faceOnLeft": true,
        "impliedDirection": 0,
        "testDirection": 0,
        "avgFps": 240,
        "minFps": 222,
        "maxFps": 250,
        "totalFrames": 138,
        "frameRates": 240
      },
      {
        "trial_number": 34,
        "trial_index": 273,
        "rt": 528,
        "correct": true,
        "response": "ArrowLeft",
        "congruent": false,
        "gazeTowards": false,
        "gazeCondition": "away",
        "faceOnLeft": true,
        "impliedDirection": 0,
        "testDirection": 180,
        "avgFps": 238,
        "minFps": 111,
        "maxFps": 313,
        "totalFrames": 126,
        "frameRates": 238
      },
      {
        "trial_number": 35,
        "trial_index": 278,
        "rt": 670,
        "correct": true,
        "response": "ArrowRight",
        "congruent": false,
        "gazeTowards": true,
        "gazeCondition": "towards",
        "faceOnLeft": false,
        "impliedDirection": 180,
        "testDirection": 0,
        "avgFps": 240,
        "minFps": 227,
        "maxFps": 278,
        "totalFrames": 160,
        "frameRates": 240
      },
      {
        "trial_number": 36,
        "trial_index": 283,
        "rt": 977,
        "correct": true,
        "response": "ArrowLeft",
        "congruent": true,
        "gazeTowards": true,
        "gazeCondition": "towards",
        "faceOnLeft": false,
        "impliedDirection": 180,
        "testDirection": 180,
        "avgFps": 240,
        "minFps": 227,
        "maxFps": 250,
        "totalFrames": 234,
        "frameRates": 240
      },
      {
        "trial_number": 37,
        "trial_index": 288,
        "rt": 748,
        "correct": true,
        "response": "ArrowRight",
        "congruent": false,
        "gazeTowards": true,
        "gazeCondition": "towards",
        "faceOnLeft": false,
        "impliedDirection": 180,
        "testDirection": 0,
        "avgFps": 240,
        "minFps": 227,
        "maxFps": 256,
        "totalFrames": 178,
        "frameRates": 240
      },
      {
        "trial_number": 38,
        "trial_index": 293,
        "rt": 753,
        "correct": true,
        "response": "ArrowRight",
        "congruent": false,
        "gazeTowards": false,
        "gazeCondition": "away",
        "faceOnLeft": false,
        "impliedDirection": 180,
        "testDirection": 0,
        "avgFps": 240,
        "minFps": 227,
        "maxFps": 250,
        "totalFrames": 181,
        "frameRates": 240
      },
      {
        "trial_number": 39,
        "trial_index": 298,
        "rt": 446,
        "correct": true,
        "response": "ArrowLeft",
        "congruent": true,
        "gazeTowards": true,
        "gazeCondition": "towards",
        "faceOnLeft": false,
        "impliedDirection": 180,
        "testDirection": 180,
        "avgFps": 238,
        "minFps": 102,
        "maxFps": 435,
        "totalFrames": 106,
        "frameRates": 238
      },
      {
        "trial_number": 40,
        "trial_index": 303,
        "rt": 729,
        "correct": true,
        "response": "ArrowLeft",
        "congruent": false,
        "gazeTowards": false,
        "gazeCondition": "away",
        "faceOnLeft": true,
        "impliedDirection": 0,
        "testDirection": 180,
        "avgFps": 240,
        "minFps": 213,
        "maxFps": 294,
        "totalFrames": 175,
        "frameRates": 240
      },
      {
        "trial_number": 41,
        "trial_index": 308,
        "rt": 606,
        "correct": true,
        "response": "ArrowRight",
        "congruent": false,
        "gazeTowards": false,
        "gazeCondition": "away",
        "faceOnLeft": false,
        "impliedDirection": 180,
        "testDirection": 0,
        "avgFps": 240,
        "minFps": 173,
        "maxFps": 385,
        "totalFrames": 145,
        "frameRates": 240
      },
      {
        "trial_number": 42,
        "trial_index": 313,
        "rt": 537,
        "correct": true,
        "response": "ArrowLeft",
        "congruent": false,
        "gazeTowards": true,
        "gazeCondition": "towards",
        "faceOnLeft": true,
        "impliedDirection": 0,
        "testDirection": 180,
        "avgFps": 238,
        "minFps": 105,
        "maxFps": 345,
        "totalFrames": 128,
        "frameRates": 238
      },
      {
        "trial_number": 43,
        "trial_index": 318,
        "rt": 554,
        "correct": true,
        "response": "ArrowRight",
        "congruent": true,
        "gazeTowards": true,
        "gazeCondition": "towards",
        "faceOnLeft": true,
        "impliedDirection": 0,
        "testDirection": 0,
        "avgFps": 240,
        "minFps": 217,
        "maxFps": 286,
        "totalFrames": 132,
        "frameRates": 240
      },
      {
        "trial_number": 44,
        "trial_index": 326,
        "rt": 589,
        "correct": true,
        "response": "ArrowRight",
        "congruent": true,
        "gazeTowards": true,
        "gazeCondition": "towards",
        "faceOnLeft": true,
        "impliedDirection": 0,
        "testDirection": 0,
        "avgFps": 240,
        "minFps": 227,
        "maxFps": 263,
        "totalFrames": 141,
        "frameRates": 240
      },
      {
        "trial_number": 45,
        "trial_index": 331,
        "rt": 510,
        "correct": true,
        "response": "ArrowRight",
        "congruent": true,
        "gazeTowards": true,
        "gazeCondition": "towards",
        "faceOnLeft": true,
        "impliedDirection": 0,
        "testDirection": 0,
        "avgFps": 240,
        "minFps": 222,
        "maxFps": 263,
        "totalFrames": 122,
        "frameRates": 240
      },
      {
        "trial_number": 46,
        "trial_index": 336,
        "rt": 483,
        "correct": true,
        "response": "ArrowLeft",
        "congruent": true,
        "gazeTowards": true,
        "gazeCondition": "towards",
        "faceOnLeft": false,
        "impliedDirection": 180,
        "testDirection": 180,
        "avgFps": 238,
        "minFps": 114,
        "maxFps": 256,
        "totalFrames": 115,
        "frameRates": 238
      },
      {
        "trial_number": 47,
        "trial_index": 341,
        "rt": 600,
        "correct": true,
        "response": "ArrowLeft",
        "congruent": false,
        "gazeTowards": true,
        "gazeCondition": "towards",
        "faceOnLeft": true,
        "impliedDirection": 0,
        "testDirection": 180,
        "avgFps": 238,
        "minFps": 103,
        "maxFps": 357,
        "totalFrames": 143,
        "frameRates": 238
      },
      {
        "trial_number": 48,
        "trial_index": 346,
        "rt": 549,
        "correct": true,
        "response": "ArrowLeft",
        "congruent": false,
        "gazeTowards": true,
        "gazeCondition": "towards",
        "faceOnLeft": true,
        "impliedDirection": 0,
        "testDirection": 180,
        "avgFps": 240,
        "minFps": 227,
        "maxFps": 263,
        "totalFrames": 131,
        "frameRates": 240
      },
      {
        "trial_number": 49,
        "trial_index": 354,
        "rt": 626,
        "correct": true,
        "response": "ArrowLeft",
        "congruent": false,
        "gazeTowards": true,
        "gazeCondition": "towards",
        "faceOnLeft": true,
        "impliedDirection": 0,
        "testDirection": 180,
        "avgFps": 240,
        "minFps": 227,
        "maxFps": 256,
        "totalFrames": 150,
        "frameRates": 240
      },
      {
        "trial_number": 50,
        "trial_index": 359,
        "rt": 614,
        "correct": true,
        "response": "ArrowRight",
        "congruent": true,
        "gazeTowards": true,
        "gazeCondition": "towards",
        "faceOnLeft": true,
        "impliedDirection": 0,
        "testDirection": 0,
        "avgFps": 240,
        "minFps": 208,
        "maxFps": 286,
        "totalFrames": 147,
        "frameRates": 240
      },
      {
        "trial_number": 51,
        "trial_index": 364,
        "rt": 485,
        "correct": true,
        "response": "ArrowLeft",
        "congruent": true,
        "gazeTowards": true,
        "gazeCondition": "towards",
        "faceOnLeft": false,
        "impliedDirection": 180,
        "testDirection": 180,
        "avgFps": 238,
        "minFps": 109,
        "maxFps": 323,
        "totalFrames": 115,
        "frameRates": 238
      },
      {
        "trial_number": 52,
        "trial_index": 369,
        "rt": 488,
        "correct": true,
        "response": "ArrowRight",
        "congruent": false,
        "gazeTowards": true,
        "gazeCondition": "towards",
        "faceOnLeft": false,
        "impliedDirection": 180,
        "testDirection": 0,
        "avgFps": 240,
        "minFps": 227,
        "maxFps": 263,
        "totalFrames": 117,
        "frameRates": 240
      },
      {
        "trial_number": 53,
        "trial_index": 374,
        "rt": 594,
        "correct": true,
        "response": "ArrowRight",
        "congruent": false,
        "gazeTowards": false,
        "gazeCondition": "away",
        "faceOnLeft": false,
        "impliedDirection": 180,
        "testDirection": 0,
        "avgFps": 240,
        "minFps": 222,
        "maxFps": 250,
        "totalFrames": 142,
        "frameRates": 240
      },
      {
        "trial_number": 54,
        "trial_index": 379,
        "rt": 552,
        "correct": true,
        "response": "ArrowRight",
        "congruent": true,
        "gazeTowards": true,
        "gazeCondition": "towards",
        "faceOnLeft": true,
        "impliedDirection": 0,
        "testDirection": 0,
        "avgFps": 240,
        "minFps": 200,
        "maxFps": 278,
        "totalFrames": 132,
        "frameRates": 240
      },
      {
        "trial_number": 55,
        "trial_index": 384,
        "rt": 495,
        "correct": true,
        "response": "ArrowRight",
        "congruent": false,
        "gazeTowards": false,
        "gazeCondition": "away",
        "faceOnLeft": false,
        "impliedDirection": 180,
        "testDirection": 0,
        "avgFps": 240,
        "minFps": 222,
        "maxFps": 263,
        "totalFrames": 118,
        "frameRates": 240
      },
      {
        "trial_number": 56,
        "trial_index": 389,
        "rt": 430,
        "correct": true,
        "response": "ArrowLeft",
        "congruent": false,
        "gazeTowards": false,
        "gazeCondition": "away",
        "faceOnLeft": true,
        "impliedDirection": 0,
        "testDirection": 180,
        "avgFps": 240,
        "minFps": 222,
        "maxFps": 278,
        "totalFrames": 101,
        "frameRates": 240
      },
      {
        "trial_number": 57,
        "trial_index": 394,
        "rt": 548,
        "correct": true,
        "response": "ArrowLeft",
        "congruent": false,
        "gazeTowards": false,
        "gazeCondition": "away",
        "faceOnLeft": true,
        "impliedDirection": 0,
        "testDirection": 180,
        "avgFps": 238,
        "minFps": 103,
        "maxFps": 345,
        "totalFrames": 131,
        "frameRates": 238
      },
      {
        "trial_number": 58,
        "trial_index": 399,
        "rt": 422,
        "correct": true,
        "response": "ArrowRight",
        "congruent": true,
        "gazeTowards": true,
        "gazeCondition": "towards",
        "faceOnLeft": true,
        "impliedDirection": 0,
        "testDirection": 0,
        "avgFps": 241,
        "minFps": 227,
        "maxFps": 316,
        "totalFrames": 101,
        "frameRates": 241
      },
      {
        "trial_number": 59,
        "trial_index": 404,
        "rt": 501,
        "correct": true,
        "response": "ArrowLeft",
        "congruent": true,
        "gazeTowards": true,
        "gazeCondition": "towards",
        "faceOnLeft": false,
        "impliedDirection": 180,
        "testDirection": 180,
        "avgFps": 240,
        "minFps": 227,
        "maxFps": 256,
        "totalFrames": 120,
        "frameRates": 240
      },
      {
        "trial_number": 60,
        "trial_index": 413,
        "rt": 730,
        "correct": true,
        "response": "ArrowRight",
        "congruent": true,
        "gazeTowards": false,
        "gazeCondition": "away",
        "faceOnLeft": true,
        "impliedDirection": 0,
        "testDirection": 0,
        "avgFps": 240,
        "minFps": 217,
        "maxFps": 256,
        "totalFrames": 175,
        "frameRates": 240
      },
      {
        "trial_number": 61,
        "trial_index": 418,
        "rt": 584,
        "correct": true,
        "response": "ArrowLeft",
        "congruent": false,
        "gazeTowards": false,
        "gazeCondition": "away",
        "faceOnLeft": true,
        "impliedDirection": 0,
        "testDirection": 180,
        "avgFps": 240,
        "minFps": 227,
        "maxFps": 263,
        "totalFrames": 140,
        "frameRates": 240
      },
      {
        "trial_number": 62,
        "trial_index": 423,
        "rt": 702,
        "correct": true,
        "response": "ArrowRight",
        "congruent": true,
        "gazeTowards": false,
        "gazeCondition": "away",
        "faceOnLeft": true,
        "impliedDirection": 0,
        "testDirection": 0,
        "avgFps": 240,
        "minFps": 222,
        "maxFps": 256,
        "totalFrames": 168,
        "frameRates": 240
      },
      {
        "trial_number": 63,
        "trial_index": 428,
        "rt": 507,
        "correct": true,
        "response": "ArrowRight",
        "congruent": false,
        "gazeTowards": true,
        "gazeCondition": "towards",
        "faceOnLeft": false,
        "impliedDirection": 180,
        "testDirection": 0,
        "avgFps": 240,
        "minFps": 213,
        "maxFps": 256,
        "totalFrames": 122,
        "frameRates": 240
      },
      {
        "trial_number": 64,
        "trial_index": 433,
        "rt": 563,
        "correct": true,
        "response": "ArrowRight",
        "congruent": false,
        "gazeTowards": false,
        "gazeCondition": "away",
        "faceOnLeft": false,
        "impliedDirection": 180,
        "testDirection": 0,
        "avgFps": 240,
        "minFps": 222,
        "maxFps": 278,
        "totalFrames": 135,
        "frameRates": 240
      },
      {
        "trial_number": 65,
        "trial_index": 438,
        "rt": 735,
        "correct": true,
        "response": "ArrowRight",
        "congruent": false,
        "gazeTowards": true,
        "gazeCondition": "towards",
        "faceOnLeft": false,
        "impliedDirection": 180,
        "testDirection": 0,
        "avgFps": 239,
        "minFps": 106,
        "maxFps": 357,
        "totalFrames": 176,
        "frameRates": 239
      },
      {
        "trial_number": 66,
        "trial_index": 443,
        "rt": 725,
        "correct": true,
        "response": "ArrowLeft",
        "congruent": false,
        "gazeTowards": true,
        "gazeCondition": "towards",
        "faceOnLeft": true,
        "impliedDirection": 0,
        "testDirection": 180,
        "avgFps": 240,
        "minFps": 227,
        "maxFps": 270,
        "totalFrames": 173,
        "frameRates": 240
      },
      {
        "trial_number": 67,
        "trial_index": 448,
        "rt": 880,
        "correct": true,
        "response": "ArrowLeft",
        "congruent": false,
        "gazeTowards": true,
        "gazeCondition": "towards",
        "faceOnLeft": true,
        "impliedDirection": 0,
        "testDirection": 180,
        "avgFps": 240,
        "minFps": 227,
        "maxFps": 263,
        "totalFrames": 211,
        "frameRates": 240
      },
      {
        "trial_number": 68,
        "trial_index": 453,
        "rt": 432,
        "correct": true,
        "response": "ArrowRight",
        "congruent": false,
        "gazeTowards": true,
        "gazeCondition": "towards",
        "faceOnLeft": false,
        "impliedDirection": 180,
        "testDirection": 0,
        "avgFps": 240,
        "minFps": 227,
        "maxFps": 270,
        "totalFrames": 103,
        "frameRates": 240
      },
      {
        "trial_number": 69,
        "trial_index": 458,
        "rt": 503,
        "correct": true,
        "response": "ArrowRight",
        "congruent": true,
        "gazeTowards": false,
        "gazeCondition": "away",
        "faceOnLeft": true,
        "impliedDirection": 0,
        "testDirection": 0,
        "avgFps": 238,
        "minFps": 101,
        "maxFps": 370,
        "totalFrames": 120,
        "frameRates": 238
      },
      {
        "trial_number": 70,
        "trial_index": 463,
        "rt": 726,
        "correct": true,
        "response": "ArrowRight",
        "congruent": true,
        "gazeTowards": true,
        "gazeCondition": "towards",
        "faceOnLeft": true,
        "impliedDirection": 0,
        "testDirection": 0,
        "avgFps": 240,
        "minFps": 208,
        "maxFps": 278,
        "totalFrames": 174,
        "frameRates": 240
      },
      {
        "trial_number": 71,
        "trial_index": 468,
        "rt": 484,
        "correct": true,
        "response": "ArrowLeft",
        "congruent": true,
        "gazeTowards": true,
        "gazeCondition": "towards",
        "faceOnLeft": false,
        "impliedDirection": 180,
        "testDirection": 180,
        "avgFps": 240,
        "minFps": 233,
        "maxFps": 250,
        "totalFrames": 116,
        "frameRates": 240
      },
      {
        "trial_number": 72,
        "trial_index": 473,
        "rt": 468,
        "correct": true,
        "response": "ArrowLeft",
        "congruent": true,
        "gazeTowards": false,
        "gazeCondition": "away",
        "faceOnLeft": false,
        "impliedDirection": 180,
        "testDirection": 180,
        "avgFps": 240,
        "minFps": 213,
        "maxFps": 263,
        "totalFrames": 112,
        "frameRates": 240
      },
      {
        "trial_number": 73,
        "trial_index": 478,
        "rt": 441,
        "correct": true,
        "response": "ArrowLeft",
        "congruent": false,
        "gazeTowards": false,
        "gazeCondition": "away",
        "faceOnLeft": true,
        "impliedDirection": 0,
        "testDirection": 180,
        "avgFps": 238,
        "minFps": 125,
        "maxFps": 256,
        "totalFrames": 105,
        "frameRates": 238
      },
      {
        "trial_number": 74,
        "trial_index": 483,
        "rt": 742,
        "correct": true,
        "response": "ArrowRight",
        "congruent": true,
        "gazeTowards": true,
        "gazeCondition": "towards",
        "faceOnLeft": true,
        "impliedDirection": 0,
        "testDirection": 0,
        "avgFps": 240,
        "minFps": 161,
        "maxFps": 385,
        "totalFrames": 178,
        "frameRates": 240
      },
      {
        "trial_number": 75,
        "trial_index": 488,
        "rt": 511,
        "correct": true,
        "response": "ArrowLeft",
        "congruent": false,
        "gazeTowards": true,
        "gazeCondition": "towards",
        "faceOnLeft": true,
        "impliedDirection": 0,
        "testDirection": 180,
        "avgFps": 240,
        "minFps": 217,
        "maxFps": 263,
        "totalFrames": 122,
        "frameRates": 240
      },
      {
        "trial_number": 76,
        "trial_index": 493,
        "rt": 570,
        "correct": true,
        "response": "ArrowRight",
        "congruent": true,
        "gazeTowards": false,
        "gazeCondition": "away",
        "faceOnLeft": true,
        "impliedDirection": 0,
        "testDirection": 0,
        "avgFps": 240,
        "minFps": 227,
        "maxFps": 286,
        "totalFrames": 137,
        "frameRates": 240
      },
      {
        "trial_number": 77,
        "trial_index": 498,
        "rt": 489,
        "correct": true,
        "response": "ArrowLeft",
        "congruent": false,
        "gazeTowards": true,
        "gazeCondition": "towards",
        "faceOnLeft": true,
        "impliedDirection": 0,
        "testDirection": 180,
        "avgFps": 240,
        "minFps": 172,
        "maxFps": 333,
        "totalFrames": 117,
        "frameRates": 240
      },
      {
        "trial_number": 78,
        "trial_index": 503,
        "rt": 604,
        "correct": true,
        "response": "ArrowRight",
        "congruent": false,
        "gazeTowards": false,
        "gazeCondition": "away",
        "faceOnLeft": false,
        "impliedDirection": 180,
        "testDirection": 0,
        "avgFps": 240,
        "minFps": 227,
        "maxFps": 256,
        "totalFrames": 145,
        "frameRates": 240
      },
      {
        "trial_number": 79,
        "trial_index": 508,
        "rt": 828,
        "correct": true,
        "response": "ArrowRight",
        "congruent": true,
        "gazeTowards": false,
        "gazeCondition": "away",
        "faceOnLeft": true,
        "impliedDirection": 0,
        "testDirection": 0,
        "avgFps": 240,
        "minFps": 227,
        "maxFps": 256,
        "totalFrames": 199,
        "frameRates": 240
      },
      {
        "trial_number": 80,
        "trial_index": 513,
        "rt": 657,
        "correct": true,
        "response": "ArrowLeft",
        "congruent": false,
        "gazeTowards": true,
        "gazeCondition": "towards",
        "faceOnLeft": true,
        "impliedDirection": 0,
        "testDirection": 180,
        "avgFps": 239,
        "minFps": 109,
        "maxFps": 323,
        "totalFrames": 157,
        "frameRates": 239
      },
      {
        "trial_number": 81,
        "trial_index": 518,
        "rt": 542,
        "correct": true,
        "response": "ArrowRight",
        "congruent": true,
        "gazeTowards": false,
        "gazeCondition": "away",
        "faceOnLeft": true,
        "impliedDirection": 0,
        "testDirection": 0,
        "avgFps": 240,
        "minFps": 227,
        "maxFps": 263,
        "totalFrames": 130,
        "frameRates": 240
      },
      {
        "trial_number": 82,
        "trial_index": 523,
        "rt": 730,
        "correct": true,
        "response": "ArrowRight",
        "congruent": true,
        "gazeTowards": true,
        "gazeCondition": "towards",
        "faceOnLeft": true,
        "impliedDirection": 0,
        "testDirection": 0,
        "avgFps": 240,
        "minFps": 218,
        "maxFps": 278,
        "totalFrames": 175,
        "frameRates": 240
      },
      {
        "trial_number": 83,
        "trial_index": 528,
        "rt": 565,
        "correct": true,
        "response": "ArrowLeft",
        "congruent": true,
        "gazeTowards": false,
        "gazeCondition": "away",
        "faceOnLeft": false,
        "impliedDirection": 180,
        "testDirection": 180,
        "avgFps": 240,
        "minFps": 222,
        "maxFps": 256,
        "totalFrames": 135,
        "frameRates": 240
      },
      {
        "trial_number": 84,
        "trial_index": 533,
        "rt": 631,
        "correct": true,
        "response": "ArrowRight",
        "congruent": true,
        "gazeTowards": false,
        "gazeCondition": "away",
        "faceOnLeft": true,
        "impliedDirection": 0,
        "testDirection": 0,
        "avgFps": 240,
        "minFps": 227,
        "maxFps": 263,
        "totalFrames": 151,
        "frameRates": 240
      },
      {
        "trial_number": 85,
        "trial_index": 538,
        "rt": 569,
        "correct": true,
        "response": "ArrowLeft",
        "congruent": true,
        "gazeTowards": false,
        "gazeCondition": "away",
        "faceOnLeft": false,
        "impliedDirection": 180,
        "testDirection": 180,
        "avgFps": 240,
        "minFps": 217,
        "maxFps": 286,
        "totalFrames": 136,
        "frameRates": 240
      },
      {
        "trial_number": 86,
        "trial_index": 543,
        "rt": 551,
        "correct": true,
        "response": "ArrowLeft",
        "congruent": true,
        "gazeTowards": true,
        "gazeCondition": "towards",
        "faceOnLeft": false,
        "impliedDirection": 180,
        "testDirection": 180,
        "avgFps": 240,
        "minFps": 227,
        "maxFps": 256,
        "totalFrames": 132,
        "frameRates": 240
      },
      {
        "trial_number": 87,
        "trial_index": 548,
        "rt": 506,
        "correct": true,
        "response": "ArrowRight",
        "congruent": false,
        "gazeTowards": true,
        "gazeCondition": "towards",
        "faceOnLeft": false,
        "impliedDirection": 180,
        "testDirection": 0,
        "avgFps": 240,
        "minFps": 227,
        "maxFps": 263,
        "totalFrames": 121,
        "frameRates": 240
      },
      {
        "trial_number": 88,
        "trial_index": 553,
        "rt": 917,
        "correct": true,
        "response": "ArrowRight",
        "congruent": true,
        "gazeTowards": false,
        "gazeCondition": "away",
        "faceOnLeft": true,
        "impliedDirection": 0,
        "testDirection": 0,
        "avgFps": 240,
        "minFps": 222,
        "maxFps": 256,
        "totalFrames": 219,
        "frameRates": 240
      },
      {
        "trial_number": 89,
        "trial_index": 558,
        "rt": 905,
        "correct": true,
        "response": "ArrowRight",
        "congruent": true,
        "gazeTowards": true,
        "gazeCondition": "towards",
        "faceOnLeft": true,
        "impliedDirection": 0,
        "testDirection": 0,
        "avgFps": 240,
        "minFps": 227,
        "maxFps": 256,
        "totalFrames": 217,
        "frameRates": 240
      },
      {
        "trial_number": 90,
        "trial_index": 563,
        "rt": 798,
        "correct": true,
        "response": "ArrowLeft",
        "congruent": true,
        "gazeTowards": true,
        "gazeCondition": "towards",
        "faceOnLeft": false,
        "impliedDirection": 180,
        "testDirection": 180,
        "avgFps": 240,
        "minFps": 222,
        "maxFps": 256,
        "totalFrames": 191,
        "frameRates": 240
      },
      {
        "trial_number": 91,
        "trial_index": 568,
        "rt": 727,
        "correct": true,
        "response": "ArrowLeft",
        "congruent": false,
        "gazeTowards": false,
        "gazeCondition": "away",
        "faceOnLeft": true,
        "impliedDirection": 0,
        "testDirection": 180,
        "avgFps": 240,
        "minFps": 227,
        "maxFps": 250,
        "totalFrames": 174,
        "frameRates": 240
      },
      {
        "trial_number": 92,
        "trial_index": 574,
        "rt": 567,
        "correct": true,
        "response": "ArrowLeft",
        "congruent": true,
        "gazeTowards": false,
        "gazeCondition": "away",
        "faceOnLeft": false,
        "impliedDirection": 180,
        "testDirection": 180,
        "avgFps": 240,
        "minFps": 217,
        "maxFps": 256,
        "totalFrames": 135,
        "frameRates": 240
      },
      {
        "trial_number": 93,
        "trial_index": 579,
        "rt": 457,
        "correct": true,
        "response": "ArrowLeft",
        "congruent": false,
        "gazeTowards": true,
        "gazeCondition": "towards",
        "faceOnLeft": true,
        "impliedDirection": 0,
        "testDirection": 180,
        "avgFps": 238,
        "minFps": 105,
        "maxFps": 370,
        "totalFrames": 109,
        "frameRates": 238
      },
      {
        "trial_number": 94,
        "trial_index": 584,
        "rt": 480,
        "correct": true,
        "response": "ArrowLeft",
        "congruent": true,
        "gazeTowards": false,
        "gazeCondition": "away",
        "faceOnLeft": false,
        "impliedDirection": 180,
        "testDirection": 180,
        "avgFps": 240,
        "minFps": 227,
        "maxFps": 250,
        "totalFrames": 115,
        "frameRates": 240
      },
      {
        "trial_number": 95,
        "trial_index": 589,
        "rt": 593,
        "correct": true,
        "response": "ArrowRight",
        "congruent": false,
        "gazeTowards": true,
        "gazeCondition": "towards",
        "faceOnLeft": false,
        "impliedDirection": 180,
        "testDirection": 0,
        "avgFps": 238,
        "minFps": 125,
        "maxFps": 256,
        "totalFrames": 142,
        "frameRates": 238
      },
      {
        "trial_number": 96,
        "trial_index": 594,
        "rt": 642,
        "correct": true,
        "response": "ArrowRight",
        "congruent": false,
        "gazeTowards": true,
        "gazeCondition": "towards",
        "faceOnLeft": false,
        "impliedDirection": 180,
        "testDirection": 0,
        "avgFps": 240,
        "minFps": 213,
        "maxFps": 278,
        "totalFrames": 154,
        "frameRates": 240
      },
      {
        "trial_number": 97,
        "trial_index": 599,
        "rt": 606,
        "correct": true,
        "response": "ArrowRight",
        "congruent": false,
        "gazeTowards": false,
        "gazeCondition": "away",
        "faceOnLeft": false,
        "impliedDirection": 180,
        "testDirection": 0,
        "avgFps": 240,
        "minFps": 227,
        "maxFps": 256,
        "totalFrames": 145,
        "frameRates": 240
      },
      {
        "trial_number": 98,
        "trial_index": 604,
        "rt": 698,
        "correct": true,
        "response": "ArrowRight",
        "congruent": true,
        "gazeTowards": false,
        "gazeCondition": "away",
        "faceOnLeft": true,
        "impliedDirection": 0,
        "testDirection": 0,
        "avgFps": 239,
        "minFps": 128,
        "maxFps": 256,
        "totalFrames": 167,
        "frameRates": 239
      },
      {
        "trial_number": 99,
        "trial_index": 609,
        "rt": 439,
        "correct": true,
        "response": "ArrowLeft",
        "congruent": true,
        "gazeTowards": false,
        "gazeCondition": "away",
        "faceOnLeft": false,
        "impliedDirection": 180,
        "testDirection": 180,
        "avgFps": 238,
        "minFps": 109,
        "maxFps": 323,
        "totalFrames": 104,
        "frameRates": 238
      },
      {
        "trial_number": 100,
        "trial_index": 614,
        "rt": 839,
        "correct": false,
        "response": "ArrowRight",
        "congruent": false,
        "gazeTowards": false,
        "gazeCondition": "away",
        "faceOnLeft": true,
        "impliedDirection": 0,
        "testDirection": 180,
        "avgFps": 240,
        "minFps": 217,
        "maxFps": 278,
        "totalFrames": 201,
        "frameRates": 240
      },
      {
        "trial_number": 101,
        "trial_index": 619,
        "rt": 608,
        "correct": true,
        "response": "ArrowRight",
        "congruent": true,
        "gazeTowards": true,
        "gazeCondition": "towards",
        "faceOnLeft": true,
        "impliedDirection": 0,
        "testDirection": 0,
        "avgFps": 240,
        "minFps": 217,
        "maxFps": 263,
        "totalFrames": 146,
        "frameRates": 240
      },
      {
        "trial_number": 102,
        "trial_index": 624,
        "rt": 534,
        "correct": true,
        "response": "ArrowRight",
        "congruent": true,
        "gazeTowards": true,
        "gazeCondition": "towards",
        "faceOnLeft": true,
        "impliedDirection": 0,
        "testDirection": 0,
        "avgFps": 240,
        "minFps": 227,
        "maxFps": 256,
        "totalFrames": 128,
        "frameRates": 240
      },
      {
        "trial_number": 103,
        "trial_index": 629,
        "rt": 429,
        "correct": true,
        "response": "ArrowLeft",
        "congruent": false,
        "gazeTowards": true,
        "gazeCondition": "towards",
        "faceOnLeft": true,
        "impliedDirection": 0,
        "testDirection": 180,
        "avgFps": 238,
        "minFps": 110,
        "maxFps": 303,
        "totalFrames": 102,
        "frameRates": 238
      },
      {
        "trial_number": 104,
        "trial_index": 634,
        "rt": 650,
        "correct": true,
        "response": "ArrowLeft",
        "congruent": false,
        "gazeTowards": false,
        "gazeCondition": "away",
        "faceOnLeft": true,
        "impliedDirection": 0,
        "testDirection": 180,
        "avgFps": 240,
        "minFps": 213,
        "maxFps": 278,
        "totalFrames": 155,
        "frameRates": 240
      },
      {
        "trial_number": 105,
        "trial_index": 639,
        "rt": 714,
        "correct": true,
        "response": "ArrowLeft",
        "congruent": false,
        "gazeTowards": true,
        "gazeCondition": "towards",
        "faceOnLeft": true,
        "impliedDirection": 0,
        "testDirection": 180,
        "avgFps": 240,
        "minFps": 217,
        "maxFps": 256,
        "totalFrames": 171,
        "frameRates": 240
      },
      {
        "trial_number": 106,
        "trial_index": 644,
        "rt": 678,
        "correct": true,
        "response": "ArrowRight",
        "congruent": false,
        "gazeTowards": false,
        "gazeCondition": "away",
        "faceOnLeft": false,
        "impliedDirection": 180,
        "testDirection": 0,
        "avgFps": 240,
        "minFps": 217,
        "maxFps": 270,
        "totalFrames": 163,
        "frameRates": 240
      },
      {
        "trial_number": 107,
        "trial_index": 649,
        "rt": 557,
        "correct": true,
        "response": "ArrowLeft",
        "congruent": true,
        "gazeTowards": true,
        "gazeCondition": "towards",
        "faceOnLeft": false,
        "impliedDirection": 180,
        "testDirection": 180,
        "avgFps": 238,
        "minFps": 110,
        "maxFps": 312,
        "totalFrames": 133,
        "frameRates": 238
      },
      {
        "trial_number": 108,
        "trial_index": 660,
        "rt": 614,
        "correct": true,
        "response": "ArrowLeft",
        "congruent": true,
        "gazeTowards": false,
        "gazeCondition": "away",
        "faceOnLeft": false,
        "impliedDirection": 180,
        "testDirection": 180,
        "avgFps": 240,
        "minFps": 227,
        "maxFps": 270,
        "totalFrames": 147,
        "frameRates": 240
      },
      {
        "trial_number": 109,
        "trial_index": 665,
        "rt": 550,
        "correct": true,
        "response": "ArrowLeft",
        "congruent": false,
        "gazeTowards": true,
        "gazeCondition": "towards",
        "faceOnLeft": true,
        "impliedDirection": 0,
        "testDirection": 180,
        "avgFps": 238,
        "minFps": 125,
        "maxFps": 256,
        "totalFrames": 131,
        "frameRates": 238
      },
      {
        "trial_number": 110,
        "trial_index": 670,
        "rt": 642,
        "correct": true,
        "response": "ArrowRight",
        "congruent": false,
        "gazeTowards": false,
        "gazeCondition": "away",
        "faceOnLeft": false,
        "impliedDirection": 180,
        "testDirection": 0,
        "avgFps": 240,
        "minFps": 227,
        "maxFps": 263,
        "totalFrames": 154,
        "frameRates": 240
      },
      {
        "trial_number": 111,
        "trial_index": 675,
        "rt": 788,
        "correct": true,
        "response": "ArrowLeft",
        "congruent": false,
        "gazeTowards": true,
        "gazeCondition": "towards",
        "faceOnLeft": true,
        "impliedDirection": 0,
        "testDirection": 180,
        "avgFps": 239,
        "minFps": 103,
        "maxFps": 370,
        "totalFrames": 188,
        "frameRates": 239
      },
      {
        "trial_number": 112,
        "trial_index": 683,
        "rt": 626,
        "correct": true,
        "response": "ArrowRight",
        "congruent": true,
        "gazeTowards": true,
        "gazeCondition": "towards",
        "faceOnLeft": true,
        "impliedDirection": 0,
        "testDirection": 0,
        "avgFps": 240,
        "minFps": 227,
        "maxFps": 250,
        "totalFrames": 150,
        "frameRates": 240
      },
      {
        "trial_number": 113,
        "trial_index": 688,
        "rt": 726,
        "correct": true,
        "response": "ArrowLeft",
        "congruent": true,
        "gazeTowards": true,
        "gazeCondition": "towards",
        "faceOnLeft": false,
        "impliedDirection": 180,
        "testDirection": 180,
        "avgFps": 240,
        "minFps": 227,
        "maxFps": 263,
        "totalFrames": 174,
        "frameRates": 240
      },
      {
        "trial_number": 114,
        "trial_index": 693,
        "rt": 532,
        "correct": true,
        "response": "ArrowRight",
        "congruent": false,
        "gazeTowards": false,
        "gazeCondition": "away",
        "faceOnLeft": false,
        "impliedDirection": 180,
        "testDirection": 0,
        "avgFps": 240,
        "minFps": 222,
        "maxFps": 250,
        "totalFrames": 127,
        "frameRates": 240
      },
      {
        "trial_number": 115,
        "trial_index": 698,
        "rt": 566,
        "correct": true,
        "response": "ArrowLeft",
        "congruent": false,
        "gazeTowards": false,
        "gazeCondition": "away",
        "faceOnLeft": true,
        "impliedDirection": 0,
        "testDirection": 180,
        "avgFps": 240,
        "minFps": 233,
        "maxFps": 250,
        "totalFrames": 135,
        "frameRates": 240
      },
      {
        "trial_number": 116,
        "trial_index": 703,
        "rt": 529,
        "correct": true,
        "response": "ArrowRight",
        "congruent": true,
        "gazeTowards": false,
        "gazeCondition": "away",
        "faceOnLeft": true,
        "impliedDirection": 0,
        "testDirection": 0,
        "avgFps": 240,
        "minFps": 227,
        "maxFps": 253,
        "totalFrames": 127,
        "frameRates": 240
      },
      {
        "trial_number": 117,
        "trial_index": 711,
        "rt": 555,
        "correct": true,
        "response": "ArrowRight",
        "congruent": true,
        "gazeTowards": false,
        "gazeCondition": "away",
        "faceOnLeft": true,
        "impliedDirection": 0,
        "testDirection": 0,
        "avgFps": 240,
        "minFps": 217,
        "maxFps": 263,
        "totalFrames": 133,
        "frameRates": 240
      },
      {
        "trial_number": 118,
        "trial_index": 716,
        "rt": 596,
        "correct": true,
        "response": "ArrowLeft",
        "congruent": true,
        "gazeTowards": false,
        "gazeCondition": "away",
        "faceOnLeft": false,
        "impliedDirection": 180,
        "testDirection": 180,
        "avgFps": 238,
        "minFps": 112,
        "maxFps": 303,
        "totalFrames": 142,
        "frameRates": 238
      },
      {
        "trial_number": 119,
        "trial_index": 721,
        "rt": 488,
        "correct": true,
        "response": "ArrowRight",
        "congruent": true,
        "gazeTowards": false,
        "gazeCondition": "away",
        "faceOnLeft": true,
        "impliedDirection": 0,
        "testDirection": 0,
        "avgFps": 240,
        "minFps": 227,
        "maxFps": 263,
        "totalFrames": 117,
        "frameRates": 240
      }
    ],
    "catch": {
      "total": 12,
      "correct": 12,
      "accuracy": 100,
      "meanRT": 562,
      "trials": [
        {
          "trial_number": 0,
          "trial_index": 99,
          "rt": 695,
          "correct": true,
          "colorTarget": "face",
          "gazeTowards": false,
          "gazeCondition": "away",
          "faceOnLeft": true
        },
        {
          "trial_number": 1,
          "trial_index": 192,
          "rt": 558,
          "correct": true,
          "colorTarget": "face",
          "gazeTowards": true,
          "gazeCondition": "towards",
          "faceOnLeft": false
        },
        {
          "trial_number": 2,
          "trial_index": 205,
          "rt": 465,
          "correct": true,
          "colorTarget": "face",
          "gazeTowards": true,
          "gazeCondition": "towards",
          "faceOnLeft": true
        },
        {
          "trial_number": 3,
          "trial_index": 269,
          "rt": 673,
          "correct": true,
          "colorTarget": "tree",
          "gazeTowards": true,
          "gazeCondition": "towards",
          "faceOnLeft": true
        },
        {
          "trial_number": 4,
          "trial_index": 322,
          "rt": 552,
          "correct": true,
          "colorTarget": "face",
          "gazeTowards": true,
          "gazeCondition": "towards",
          "faceOnLeft": true
        },
        {
          "trial_number": 5,
          "trial_index": 350,
          "rt": 497,
          "correct": true,
          "colorTarget": "tree",
          "gazeTowards": true,
          "gazeCondition": "towards",
          "faceOnLeft": true
        },
        {
          "trial_number": 6,
          "trial_index": 409,
          "rt": 580,
          "correct": true,
          "colorTarget": "tree",
          "gazeTowards": true,
          "gazeCondition": "towards",
          "faceOnLeft": false
        },
        {
          "trial_number": 7,
          "trial_index": 653,
          "rt": 617,
          "correct": true,
          "colorTarget": "tree",
          "gazeTowards": true,
          "gazeCondition": "towards",
          "faceOnLeft": false
        },
        {
          "trial_number": 8,
          "trial_index": 656,
          "rt": 552,
          "correct": true,
          "colorTarget": "face",
          "gazeTowards": true,
          "gazeCondition": "towards",
          "faceOnLeft": true
        },
        {
          "trial_number": 9,
          "trial_index": 679,
          "rt": 501,
          "correct": true,
          "colorTarget": "tree",
          "gazeTowards": true,
          "gazeCondition": "towards",
          "faceOnLeft": true
        },
        {
          "trial_number": 10,
          "trial_index": 707,
          "rt": 514,
          "correct": true,
          "colorTarget": "tree",
          "gazeTowards": true,
          "gazeCondition": "towards",
          "faceOnLeft": true
        },
        {
          "trial_number": 11,
          "trial_index": 725,
          "rt": 542,
          "correct": true,
          "colorTarget": "face",
          "gazeTowards": true,
          "gazeCondition": "towards",
          "faceOnLeft": false
        }
      ]
    },
    "practice": {
      "trials": [
        {
          "trial_number": 0,
          "rt": null,
          "correct": false,
          "direction": 0
        },
        {
          "trial_number": 1,
          "rt": 987,
          "correct": true,
          "direction": 180
        },
        {
          "trial_number": 2,
          "rt": 1645,
          "correct": false,
          "direction": 0
        },
        {
          "trial_number": 3,
          "rt": null,
          "correct": false,
          "direction": 0
        },
        {
          "trial_number": 4,
          "rt": 892,
          "correct": true,
          "direction": 0
        },
        {
          "trial_number": 5,
          "rt": 1349,
          "correct": true,
          "direction": 180
        },
        {
          "trial_number": 6,
          "rt": 1090,
          "correct": true,
          "direction": 180
        },
        {
          "trial_number": 7,
          "rt": 1242,
          "correct": true,
          "direction": 0
        },
        {
          "trial_number": 8,
          "rt": 1764,
          "correct": true,
          "direction": 180
        },
        {
          "trial_number": 9,
          "rt": 1512,
          "correct": false,
          "direction": 180
        },
        {
          "trial_number": 10,
          "rt": 1326,
          "correct": true,
          "direction": 0
        },
        {
          "trial_number": 11,
          "rt": 1070,
          "correct": true,
          "direction": 180
        },
        {
          "trial_number": 12,
          "rt": 1647,
          "correct": true,
          "direction": 0
        },
        {
          "trial_number": 13,
          "rt": 1862,
          "correct": true,
          "direction": 0
        },
        {
          "trial_number": 14,
          "rt": 1502,
          "correct": false,
          "direction": 0
        },
        {
          "trial_number": 15,
          "rt": 760,
          "correct": true,
          "direction": 180
        },
        {
          "trial_number": 16,
          "rt": 720,
          "correct": true,
          "direction": 180
        },
        {
          "trial_number": 17,
          "rt": 1326,
          "correct": true,
          "direction": 0
        },
        {
          "trial_number": 18,
          "rt": 924,
          "correct": true,
          "direction": 180
        },
        {
          "trial_number": 19,
          "rt": 827,
          "correct": true,
          "direction": 180
        }
      ],
      "meanRT": 1247,
      "accuracy": 75
    }
  }
}