{
  "experiment": "rdk-face-1",
  "UUID": "bcb75dc9-82c1-467c-bffb-69e4b8424aa1",
  "data": {
    "session": {
      "experiment_version": "1.8.6",
      "treatment": "faces_towards_away_catch",
      "file_version": "1.8.6",
      "totalTrials": 120,
      "totalTrialsIncludingCatch": 132,
      "conditions": {
        "gazeTowardsCount": 60,
        "gazeAwayCount": 60,
        "gazeTowardsAccuracy": 100,
        "gazeAwayAccuracy": 100
      },
      "session_group": "default",
      "browserData": {
        "os": "Mac",
        "browser": "Firefox",
        "screenResolution": "3008x1692",
        "browserViewport": "3008x1692",
        "devicePixelRatio": 2,
        "colorDepth": 30,
        "hardwareConcurrency": 10,
        "deviceMemory": "Unknown",
        "gpuRenderer": "Apple M1, or similar",
        "measuredRefreshRateHz": 111
      },
      "attention": {
        "visibilityEvents": [
          {
            "event": "focus",
            "state": "focused",
            "timestamp": 1772765583892
          },
          {
            "event": "visibilitychange",
            "state": "hidden",
            "timestamp": 1772765613418
          },
          {
            "event": "visibilitychange",
            "state": "visible",
            "timestamp": 1772765613427
          },
          {
            "event": "blur",
            "state": "blurred",
            "timestamp": 1772765680008
          },
          {
            "event": "focus",
            "state": "focused",
            "timestamp": 1772765681386
          }
        ]
      },
      "calibration": {
        "monitorWidthCm": 38,
        "viewingDistanceCm": 54,
        "pixelsPerDegree": 50
      },
      "parameters": {
        "coherence": 0.4,
        "apertureDeg": 5,
        "densityDotsPerDeg2": 40,
        "dotDiameterDeg": 0.035,
        "dotSpeedDegPerSec": 3,
        "lifetimeMs": 200,
        "fixationDurationMs": 1500,
        "faceDurationMs": 1500,
        "testDurationMs": 2000,
        "catchResponseMs": 3000
      },
      "prolific": {
        "prolificPid": "62a779f845a7840040d41bf8",
        "studyId": "",
        "sessionId": ""
      },
      "timing": {
        "startTime": "2026-03-06T02:53:03.873Z",
        "endTime": "2026-03-06T03:14:26.739Z",
        "totalElapsedTimeMs": 1282866
      }
    },
    "trials": [
      {
        "trial_number": 0,
        "trial_index": 90,
        "rt": 1073,
        "correct": true,
        "response": "ArrowLeft",
        "congruent": true,
        "gazeTowards": false,
        "gazeCondition": "away",
        "faceOnLeft": false,
        "impliedDirection": 180,
        "testDirection": 180,
        "avgFps": 120,
        "minFps": 69,
        "maxFps": 8333,
        "totalFrames": 129,
        "frameRates": 120
      },
      {
        "trial_number": 1,
        "trial_index": 101,
        "rt": 1261,
        "correct": true,
        "response": "ArrowLeft",
        "congruent": false,
        "gazeTowards": false,
        "gazeCondition": "away",
        "faceOnLeft": true,
        "impliedDirection": 0,
        "testDirection": 180,
        "avgFps": 120,
        "minFps": 56,
        "maxFps": 10000,
        "totalFrames": 151,
        "frameRates": 120
      },
      {
        "trial_number": 2,
        "trial_index": 106,
        "rt": 1190,
        "correct": true,
        "response": "ArrowLeft",
        "congruent": true,
        "gazeTowards": true,
        "gazeCondition": "towards",
        "faceOnLeft": false,
        "impliedDirection": 180,
        "testDirection": 180,
        "avgFps": 120,
        "minFps": 71,
        "maxFps": 8333,
        "totalFrames": 143,
        "frameRates": 120
      },
      {
        "trial_number": 3,
        "trial_index": 111,
        "rt": 1192,
        "correct": true,
        "response": "ArrowRight",
        "congruent": true,
        "gazeTowards": true,
        "gazeCondition": "towards",
        "faceOnLeft": true,
        "impliedDirection": 0,
        "testDirection": 0,
        "avgFps": 120,
        "minFps": 60,
        "maxFps": 16667,
        "totalFrames": 143,
        "frameRates": 120
      },
      {
        "trial_number": 4,
        "trial_index": 116,
        "rt": 1020,
        "correct": true,
        "response": "ArrowRight",
        "congruent": true,
        "gazeTowards": false,
        "gazeCondition": "away",
        "faceOnLeft": true,
        "impliedDirection": 0,
        "testDirection": 0,
        "avgFps": 120,
        "minFps": 53,
        "maxFps": 10000,
        "totalFrames": 122,
        "frameRates": 120
      },
      {
        "trial_number": 5,
        "trial_index": 121,
        "rt": 715,
        "correct": true,
        "response": "ArrowLeft",
        "congruent": false,
        "gazeTowards": true,
        "gazeCondition": "towards",
        "faceOnLeft": true,
        "impliedDirection": 0,
        "testDirection": 180,
        "avgFps": 120,
        "minFps": 60,
        "maxFps": 8333,
        "totalFrames": 85,
        "frameRates": 120
      },
      {
        "trial_number": 6,
        "trial_index": 126,
        "rt": 736,
        "correct": true,
        "response": "ArrowRight",
        "congruent": true,
        "gazeTowards": true,
        "gazeCondition": "towards",
        "faceOnLeft": true,
        "impliedDirection": 0,
        "testDirection": 0,
        "avgFps": 120,
        "minFps": 55,
        "maxFps": 8333,
        "totalFrames": 88,
        "frameRates": 120
      },
      {
        "trial_number": 7,
        "trial_index": 131,
        "rt": 959,
        "correct": true,
        "response": "ArrowLeft",
        "congruent": false,
        "gazeTowards": true,
        "gazeCondition": "towards",
        "faceOnLeft": true,
        "impliedDirection": 0,
        "testDirection": 180,
        "avgFps": 120,
        "minFps": 83,
        "maxFps": 10000,
        "totalFrames": 115,
        "frameRates": 120
      },
      {
        "trial_number": 8,
        "trial_index": 136,
        "rt": 1006,
        "correct": true,
        "response": "ArrowRight",
        "congruent": true,
        "gazeTowards": true,
        "gazeCondition": "towards",
        "faceOnLeft": true,
        "impliedDirection": 0,
        "testDirection": 0,
        "avgFps": 120,
        "minFps": 76,
        "maxFps": 8333,
        "totalFrames": 121,
        "frameRates": 120
      },
      {
        "trial_number": 9,
        "trial_index": 141,
        "rt": 986,
        "correct": true,
        "response": "ArrowRight",
        "congruent": true,
        "gazeTowards": true,
        "gazeCondition": "towards",
        "faceOnLeft": true,
        "impliedDirection": 0,
        "testDirection": 0,
        "avgFps": 120,
        "minFps": 64,
        "maxFps": 10000,
        "totalFrames": 118,
        "frameRates": 120
      },
      {
        "trial_number": 10,
        "trial_index": 146,
        "rt": 872,
        "correct": true,
        "response": "ArrowRight",
        "congruent": true,
        "gazeTowards": false,
        "gazeCondition": "away",
        "faceOnLeft": true,
        "impliedDirection": 0,
        "testDirection": 0,
        "avgFps": 121,
        "minFps": 82,
        "maxFps": 8333,
        "totalFrames": 105,
        "frameRates": 121
      },
      {
        "trial_number": 11,
        "trial_index": 151,
        "rt": 998,
        "correct": true,
        "response": "ArrowLeft",
        "congruent": true,
        "gazeTowards": true,
        "gazeCondition": "towards",
        "faceOnLeft": false,
        "impliedDirection": 180,
        "testDirection": 180,
        "avgFps": 120,
        "minFps": 75,
        "maxFps": 8333,
        "totalFrames": 120,
        "frameRates": 120
      },
      {
        "trial_number": 12,
        "trial_index": 156,
        "rt": 965,
        "correct": true,
        "response": "ArrowLeft",
        "congruent": false,
        "gazeTowards": false,
        "gazeCondition": "away",
        "faceOnLeft": true,
        "impliedDirection": 0,
        "testDirection": 180,
        "avgFps": 120,
        "minFps": 67,
        "maxFps": 7143,
        "totalFrames": 116,
        "frameRates": 120
      },
      {
        "trial_number": 13,
        "trial_index": 161,
        "rt": 780,
        "correct": true,
        "response": "ArrowLeft",
        "congruent": false,
        "gazeTowards": true,
        "gazeCondition": "towards",
        "faceOnLeft": true,
        "impliedDirection": 0,
        "testDirection": 180,
        "avgFps": 120,
        "minFps": 60,
        "maxFps": 8333,
        "totalFrames": 93,
        "frameRates": 120
      },
      {
        "trial_number": 14,
        "trial_index": 169,
        "rt": 728,
        "correct": true,
        "response": "ArrowLeft",
        "congruent": false,
        "gazeTowards": true,
        "gazeCondition": "towards",
        "faceOnLeft": true,
        "impliedDirection": 0,
        "testDirection": 180,
        "avgFps": 120,
        "minFps": 54,
        "maxFps": 12500,
        "totalFrames": 87,
        "frameRates": 120
      },
      {
        "trial_number": 15,
        "trial_index": 174,
        "rt": 676,
        "correct": true,
        "response": "ArrowRight",
        "congruent": true,
        "gazeTowards": false,
        "gazeCondition": "away",
        "faceOnLeft": true,
        "impliedDirection": 0,
        "testDirection": 0,
        "avgFps": 120,
        "minFps": 66,
        "maxFps": 10000,
        "totalFrames": 81,
        "frameRates": 120
      },
      {
        "trial_number": 16,
        "trial_index": 179,
        "rt": 671,
        "correct": true,
        "response": "ArrowRight",
        "congruent": true,
        "gazeTowards": true,
        "gazeCondition": "towards",
        "faceOnLeft": true,
        "impliedDirection": 0,
        "testDirection": 0,
        "avgFps": 121,
        "minFps": 76,
        "maxFps": 7143,
        "totalFrames": 81,
        "frameRates": 121
      },
      {
        "trial_number": 17,
        "trial_index": 184,
        "rt": 670,
        "correct": true,
        "response": "ArrowLeft",
        "congruent": false,
        "gazeTowards": false,
        "gazeCondition": "away",
        "faceOnLeft": true,
        "impliedDirection": 0,
        "testDirection": 180,
        "avgFps": 121,
        "minFps": 91,
        "maxFps": 10000,
        "totalFrames": 81,
        "frameRates": 121
      },
      {
        "trial_number": 18,
        "trial_index": 192,
        "rt": 837,
        "correct": true,
        "response": "ArrowRight",
        "congruent": false,
        "gazeTowards": true,
        "gazeCondition": "towards",
        "faceOnLeft": false,
        "impliedDirection": 180,
        "testDirection": 0,
        "avgFps": 121,
        "minFps": 92,
        "maxFps": 8333,
        "totalFrames": 101,
        "frameRates": 121
      },
      {
        "trial_number": 19,
        "trial_index": 197,
        "rt": 597,
        "correct": true,
        "response": "ArrowLeft",
        "congruent": true,
        "gazeTowards": true,
        "gazeCondition": "towards",
        "faceOnLeft": false,
        "impliedDirection": 180,
        "testDirection": 180,
        "avgFps": 121,
        "minFps": 75,
        "maxFps": 10000,
        "totalFrames": 72,
        "frameRates": 121
      },
      {
        "trial_number": 20,
        "trial_index": 202,
        "rt": 789,
        "correct": true,
        "response": "ArrowRight",
        "congruent": true,
        "gazeTowards": true,
        "gazeCondition": "towards",
        "faceOnLeft": true,
        "impliedDirection": 0,
        "testDirection": 0,
        "avgFps": 120,
        "minFps": 72,
        "maxFps": 7143,
        "totalFrames": 95,
        "frameRates": 120
      },
      {
        "trial_number": 21,
        "trial_index": 207,
        "rt": 470,
        "correct": true,
        "response": "ArrowLeft",
        "congruent": true,
        "gazeTowards": true,
        "gazeCondition": "towards",
        "faceOnLeft": false,
        "impliedDirection": 180,
        "testDirection": 180,
        "avgFps": 120,
        "minFps": 70,
        "maxFps": 8333,
        "totalFrames": 56,
        "frameRates": 120
      },
      {
        "trial_number": 22,
        "trial_index": 212,
        "rt": 665,
        "correct": true,
        "response": "ArrowRight",
        "congruent": true,
        "gazeTowards": false,
        "gazeCondition": "away",
        "faceOnLeft": true,
        "impliedDirection": 0,
        "testDirection": 0,
        "avgFps": 120,
        "minFps": 63,
        "maxFps": 8333,
        "totalFrames": 79,
        "frameRates": 120
      },
      {
        "trial_number": 23,
        "trial_index": 217,
        "rt": 758,
        "correct": true,
        "response": "ArrowRight",
        "congruent": false,
        "gazeTowards": false,
        "gazeCondition": "away",
        "faceOnLeft": false,
        "impliedDirection": 180,
        "testDirection": 0,
        "avgFps": 121,
        "minFps": 87,
        "maxFps": 8333,
        "totalFrames": 92,
        "frameRates": 121
      },
      {
        "trial_number": 24,
        "trial_index": 222,
        "rt": 604,
        "correct": true,
        "response": "ArrowLeft",
        "congruent": false,
        "gazeTowards": false,
        "gazeCondition": "away",
        "faceOnLeft": true,
        "impliedDirection": 0,
        "testDirection": 180,
        "avgFps": 120,
        "minFps": 53,
        "maxFps": 10000,
        "totalFrames": 72,
        "frameRates": 120
      },
      {
        "trial_number": 25,
        "trial_index": 227,
        "rt": 679,
        "correct": true,
        "response": "ArrowLeft",
        "congruent": true,
        "gazeTowards": false,
        "gazeCondition": "away",
        "faceOnLeft": false,
        "impliedDirection": 180,
        "testDirection": 180,
        "avgFps": 121,
        "minFps": 75,
        "maxFps": 10000,
        "totalFrames": 81,
        "frameRates": 121
      },
      {
        "trial_number": 26,
        "trial_index": 232,
        "rt": 736,
        "correct": true,
        "response": "ArrowRight",
        "congruent": true,
        "gazeTowards": true,
        "gazeCondition": "towards",
        "faceOnLeft": true,
        "impliedDirection": 0,
        "testDirection": 0,
        "avgFps": 120,
        "minFps": 110,
        "maxFps": 127,
        "totalFrames": 88,
        "frameRates": 120
      },
      {
        "trial_number": 27,
        "trial_index": 237,
        "rt": 743,
        "correct": true,
        "response": "ArrowRight",
        "congruent": true,
        "gazeTowards": true,
        "gazeCondition": "towards",
        "faceOnLeft": true,
        "impliedDirection": 0,
        "testDirection": 0,
        "avgFps": 120,
        "minFps": 58,
        "maxFps": 16667,
        "totalFrames": 89,
        "frameRates": 120
      },
      {
        "trial_number": 28,
        "trial_index": 242,
        "rt": 586,
        "correct": true,
        "response": "ArrowLeft",
        "congruent": true,
        "gazeTowards": true,
        "gazeCondition": "towards",
        "faceOnLeft": false,
        "impliedDirection": 180,
        "testDirection": 180,
        "avgFps": 120,
        "minFps": 55,
        "maxFps": 7143,
        "totalFrames": 70,
        "frameRates": 120
      },
      {
        "trial_number": 29,
        "trial_index": 248,
        "rt": 708,
        "correct": true,
        "response": "ArrowRight",
        "congruent": true,
        "gazeTowards": false,
        "gazeCondition": "away",
        "faceOnLeft": true,
        "impliedDirection": 0,
        "testDirection": 0,
        "avgFps": 121,
        "minFps": 91,
        "maxFps": 7143,
        "totalFrames": 85,
        "frameRates": 121
      },
      {
        "trial_number": 30,
        "trial_index": 253,
        "rt": 465,
        "correct": true,
        "response": "ArrowLeft",
        "congruent": true,
        "gazeTowards": true,
        "gazeCondition": "towards",
        "faceOnLeft": false,
        "impliedDirection": 180,
        "testDirection": 180,
        "avgFps": 121,
        "minFps": 69,
        "maxFps": 8333,
        "totalFrames": 56,
        "frameRates": 121
      },
      {
        "trial_number": 31,
        "trial_index": 258,
        "rt": 577,
        "correct": true,
        "response": "ArrowRight",
        "congruent": true,
        "gazeTowards": true,
        "gazeCondition": "towards",
        "faceOnLeft": true,
        "impliedDirection": 0,
        "testDirection": 0,
        "avgFps": 120,
        "minFps": 55,
        "maxFps": 10000,
        "totalFrames": 68,
        "frameRates": 120
      },
      {
        "trial_number": 32,
        "trial_index": 263,
        "rt": 559,
        "correct": true,
        "response": "ArrowRight",
        "congruent": true,
        "gazeTowards": false,
        "gazeCondition": "away",
        "faceOnLeft": true,
        "impliedDirection": 0,
        "testDirection": 0,
        "avgFps": 121,
        "minFps": 86,
        "maxFps": 12500,
        "totalFrames": 67,
        "frameRates": 121
      },
      {
        "trial_number": 33,
        "trial_index": 268,
        "rt": 501,
        "correct": true,
        "response": "ArrowRight",
        "congruent": false,
        "gazeTowards": true,
        "gazeCondition": "towards",
        "faceOnLeft": false,
        "impliedDirection": 180,
        "testDirection": 0,
        "avgFps": 121,
        "minFps": 71,
        "maxFps": 10000,
        "totalFrames": 60,
        "frameRates": 121
      },
      {
        "trial_number": 34,
        "trial_index": 273,
        "rt": 697,
        "correct": true,
        "response": "ArrowRight",
        "congruent": false,
        "gazeTowards": false,
        "gazeCondition": "away",
        "faceOnLeft": false,
        "impliedDirection": 180,
        "testDirection": 0,
        "avgFps": 121,
        "minFps": 77,
        "maxFps": 12500,
        "totalFrames": 84,
        "frameRates": 121
      },
      {
        "trial_number": 35,
        "trial_index": 278,
        "rt": 701,
        "correct": true,
        "response": "ArrowLeft",
        "congruent": false,
        "gazeTowards": false,
        "gazeCondition": "away",
        "faceOnLeft": true,
        "impliedDirection": 0,
        "testDirection": 180,
        "avgFps": 120,
        "minFps": 71,
        "maxFps": 8333,
        "totalFrames": 84,
        "frameRates": 120
      },
      {
        "trial_number": 36,
        "trial_index": 283,
        "rt": 688,
        "correct": true,
        "response": "ArrowRight",
        "congruent": true,
        "gazeTowards": true,
        "gazeCondition": "towards",
        "faceOnLeft": true,
        "impliedDirection": 0,
        "testDirection": 0,
        "avgFps": 121,
        "minFps": 113,
        "maxFps": 299,
        "totalFrames": 83,
        "frameRates": 121
      },
      {
        "trial_number": 37,
        "trial_index": 288,
        "rt": 639,
        "correct": true,
        "response": "ArrowLeft",
        "congruent": true,
        "gazeTowards": false,
        "gazeCondition": "away",
        "faceOnLeft": false,
        "impliedDirection": 180,
        "testDirection": 180,
        "avgFps": 120,
        "minFps": 58,
        "maxFps": 8333,
        "totalFrames": 76,
        "frameRates": 120
      },
      {
        "trial_number": 38,
        "trial_index": 293,
        "rt": 498,
        "correct": true,
        "response": "ArrowRight",
        "congruent": false,
        "gazeTowards": true,
        "gazeCondition": "towards",
        "faceOnLeft": false,
        "impliedDirection": 180,
        "testDirection": 0,
        "avgFps": 120,
        "minFps": 57,
        "maxFps": 10000,
        "totalFrames": 59,
        "frameRates": 120
      },
      {
        "trial_number": 39,
        "trial_index": 298,
        "rt": 474,
        "correct": true,
        "response": "ArrowRight",
        "congruent": false,
        "gazeTowards": true,
        "gazeCondition": "towards",
        "faceOnLeft": false,
        "impliedDirection": 180,
        "testDirection": 0,
        "avgFps": 120,
        "minFps": 71,
        "maxFps": 10000,
        "totalFrames": 57,
        "frameRates": 120
      },
      {
        "trial_number": 40,
        "trial_index": 303,
        "rt": 581,
        "correct": true,
        "response": "ArrowRight",
        "congruent": false,
        "gazeTowards": false,
        "gazeCondition": "away",
        "faceOnLeft": false,
        "impliedDirection": 180,
        "testDirection": 0,
        "avgFps": 120,
        "minFps": 70,
        "maxFps": 6250,
        "totalFrames": 70,
        "frameRates": 120
      },
      {
        "trial_number": 41,
        "trial_index": 308,
        "rt": 588,
        "correct": true,
        "response": "ArrowRight",
        "congruent": false,
        "gazeTowards": true,
        "gazeCondition": "towards",
        "faceOnLeft": false,
        "impliedDirection": 180,
        "testDirection": 0,
        "avgFps": 121,
        "minFps": 81,
        "maxFps": 10000,
        "totalFrames": 71,
        "frameRates": 121
      },
      {
        "trial_number": 42,
        "trial_index": 313,
        "rt": 606,
        "correct": true,
        "response": "ArrowRight",
        "congruent": true,
        "gazeTowards": true,
        "gazeCondition": "towards",
        "faceOnLeft": true,
        "impliedDirection": 0,
        "testDirection": 0,
        "avgFps": 120,
        "minFps": 61,
        "maxFps": 10000,
        "totalFrames": 72,
        "frameRates": 120
      },
      {
        "trial_number": 43,
        "trial_index": 318,
        "rt": 472,
        "correct": true,
        "response": "ArrowLeft",
        "congruent": false,
        "gazeTowards": false,
        "gazeCondition": "away",
        "faceOnLeft": true,
        "impliedDirection": 0,
        "testDirection": 180,
        "avgFps": 120,
        "minFps": 64,
        "maxFps": 8333,
        "totalFrames": 56,
        "frameRates": 120
      },
      {
        "trial_number": 44,
        "trial_index": 323,
        "rt": 649,
        "correct": true,
        "response": "ArrowRight",
        "congruent": true,
        "gazeTowards": true,
        "gazeCondition": "towards",
        "faceOnLeft": true,
        "impliedDirection": 0,
        "testDirection": 0,
        "avgFps": 120,
        "minFps": 59,
        "maxFps": 10000,
        "totalFrames": 78,
        "frameRates": 120
      },
      {
        "trial_number": 45,
        "trial_index": 331,
        "rt": 738,
        "correct": true,
        "response": "ArrowLeft",
        "congruent": true,
        "gazeTowards": false,
        "gazeCondition": "away",
        "faceOnLeft": false,
        "impliedDirection": 180,
        "testDirection": 180,
        "avgFps": 121,
        "minFps": 80,
        "maxFps": 12500,
        "totalFrames": 89,
        "frameRates": 121
      },
      {
        "trial_number": 46,
        "trial_index": 336,
        "rt": 636,
        "correct": true,
        "response": "ArrowRight",
        "congruent": false,
        "gazeTowards": false,
        "gazeCondition": "away",
        "faceOnLeft": false,
        "impliedDirection": 180,
        "testDirection": 0,
        "avgFps": 120,
        "minFps": 66,
        "maxFps": 10000,
        "totalFrames": 76,
        "frameRates": 120
      },
      {
        "trial_number": 47,
        "trial_index": 341,
        "rt": 484,
        "correct": true,
        "response": "ArrowLeft",
        "congruent": true,
        "gazeTowards": true,
        "gazeCondition": "towards",
        "faceOnLeft": false,
        "impliedDirection": 180,
        "testDirection": 180,
        "avgFps": 120,
        "minFps": 63,
        "maxFps": 12500,
        "totalFrames": 58,
        "frameRates": 120
      },
      {
        "trial_number": 48,
        "trial_index": 346,
        "rt": 452,
        "correct": true,
        "response": "ArrowLeft",
        "congruent": false,
        "gazeTowards": true,
        "gazeCondition": "towards",
        "faceOnLeft": true,
        "impliedDirection": 0,
        "testDirection": 180,
        "avgFps": 120,
        "minFps": 61,
        "maxFps": 8333,
        "totalFrames": 54,
        "frameRates": 120
      },
      {
        "trial_number": 49,
        "trial_index": 351,
        "rt": 635,
        "correct": true,
        "response": "ArrowRight",
        "congruent": false,
        "gazeTowards": false,
        "gazeCondition": "away",
        "faceOnLeft": false,
        "impliedDirection": 180,
        "testDirection": 0,
        "avgFps": 120,
        "minFps": 68,
        "maxFps": 8333,
        "totalFrames": 76,
        "frameRates": 120
      },
      {
        "trial_number": 50,
        "trial_index": 356,
        "rt": 538,
        "correct": true,
        "response": "ArrowLeft",
        "congruent": false,
        "gazeTowards": true,
        "gazeCondition": "towards",
        "faceOnLeft": true,
        "impliedDirection": 0,
        "testDirection": 180,
        "avgFps": 121,
        "minFps": 85,
        "maxFps": 10000,
        "totalFrames": 65,
        "frameRates": 121
      },
      {
        "trial_number": 51,
        "trial_index": 361,
        "rt": 516,
        "correct": true,
        "response": "ArrowLeft",
        "congruent": true,
        "gazeTowards": false,
        "gazeCondition": "away",
        "faceOnLeft": false,
        "impliedDirection": 180,
        "testDirection": 180,
        "avgFps": 120,
        "minFps": 57,
        "maxFps": 8333,
        "totalFrames": 61,
        "frameRates": 120
      },
      {
        "trial_number": 52,
        "trial_index": 366,
        "rt": 745,
        "correct": true,
        "response": "ArrowLeft",
        "congruent": false,
        "gazeTowards": false,
        "gazeCondition": "away",
        "faceOnLeft": true,
        "impliedDirection": 0,
        "testDirection": 180,
        "avgFps": 120,
        "minFps": 59,
        "maxFps": 6250,
        "totalFrames": 89,
        "frameRates": 120
      },
      {
        "trial_number": 53,
        "trial_index": 371,
        "rt": 587,
        "correct": true,
        "response": "ArrowRight",
        "congruent": false,
        "gazeTowards": false,
        "gazeCondition": "away",
        "faceOnLeft": false,
        "impliedDirection": 180,
        "testDirection": 0,
        "avgFps": 120,
        "minFps": 63,
        "maxFps": 7143,
        "totalFrames": 70,
        "frameRates": 120
      },
      {
        "trial_number": 54,
        "trial_index": 376,
        "rt": 677,
        "correct": true,
        "response": "ArrowRight",
        "congruent": true,
        "gazeTowards": false,
        "gazeCondition": "away",
        "faceOnLeft": true,
        "impliedDirection": 0,
        "testDirection": 0,
        "avgFps": 120,
        "minFps": 62,
        "maxFps": 16667,
        "totalFrames": 81,
        "frameRates": 120
      },
      {
        "trial_number": 55,
        "trial_index": 381,
        "rt": 721,
        "correct": true,
        "response": "ArrowRight",
        "congruent": false,
        "gazeTowards": false,
        "gazeCondition": "away",
        "faceOnLeft": false,
        "impliedDirection": 180,
        "testDirection": 0,
        "avgFps": 120,
        "minFps": 53,
        "maxFps": 10000,
        "totalFrames": 86,
        "frameRates": 120
      },
      {
        "trial_number": 56,
        "trial_index": 386,
        "rt": 538,
        "correct": true,
        "response": "ArrowLeft",
        "congruent": false,
        "gazeTowards": false,
        "gazeCondition": "away",
        "faceOnLeft": true,
        "impliedDirection": 0,
        "testDirection": 180,
        "avgFps": 121,
        "minFps": 91,
        "maxFps": 8333,
        "totalFrames": 65,
        "frameRates": 121
      },
      {
        "trial_number": 57,
        "trial_index": 391,
        "rt": 597,
        "correct": true,
        "response": "ArrowRight",
        "congruent": true,
        "gazeTowards": false,
        "gazeCondition": "away",
        "faceOnLeft": true,
        "impliedDirection": 0,
        "testDirection": 0,
        "avgFps": 120,
        "minFps": 65,
        "maxFps": 12500,
        "totalFrames": 71,
        "frameRates": 120
      },
      {
        "trial_number": 58,
        "trial_index": 399,
        "rt": 856,
        "correct": true,
        "response": "ArrowLeft",
        "congruent": false,
        "gazeTowards": false,
        "gazeCondition": "away",
        "faceOnLeft": true,
        "impliedDirection": 0,
        "testDirection": 180,
        "avgFps": 121,
        "minFps": 111,
        "maxFps": 219,
        "totalFrames": 103,
        "frameRates": 121
      },
      {
        "trial_number": 59,
        "trial_index": 404,
        "rt": 708,
        "correct": true,
        "response": "ArrowLeft",
        "congruent": false,
        "gazeTowards": false,
        "gazeCondition": "away",
        "faceOnLeft": true,
        "impliedDirection": 0,
        "testDirection": 180,
        "avgFps": 120,
        "minFps": 66,
        "maxFps": 8333,
        "totalFrames": 85,
        "frameRates": 120
      },
      {
        "trial_number": 60,
        "trial_index": 410,
        "rt": 676,
        "correct": true,
        "response": "ArrowLeft",
        "congruent": false,
        "gazeTowards": false,
        "gazeCondition": "away",
        "faceOnLeft": true,
        "impliedDirection": 0,
        "testDirection": 180,
        "avgFps": 121,
        "minFps": 89,
        "maxFps": 10000,
        "totalFrames": 81,
        "frameRates": 121
      },
      {
        "trial_number": 61,
        "trial_index": 415,
        "rt": 738,
        "correct": true,
        "response": "ArrowLeft",
        "congruent": true,
        "gazeTowards": false,
        "gazeCondition": "away",
        "faceOnLeft": false,
        "impliedDirection": 180,
        "testDirection": 180,
        "avgFps": 121,
        "minFps": 86,
        "maxFps": 8333,
        "totalFrames": 89,
        "frameRates": 121
      },
      {
        "trial_number": 62,
        "trial_index": 420,
        "rt": 592,
        "correct": true,
        "response": "ArrowLeft",
        "congruent": true,
        "gazeTowards": true,
        "gazeCondition": "towards",
        "faceOnLeft": false,
        "impliedDirection": 180,
        "testDirection": 180,
        "avgFps": 121,
        "minFps": 71,
        "maxFps": 7143,
        "totalFrames": 71,
        "frameRates": 121
      },
      {
        "trial_number": 63,
        "trial_index": 425,
        "rt": 593,
        "correct": true,
        "response": "ArrowLeft",
        "congruent": false,
        "gazeTowards": true,
        "gazeCondition": "towards",
        "faceOnLeft": true,
        "impliedDirection": 0,
        "testDirection": 180,
        "avgFps": 120,
        "minFps": 63,
        "maxFps": 8333,
        "totalFrames": 71,
        "frameRates": 120
      },
      {
        "trial_number": 64,
        "trial_index": 430,
        "rt": 601,
        "correct": true,
        "response": "ArrowRight",
        "congruent": true,
        "gazeTowards": true,
        "gazeCondition": "towards",
        "faceOnLeft": true,
        "impliedDirection": 0,
        "testDirection": 0,
        "avgFps": 121,
        "minFps": 72,
        "maxFps": 10000,
        "totalFrames": 72,
        "frameRates": 121
      },
      {
        "trial_number": 65,
        "trial_index": 435,
        "rt": 695,
        "correct": true,
        "response": "ArrowRight",
        "congruent": true,
        "gazeTowards": false,
        "gazeCondition": "away",
        "faceOnLeft": true,
        "impliedDirection": 0,
        "testDirection": 0,
        "avgFps": 120,
        "minFps": 57,
        "maxFps": 8333,
        "totalFrames": 83,
        "frameRates": 120
      },
      {
        "trial_number": 66,
        "trial_index": 440,
        "rt": 603,
        "correct": true,
        "response": "ArrowRight",
        "congruent": false,
        "gazeTowards": true,
        "gazeCondition": "towards",
        "faceOnLeft": false,
        "impliedDirection": 180,
        "testDirection": 0,
        "avgFps": 120,
        "minFps": 57,
        "maxFps": 6250,
        "totalFrames": 72,
        "frameRates": 120
      },
      {
        "trial_number": 67,
        "trial_index": 445,
        "rt": 556,
        "correct": true,
        "response": "ArrowLeft",
        "congruent": true,
        "gazeTowards": false,
        "gazeCondition": "away",
        "faceOnLeft": false,
        "impliedDirection": 180,
        "testDirection": 180,
        "avgFps": 120,
        "minFps": 54,
        "maxFps": 7143,
        "totalFrames": 66,
        "frameRates": 120
      },
      {
        "trial_number": 68,
        "trial_index": 450,
        "rt": 473,
        "correct": true,
        "response": "ArrowLeft",
        "congruent": false,
        "gazeTowards": true,
        "gazeCondition": "towards",
        "faceOnLeft": true,
        "impliedDirection": 0,
        "testDirection": 180,
        "avgFps": 121,
        "minFps": 88,
        "maxFps": 7143,
        "totalFrames": 57,
        "frameRates": 121
      },
      {
        "trial_number": 69,
        "trial_index": 455,
        "rt": 847,
        "correct": true,
        "response": "ArrowRight",
        "congruent": false,
        "gazeTowards": false,
        "gazeCondition": "away",
        "faceOnLeft": false,
        "impliedDirection": 180,
        "testDirection": 0,
        "avgFps": 120,
        "minFps": 72,
        "maxFps": 8333,
        "totalFrames": 102,
        "frameRates": 120
      },
      {
        "trial_number": 70,
        "trial_index": 460,
        "rt": 535,
        "correct": true,
        "response": "ArrowRight",
        "congruent": true,
        "gazeTowards": true,
        "gazeCondition": "towards",
        "faceOnLeft": true,
        "impliedDirection": 0,
        "testDirection": 0,
        "avgFps": 120,
        "minFps": 67,
        "maxFps": 7143,
        "totalFrames": 64,
        "frameRates": 120
      },
      {
        "trial_number": 71,
        "trial_index": 465,
        "rt": 443,
        "correct": true,
        "response": "ArrowLeft",
        "congruent": true,
        "gazeTowards": false,
        "gazeCondition": "away",
        "faceOnLeft": false,
        "impliedDirection": 180,
        "testDirection": 180,
        "avgFps": 120,
        "minFps": 65,
        "maxFps": 10000,
        "totalFrames": 53,
        "frameRates": 120
      },
      {
        "trial_number": 72,
        "trial_index": 470,
        "rt": 591,
        "correct": true,
        "response": "ArrowLeft",
        "congruent": false,
        "gazeTowards": true,
        "gazeCondition": "towards",
        "faceOnLeft": true,
        "impliedDirection": 0,
        "testDirection": 180,
        "avgFps": 121,
        "minFps": 86,
        "maxFps": 10000,
        "totalFrames": 71,
        "frameRates": 121
      },
      {
        "trial_number": 73,
        "trial_index": 475,
        "rt": 525,
        "correct": true,
        "response": "ArrowLeft",
        "congruent": false,
        "gazeTowards": false,
        "gazeCondition": "away",
        "faceOnLeft": true,
        "impliedDirection": 0,
        "testDirection": 180,
        "avgFps": 120,
        "minFps": 66,
        "maxFps": 10000,
        "totalFrames": 63,
        "frameRates": 120
      },
      {
        "trial_number": 74,
        "trial_index": 480,
        "rt": 501,
        "correct": true,
        "response": "ArrowRight",
        "congruent": true,
        "gazeTowards": true,
        "gazeCondition": "towards",
        "faceOnLeft": true,
        "impliedDirection": 0,
        "testDirection": 0,
        "avgFps": 121,
        "minFps": 77,
        "maxFps": 7143,
        "totalFrames": 60,
        "frameRates": 121
      },
      {
        "trial_number": 75,
        "trial_index": 485,
        "rt": 582,
        "correct": true,
        "response": "ArrowLeft",
        "congruent": false,
        "gazeTowards": true,
        "gazeCondition": "towards",
        "faceOnLeft": true,
        "impliedDirection": 0,
        "testDirection": 180,
        "avgFps": 121,
        "minFps": 83,
        "maxFps": 16667,
        "totalFrames": 70,
        "frameRates": 121
      },
      {
        "trial_number": 76,
        "trial_index": 490,
        "rt": 494,
        "correct": true,
        "response": "ArrowLeft",
        "congruent": false,
        "gazeTowards": true,
        "gazeCondition": "towards",
        "faceOnLeft": true,
        "impliedDirection": 0,
        "testDirection": 180,
        "avgFps": 120,
        "minFps": 57,
        "maxFps": 7143,
        "totalFrames": 59,
        "frameRates": 120
      },
      {
        "trial_number": 77,
        "trial_index": 495,
        "rt": 683,
        "correct": true,
        "response": "ArrowRight",
        "congruent": false,
        "gazeTowards": false,
        "gazeCondition": "away",
        "faceOnLeft": false,
        "impliedDirection": 180,
        "testDirection": 0,
        "avgFps": 121,
        "minFps": 78,
        "maxFps": 8333,
        "totalFrames": 82,
        "frameRates": 121
      },
      {
        "trial_number": 78,
        "trial_index": 500,
        "rt": 589,
        "correct": true,
        "response": "ArrowLeft",
        "congruent": false,
        "gazeTowards": false,
        "gazeCondition": "away",
        "faceOnLeft": true,
        "impliedDirection": 0,
        "testDirection": 180,
        "avgFps": 120,
        "minFps": 59,
        "maxFps": 25000,
        "totalFrames": 70,
        "frameRates": 120
      },
      {
        "trial_number": 79,
        "trial_index": 505,
        "rt": 686,
        "correct": true,
        "response": "ArrowLeft",
        "congruent": false,
        "gazeTowards": false,
        "gazeCondition": "away",
        "faceOnLeft": true,
        "impliedDirection": 0,
        "testDirection": 180,
        "avgFps": 120,
        "minFps": 65,
        "maxFps": 7143,
        "totalFrames": 82,
        "frameRates": 120
      },
      {
        "trial_number": 80,
        "trial_index": 510,
        "rt": 700,
        "correct": true,
        "response": "ArrowRight",
        "congruent": false,
        "gazeTowards": false,
        "gazeCondition": "away",
        "faceOnLeft": false,
        "impliedDirection": 180,
        "testDirection": 0,
        "avgFps": 120,
        "minFps": 71,
        "maxFps": 12500,
        "totalFrames": 84,
        "frameRates": 120
      },
      {
        "trial_number": 81,
        "trial_index": 515,
        "rt": 558,
        "correct": true,
        "response": "ArrowLeft",
        "congruent": true,
        "gazeTowards": false,
        "gazeCondition": "away",
        "faceOnLeft": false,
        "impliedDirection": 180,
        "testDirection": 180,
        "avgFps": 120,
        "minFps": 65,
        "maxFps": 7143,
        "totalFrames": 67,
        "frameRates": 120
      },
      {
        "trial_number": 82,
        "trial_index": 520,
        "rt": 599,
        "correct": true,
        "response": "ArrowLeft",
        "congruent": false,
        "gazeTowards": true,
        "gazeCondition": "towards",
        "faceOnLeft": true,
        "impliedDirection": 0,
        "testDirection": 180,
        "avgFps": 121,
        "minFps": 86,
        "maxFps": 8333,
        "totalFrames": 72,
        "frameRates": 121
      },
      {
        "trial_number": 83,
        "trial_index": 525,
        "rt": 650,
        "correct": true,
        "response": "ArrowRight",
        "congruent": true,
        "gazeTowards": false,
        "gazeCondition": "away",
        "faceOnLeft": true,
        "impliedDirection": 0,
        "testDirection": 0,
        "avgFps": 120,
        "minFps": 65,
        "maxFps": 5556,
        "totalFrames": 78,
        "frameRates": 120
      },
      {
        "trial_number": 84,
        "trial_index": 530,
        "rt": 620,
        "correct": true,
        "response": "ArrowLeft",
        "congruent": false,
        "gazeTowards": false,
        "gazeCondition": "away",
        "faceOnLeft": true,
        "impliedDirection": 0,
        "testDirection": 180,
        "avgFps": 120,
        "minFps": 57,
        "maxFps": 7143,
        "totalFrames": 74,
        "frameRates": 120
      },
      {
        "trial_number": 85,
        "trial_index": 535,
        "rt": 631,
        "correct": true,
        "response": "ArrowLeft",
        "congruent": false,
        "gazeTowards": true,
        "gazeCondition": "towards",
        "faceOnLeft": true,
        "impliedDirection": 0,
        "testDirection": 180,
        "avgFps": 121,
        "minFps": 84,
        "maxFps": 7143,
        "totalFrames": 76,
        "frameRates": 121
      },
      {
        "trial_number": 86,
        "trial_index": 540,
        "rt": 584,
        "correct": true,
        "response": "ArrowLeft",
        "congruent": false,
        "gazeTowards": true,
        "gazeCondition": "towards",
        "faceOnLeft": true,
        "impliedDirection": 0,
        "testDirection": 180,
        "avgFps": 120,
        "minFps": 59,
        "maxFps": 10000,
        "totalFrames": 70,
        "frameRates": 120
      },
      {
        "trial_number": 87,
        "trial_index": 545,
        "rt": 811,
        "correct": true,
        "response": "ArrowLeft",
        "congruent": false,
        "gazeTowards": true,
        "gazeCondition": "towards",
        "faceOnLeft": true,
        "impliedDirection": 0,
        "testDirection": 180,
        "avgFps": 120,
        "minFps": 53,
        "maxFps": 8333,
        "totalFrames": 97,
        "frameRates": 120
      },
      {
        "trial_number": 88,
        "trial_index": 553,
        "rt": 713,
        "correct": true,
        "response": "ArrowRight",
        "congruent": false,
        "gazeTowards": false,
        "gazeCondition": "away",
        "faceOnLeft": false,
        "impliedDirection": 180,
        "testDirection": 0,
        "avgFps": 120,
        "minFps": 53,
        "maxFps": 10000,
        "totalFrames": 85,
        "frameRates": 120
      },
      {
        "trial_number": 89,
        "trial_index": 558,
        "rt": 480,
        "correct": true,
        "response": "ArrowLeft",
        "congruent": false,
        "gazeTowards": false,
        "gazeCondition": "away",
        "faceOnLeft": true,
        "impliedDirection": 0,
        "testDirection": 180,
        "avgFps": 120,
        "minFps": 60,
        "maxFps": 10000,
        "totalFrames": 57,
        "frameRates": 120
      },
      {
        "trial_number": 90,
        "trial_index": 563,
        "rt": 567,
        "correct": true,
        "response": "ArrowRight",
        "congruent": true,
        "gazeTowards": false,
        "gazeCondition": "away",
        "faceOnLeft": true,
        "impliedDirection": 0,
        "testDirection": 0,
        "avgFps": 120,
        "minFps": 62,
        "maxFps": 16667,
        "totalFrames": 68,
        "frameRates": 120
      },
      {
        "trial_number": 91,
        "trial_index": 572,
        "rt": 777,
        "correct": true,
        "response": "ArrowRight",
        "congruent": false,
        "gazeTowards": true,
        "gazeCondition": "towards",
        "faceOnLeft": false,
        "impliedDirection": 180,
        "testDirection": 0,
        "avgFps": 121,
        "minFps": 80,
        "maxFps": 7143,
        "totalFrames": 93,
        "frameRates": 121
      },
      {
        "trial_number": 92,
        "trial_index": 577,
        "rt": 746,
        "correct": true,
        "response": "ArrowRight",
        "congruent": true,
        "gazeTowards": true,
        "gazeCondition": "towards",
        "faceOnLeft": true,
        "impliedDirection": 0,
        "testDirection": 0,
        "avgFps": 121,
        "minFps": 87,
        "maxFps": 8333,
        "totalFrames": 90,
        "frameRates": 121
      },
      {
        "trial_number": 93,
        "trial_index": 582,
        "rt": 778,
        "correct": true,
        "response": "ArrowLeft",
        "congruent": true,
        "gazeTowards": false,
        "gazeCondition": "away",
        "faceOnLeft": false,
        "impliedDirection": 180,
        "testDirection": 180,
        "avgFps": 121,
        "minFps": 88,
        "maxFps": 8333,
        "totalFrames": 94,
        "frameRates": 121
      },
      {
        "trial_number": 94,
        "trial_index": 587,
        "rt": 704,
        "correct": true,
        "response": "ArrowLeft",
        "congruent": false,
        "gazeTowards": true,
        "gazeCondition": "towards",
        "faceOnLeft": true,
        "impliedDirection": 0,
        "testDirection": 180,
        "avgFps": 121,
        "minFps": 92,
        "maxFps": 12500,
        "totalFrames": 85,
        "frameRates": 121
      },
      {
        "trial_number": 95,
        "trial_index": 592,
        "rt": 748,
        "correct": true,
        "response": "ArrowLeft",
        "congruent": true,
        "gazeTowards": false,
        "gazeCondition": "away",
        "faceOnLeft": false,
        "impliedDirection": 180,
        "testDirection": 180,
        "avgFps": 120,
        "minFps": 73,
        "maxFps": 10000,
        "totalFrames": 90,
        "frameRates": 120
      },
      {
        "trial_number": 96,
        "trial_index": 600,
        "rt": 679,
        "correct": true,
        "response": "ArrowLeft",
        "congruent": false,
        "gazeTowards": false,
        "gazeCondition": "away",
        "faceOnLeft": true,
        "impliedDirection": 0,
        "testDirection": 180,
        "avgFps": 120,
        "minFps": 60,
        "maxFps": 8333,
        "totalFrames": 81,
        "frameRates": 120
      },
      {
        "trial_number": 97,
        "trial_index": 605,
        "rt": 730,
        "correct": true,
        "response": "ArrowRight",
        "congruent": false,
        "gazeTowards": true,
        "gazeCondition": "towards",
        "faceOnLeft": false,
        "impliedDirection": 180,
        "testDirection": 0,
        "avgFps": 120,
        "minFps": 59,
        "maxFps": 10000,
        "totalFrames": 87,
        "frameRates": 120
      },
      {
        "trial_number": 98,
        "trial_index": 613,
        "rt": 613,
        "correct": true,
        "response": "ArrowRight",
        "congruent": true,
        "gazeTowards": false,
        "gazeCondition": "away",
        "faceOnLeft": true,
        "impliedDirection": 0,
        "testDirection": 0,
        "avgFps": 120,
        "minFps": 60,
        "maxFps": 7143,
        "totalFrames": 73,
        "frameRates": 120
      },
      {
        "trial_number": 99,
        "trial_index": 618,
        "rt": 758,
        "correct": true,
        "response": "ArrowRight",
        "congruent": false,
        "gazeTowards": true,
        "gazeCondition": "towards",
        "faceOnLeft": false,
        "impliedDirection": 180,
        "testDirection": 0,
        "avgFps": 120,
        "minFps": 65,
        "maxFps": 10000,
        "totalFrames": 91,
        "frameRates": 120
      },
      {
        "trial_number": 100,
        "trial_index": 623,
        "rt": 529,
        "correct": true,
        "response": "ArrowLeft",
        "congruent": true,
        "gazeTowards": true,
        "gazeCondition": "towards",
        "faceOnLeft": false,
        "impliedDirection": 180,
        "testDirection": 180,
        "avgFps": 119,
        "minFps": 53,
        "maxFps": 10000,
        "totalFrames": 63,
        "frameRates": 119
      },
      {
        "trial_number": 101,
        "trial_index": 628,
        "rt": 574,
        "correct": true,
        "response": "ArrowRight",
        "congruent": true,
        "gazeTowards": false,
        "gazeCondition": "away",
        "faceOnLeft": true,
        "impliedDirection": 0,
        "testDirection": 0,
        "avgFps": 120,
        "minFps": 66,
        "maxFps": 10000,
        "totalFrames": 69,
        "frameRates": 120
      },
      {
        "trial_number": 102,
        "trial_index": 633,
        "rt": 578,
        "correct": true,
        "response": "ArrowRight",
        "congruent": false,
        "gazeTowards": true,
        "gazeCondition": "towards",
        "faceOnLeft": false,
        "impliedDirection": 180,
        "testDirection": 0,
        "avgFps": 120,
        "minFps": 70,
        "maxFps": 7143,
        "totalFrames": 69,
        "frameRates": 120
      },
      {
        "trial_number": 103,
        "trial_index": 638,
        "rt": 575,
        "correct": true,
        "response": "ArrowRight",
        "congruent": true,
        "gazeTowards": false,
        "gazeCondition": "away",
        "faceOnLeft": true,
        "impliedDirection": 0,
        "testDirection": 0,
        "avgFps": 120,
        "minFps": 69,
        "maxFps": 10000,
        "totalFrames": 69,
        "frameRates": 120
      },
      {
        "trial_number": 104,
        "trial_index": 643,
        "rt": 474,
        "correct": true,
        "response": "ArrowLeft",
        "congruent": true,
        "gazeTowards": false,
        "gazeCondition": "away",
        "faceOnLeft": false,
        "impliedDirection": 180,
        "testDirection": 180,
        "avgFps": 121,
        "minFps": 86,
        "maxFps": 7143,
        "totalFrames": 57,
        "frameRates": 121
      },
      {
        "trial_number": 105,
        "trial_index": 648,
        "rt": 546,
        "correct": true,
        "response": "ArrowRight",
        "congruent": false,
        "gazeTowards": true,
        "gazeCondition": "towards",
        "faceOnLeft": false,
        "impliedDirection": 180,
        "testDirection": 0,
        "avgFps": 120,
        "minFps": 64,
        "maxFps": 7143,
        "totalFrames": 65,
        "frameRates": 120
      },
      {
        "trial_number": 106,
        "trial_index": 653,
        "rt": 501,
        "correct": true,
        "response": "ArrowRight",
        "congruent": true,
        "gazeTowards": false,
        "gazeCondition": "away",
        "faceOnLeft": true,
        "impliedDirection": 0,
        "testDirection": 0,
        "avgFps": 121,
        "minFps": 75,
        "maxFps": 8333,
        "totalFrames": 60,
        "frameRates": 121
      },
      {
        "trial_number": 107,
        "trial_index": 658,
        "rt": 486,
        "correct": true,
        "response": "ArrowLeft",
        "congruent": true,
        "gazeTowards": true,
        "gazeCondition": "towards",
        "faceOnLeft": false,
        "impliedDirection": 180,
        "testDirection": 180,
        "avgFps": 120,
        "minFps": 56,
        "maxFps": 16667,
        "totalFrames": 58,
        "frameRates": 120
      },
      {
        "trial_number": 108,
        "trial_index": 666,
        "rt": 763,
        "correct": true,
        "response": "ArrowRight",
        "congruent": false,
        "gazeTowards": true,
        "gazeCondition": "towards",
        "faceOnLeft": false,
        "impliedDirection": 180,
        "testDirection": 0,
        "avgFps": 120,
        "minFps": 108,
        "maxFps": 165,
        "totalFrames": 91,
        "frameRates": 120
      },
      {
        "trial_number": 109,
        "trial_index": 671,
        "rt": 597,
        "correct": true,
        "response": "ArrowLeft",
        "congruent": true,
        "gazeTowards": false,
        "gazeCondition": "away",
        "faceOnLeft": false,
        "impliedDirection": 180,
        "testDirection": 180,
        "avgFps": 120,
        "minFps": 58,
        "maxFps": 12500,
        "totalFrames": 71,
        "frameRates": 120
      },
      {
        "trial_number": 110,
        "trial_index": 676,
        "rt": 698,
        "correct": true,
        "response": "ArrowLeft",
        "congruent": false,
        "gazeTowards": true,
        "gazeCondition": "towards",
        "faceOnLeft": true,
        "impliedDirection": 0,
        "testDirection": 180,
        "avgFps": 120,
        "minFps": 53,
        "maxFps": 8333,
        "totalFrames": 83,
        "frameRates": 120
      },
      {
        "trial_number": 111,
        "trial_index": 681,
        "rt": 746,
        "correct": true,
        "response": "ArrowRight",
        "congruent": true,
        "gazeTowards": true,
        "gazeCondition": "towards",
        "faceOnLeft": true,
        "impliedDirection": 0,
        "testDirection": 0,
        "avgFps": 120,
        "minFps": 64,
        "maxFps": 10000,
        "totalFrames": 89,
        "frameRates": 120
      },
      {
        "trial_number": 112,
        "trial_index": 689,
        "rt": 620,
        "correct": true,
        "response": "ArrowLeft",
        "congruent": true,
        "gazeTowards": true,
        "gazeCondition": "towards",
        "faceOnLeft": false,
        "impliedDirection": 180,
        "testDirection": 180,
        "avgFps": 120,
        "minFps": 53,
        "maxFps": 7143,
        "totalFrames": 74,
        "frameRates": 120
      },
      {
        "trial_number": 113,
        "trial_index": 694,
        "rt": 594,
        "correct": true,
        "response": "ArrowLeft",
        "congruent": true,
        "gazeTowards": true,
        "gazeCondition": "towards",
        "faceOnLeft": false,
        "impliedDirection": 180,
        "testDirection": 180,
        "avgFps": 120,
        "minFps": 62,
        "maxFps": 7143,
        "totalFrames": 71,
        "frameRates": 120
      },
      {
        "trial_number": 114,
        "trial_index": 699,
        "rt": 617,
        "correct": true,
        "response": "ArrowRight",
        "congruent": true,
        "gazeTowards": true,
        "gazeCondition": "towards",
        "faceOnLeft": true,
        "impliedDirection": 0,
        "testDirection": 0,
        "avgFps": 121,
        "minFps": 83,
        "maxFps": 10000,
        "totalFrames": 74,
        "frameRates": 121
      },
      {
        "trial_number": 115,
        "trial_index": 704,
        "rt": 617,
        "correct": true,
        "response": "ArrowRight",
        "congruent": false,
        "gazeTowards": true,
        "gazeCondition": "towards",
        "faceOnLeft": false,
        "impliedDirection": 180,
        "testDirection": 0,
        "avgFps": 121,
        "minFps": 73,
        "maxFps": 25000,
        "totalFrames": 74,
        "frameRates": 121
      },
      {
        "trial_number": 116,
        "trial_index": 709,
        "rt": 625,
        "correct": true,
        "response": "ArrowLeft",
        "congruent": false,
        "gazeTowards": false,
        "gazeCondition": "away",
        "faceOnLeft": true,
        "impliedDirection": 0,
        "testDirection": 180,
        "avgFps": 121,
        "minFps": 76,
        "maxFps": 7143,
        "totalFrames": 75,
        "frameRates": 121
      },
      {
        "trial_number": 117,
        "trial_index": 714,
        "rt": 741,
        "correct": true,
        "response": "ArrowRight",
        "congruent": false,
        "gazeTowards": false,
        "gazeCondition": "away",
        "faceOnLeft": false,
        "impliedDirection": 180,
        "testDirection": 0,
        "avgFps": 121,
        "minFps": 89,
        "maxFps": 7143,
        "totalFrames": 89,
        "frameRates": 121
      },
      {
        "trial_number": 118,
        "trial_index": 719,
        "rt": 982,
        "correct": true,
        "response": "ArrowRight",
        "congruent": true,
        "gazeTowards": false,
        "gazeCondition": "away",
        "faceOnLeft": true,
        "impliedDirection": 0,
        "testDirection": 0,
        "avgFps": 120,
        "minFps": 54,
        "maxFps": 8333,
        "totalFrames": 117,
        "frameRates": 120
      },
      {
        "trial_number": 119,
        "trial_index": 724,
        "rt": 572,
        "correct": true,
        "response": "ArrowRight",
        "congruent": true,
        "gazeTowards": false,
        "gazeCondition": "away",
        "faceOnLeft": true,
        "impliedDirection": 0,
        "testDirection": 0,
        "avgFps": 120,
        "minFps": 108,
        "maxFps": 133,
        "totalFrames": 68,
        "frameRates": 120
      }
    ],
    "catch": {
      "total": 12,
      "correct": 12,
      "accuracy": 100,
      "meanRT": 614,
      "trials": [
        {
          "trial_number": 0,
          "trial_index": 94,
          "rt": 637,
          "correct": true,
          "colorTarget": "tree",
          "gazeTowards": false,
          "gazeCondition": "away",
          "faceOnLeft": false
        },
        {
          "trial_number": 1,
          "trial_index": 97,
          "rt": 643,
          "correct": true,
          "colorTarget": "face",
          "gazeTowards": true,
          "gazeCondition": "towards",
          "faceOnLeft": true
        },
        {
          "trial_number": 2,
          "trial_index": 165,
          "rt": 692,
          "correct": true,
          "colorTarget": "tree",
          "gazeTowards": true,
          "gazeCondition": "towards",
          "faceOnLeft": true
        },
        {
          "trial_number": 3,
          "trial_index": 188,
          "rt": 691,
          "correct": true,
          "colorTarget": "tree",
          "gazeTowards": false,
          "gazeCondition": "away",
          "faceOnLeft": true
        },
        {
          "trial_number": 4,
          "trial_index": 327,
          "rt": 740,
          "correct": true,
          "colorTarget": "face",
          "gazeTowards": false,
          "gazeCondition": "away",
          "faceOnLeft": false
        },
        {
          "trial_number": 5,
          "trial_index": 395,
          "rt": 688,
          "correct": true,
          "colorTarget": "tree",
          "gazeTowards": false,
          "gazeCondition": "away",
          "faceOnLeft": false
        },
        {
          "trial_number": 6,
          "trial_index": 549,
          "rt": 626,
          "correct": true,
          "colorTarget": "face",
          "gazeTowards": false,
          "gazeCondition": "away",
          "faceOnLeft": false
        },
        {
          "trial_number": 7,
          "trial_index": 567,
          "rt": 369,
          "correct": true,
          "colorTarget": "face",
          "gazeTowards": true,
          "gazeCondition": "towards",
          "faceOnLeft": true
        },
        {
          "trial_number": 8,
          "trial_index": 596,
          "rt": 624,
          "correct": true,
          "colorTarget": "face",
          "gazeTowards": true,
          "gazeCondition": "towards",
          "faceOnLeft": false
        },
        {
          "trial_number": 9,
          "trial_index": 609,
          "rt": 540,
          "correct": true,
          "colorTarget": "tree",
          "gazeTowards": true,
          "gazeCondition": "towards",
          "faceOnLeft": false
        },
        {
          "trial_number": 10,
          "trial_index": 662,
          "rt": 549,
          "correct": true,
          "colorTarget": "tree",
          "gazeTowards": true,
          "gazeCondition": "towards",
          "faceOnLeft": true
        },
        {
          "trial_number": 11,
          "trial_index": 685,
          "rt": 574,
          "correct": true,
          "colorTarget": "face",
          "gazeTowards": true,
          "gazeCondition": "towards",
          "faceOnLeft": true
        }
      ]
    },
    "practice": {
      "trials": [
        {
          "trial_number": 0,
          "rt": null,
          "correct": false,
          "direction": 180
        },
        {
          "trial_number": 1,
          "rt": 840,
          "correct": true,
          "direction": 180
        },
        {
          "trial_number": 2,
          "rt": 938,
          "correct": true,
          "direction": 0
        },
        {
          "trial_number": 3,
          "rt": 1178,
          "correct": false,
          "direction": 0
        },
        {
          "trial_number": 4,
          "rt": 769,
          "correct": true,
          "direction": 180
        },
        {
          "trial_number": 5,
          "rt": 779,
          "correct": true,
          "direction": 0
        },
        {
          "trial_number": 6,
          "rt": 795,
          "correct": true,
          "direction": 180
        },
        {
          "trial_number": 7,
          "rt": 733,
          "correct": true,
          "direction": 180
        },
        {
          "trial_number": 8,
          "rt": 999,
          "correct": false,
          "direction": 180
        },
        {
          "trial_number": 9,
          "rt": 674,
          "correct": true,
          "direction": 180
        },
        {
          "trial_number": 10,
          "rt": 782,
          "correct": true,
          "direction": 180
        },
        {
          "trial_number": 11,
          "rt": 752,
          "correct": true,
          "direction": 180
        },
        {
          "trial_number": 12,
          "rt": 928,
          "correct": true,
          "direction": 0
        },
        {
          "trial_number": 13,
          "rt": 819,
          "correct": true,
          "direction": 0
        },
        {
          "trial_number": 14,
          "rt": 763,
          "correct": true,
          "direction": 180
        },
        {
          "trial_number": 15,
          "rt": 906,
          "correct": true,
          "direction": 0
        },
        {
          "trial_number": 16,
          "rt": 829,
          "correct": true,
          "direction": 180
        },
        {
          "trial_number": 17,
          "rt": 896,
          "correct": true,
          "direction": 180
        },
        {
          "trial_number": 18,
          "rt": 990,
          "correct": true,
          "direction": 180
        },
        {
          "trial_number": 19,
          "rt": 983,
          "correct": true,
          "direction": 180
        }
      ],
      "meanRT": 861,
      "accuracy": 85
    }
  }
}