{
  "experiment": "rdk-face-1",
  "UUID": "bd3232c5-0705-4599-a63f-7f42857da6f1",
  "data": {
    "session": {
      "experiment_version": "1.8.6",
      "treatment": "faces_towards_away_catch",
      "file_version": "1.8.6",
      "totalTrials": 120,
      "totalTrialsIncludingCatch": 132,
      "conditions": {
        "gazeTowardsCount": 60,
        "gazeAwayCount": 60,
        "gazeTowardsAccuracy": 100,
        "gazeAwayAccuracy": 100
      },
      "session_group": "default",
      "browserData": {
        "os": "Windows",
        "browser": "Chrome",
        "screenResolution": "1920x1080",
        "browserViewport": "1920x1080",
        "devicePixelRatio": 1,
        "colorDepth": 32,
        "hardwareConcurrency": 28,
        "deviceMemory": 8,
        "gpuRenderer": "ANGLE (AMD, AMD Radeon RX 9060 XT (0x00007590) Direct3D11 vs_5_0 ps_5_0, D3D11)",
        "measuredRefreshRateHz": 187
      },
      "attention": {
        "visibilityEvents": []
      },
      "calibration": {
        "monitorWidthCm": 38,
        "viewingDistanceCm": 54,
        "pixelsPerDegree": 50
      },
      "parameters": {
        "coherence": 0.4,
        "apertureDeg": 5,
        "densityDotsPerDeg2": 40,
        "dotDiameterDeg": 0.035,
        "dotSpeedDegPerSec": 3,
        "lifetimeMs": 200,
        "fixationDurationMs": 1500,
        "faceDurationMs": 1500,
        "testDurationMs": 2000,
        "catchResponseMs": 3000
      },
      "prolific": {
        "prolificPid": "5ec8e2397ff48e3c154fb173",
        "studyId": "",
        "sessionId": ""
      },
      "timing": {
        "startTime": "2026-03-06T06:28:56.756Z",
        "endTime": "2026-03-06T06:42:57.758Z",
        "totalElapsedTimeMs": 841002
      }
    },
    "trials": [
      {
        "trial_number": 0,
        "trial_index": 49,
        "rt": 756,
        "correct": true,
        "response": "ArrowRight",
        "congruent": true,
        "gazeTowards": false,
        "gazeCondition": "away",
        "faceOnLeft": true,
        "impliedDirection": 0,
        "testDirection": 0,
        "avgFps": 200,
        "minFps": 192,
        "maxFps": 204,
        "totalFrames": 151,
        "frameRates": 200
      },
      {
        "trial_number": 1,
        "trial_index": 54,
        "rt": 446,
        "correct": true,
        "response": "ArrowLeft",
        "congruent": false,
        "gazeTowards": false,
        "gazeCondition": "away",
        "faceOnLeft": true,
        "impliedDirection": 0,
        "testDirection": 180,
        "avgFps": 201,
        "minFps": 196,
        "maxFps": 286,
        "totalFrames": 89,
        "frameRates": 201
      },
      {
        "trial_number": 2,
        "trial_index": 59,
        "rt": 501,
        "correct": true,
        "response": "ArrowLeft",
        "congruent": true,
        "gazeTowards": true,
        "gazeCondition": "towards",
        "faceOnLeft": false,
        "impliedDirection": 180,
        "testDirection": 180,
        "avgFps": 200,
        "minFps": 192,
        "maxFps": 208,
        "totalFrames": 100,
        "frameRates": 200
      },
      {
        "trial_number": 3,
        "trial_index": 64,
        "rt": 439,
        "correct": true,
        "response": "ArrowRight",
        "congruent": false,
        "gazeTowards": true,
        "gazeCondition": "towards",
        "faceOnLeft": false,
        "impliedDirection": 180,
        "testDirection": 0,
        "avgFps": 201,
        "minFps": 196,
        "maxFps": 286,
        "totalFrames": 87,
        "frameRates": 201
      },
      {
        "trial_number": 4,
        "trial_index": 69,
        "rt": 466,
        "correct": true,
        "response": "ArrowLeft",
        "congruent": true,
        "gazeTowards": true,
        "gazeCondition": "towards",
        "faceOnLeft": false,
        "impliedDirection": 180,
        "testDirection": 180,
        "avgFps": 200,
        "minFps": 189,
        "maxFps": 208,
        "totalFrames": 93,
        "frameRates": 200
      },
      {
        "trial_number": 5,
        "trial_index": 74,
        "rt": 454,
        "correct": true,
        "response": "ArrowLeft",
        "congruent": false,
        "gazeTowards": true,
        "gazeCondition": "towards",
        "faceOnLeft": true,
        "impliedDirection": 0,
        "testDirection": 180,
        "avgFps": 198,
        "minFps": 93,
        "maxFps": 250,
        "totalFrames": 90,
        "frameRates": 198
      },
      {
        "trial_number": 6,
        "trial_index": 79,
        "rt": 464,
        "correct": true,
        "response": "ArrowRight",
        "congruent": false,
        "gazeTowards": true,
        "gazeCondition": "towards",
        "faceOnLeft": false,
        "impliedDirection": 180,
        "testDirection": 0,
        "avgFps": 200,
        "minFps": 196,
        "maxFps": 204,
        "totalFrames": 92,
        "frameRates": 200
      },
      {
        "trial_number": 7,
        "trial_index": 84,
        "rt": 434,
        "correct": true,
        "response": "ArrowLeft",
        "congruent": true,
        "gazeTowards": false,
        "gazeCondition": "away",
        "faceOnLeft": false,
        "impliedDirection": 180,
        "testDirection": 180,
        "avgFps": 200,
        "minFps": 192,
        "maxFps": 208,
        "totalFrames": 87,
        "frameRates": 200
      },
      {
        "trial_number": 8,
        "trial_index": 89,
        "rt": 468,
        "correct": true,
        "response": "ArrowRight",
        "congruent": false,
        "gazeTowards": true,
        "gazeCondition": "towards",
        "faceOnLeft": false,
        "impliedDirection": 180,
        "testDirection": 0,
        "avgFps": 200,
        "minFps": 192,
        "maxFps": 208,
        "totalFrames": 93,
        "frameRates": 200
      },
      {
        "trial_number": 9,
        "trial_index": 94,
        "rt": 456,
        "correct": true,
        "response": "ArrowLeft",
        "congruent": true,
        "gazeTowards": false,
        "gazeCondition": "away",
        "faceOnLeft": false,
        "impliedDirection": 180,
        "testDirection": 180,
        "avgFps": 201,
        "minFps": 192,
        "maxFps": 278,
        "totalFrames": 91,
        "frameRates": 201
      },
      {
        "trial_number": 10,
        "trial_index": 99,
        "rt": 488,
        "correct": true,
        "response": "ArrowLeft",
        "congruent": true,
        "gazeTowards": false,
        "gazeCondition": "away",
        "faceOnLeft": false,
        "impliedDirection": 180,
        "testDirection": 180,
        "avgFps": 200,
        "minFps": 196,
        "maxFps": 208,
        "totalFrames": 97,
        "frameRates": 200
      },
      {
        "trial_number": 11,
        "trial_index": 104,
        "rt": 498,
        "correct": true,
        "response": "ArrowLeft",
        "congruent": true,
        "gazeTowards": false,
        "gazeCondition": "away",
        "faceOnLeft": false,
        "impliedDirection": 180,
        "testDirection": 180,
        "avgFps": 200,
        "minFps": 196,
        "maxFps": 204,
        "totalFrames": 99,
        "frameRates": 200
      },
      {
        "trial_number": 12,
        "trial_index": 112,
        "rt": 497,
        "correct": true,
        "response": "ArrowRight",
        "congruent": true,
        "gazeTowards": true,
        "gazeCondition": "towards",
        "faceOnLeft": true,
        "impliedDirection": 0,
        "testDirection": 0,
        "avgFps": 201,
        "minFps": 192,
        "maxFps": 304,
        "totalFrames": 100,
        "frameRates": 201
      },
      {
        "trial_number": 13,
        "trial_index": 117,
        "rt": 497,
        "correct": true,
        "response": "ArrowRight",
        "congruent": false,
        "gazeTowards": true,
        "gazeCondition": "towards",
        "faceOnLeft": false,
        "impliedDirection": 180,
        "testDirection": 0,
        "avgFps": 200,
        "minFps": 192,
        "maxFps": 204,
        "totalFrames": 99,
        "frameRates": 200
      },
      {
        "trial_number": 14,
        "trial_index": 122,
        "rt": 501,
        "correct": true,
        "response": "ArrowRight",
        "congruent": false,
        "gazeTowards": true,
        "gazeCondition": "towards",
        "faceOnLeft": false,
        "impliedDirection": 180,
        "testDirection": 0,
        "avgFps": 200,
        "minFps": 192,
        "maxFps": 208,
        "totalFrames": 100,
        "frameRates": 200
      },
      {
        "trial_number": 15,
        "trial_index": 127,
        "rt": 463,
        "correct": true,
        "response": "ArrowRight",
        "congruent": false,
        "gazeTowards": true,
        "gazeCondition": "towards",
        "faceOnLeft": false,
        "impliedDirection": 180,
        "testDirection": 0,
        "avgFps": 198,
        "minFps": 99,
        "maxFps": 208,
        "totalFrames": 92,
        "frameRates": 198
      },
      {
        "trial_number": 16,
        "trial_index": 132,
        "rt": 472,
        "correct": true,
        "response": "ArrowRight",
        "congruent": true,
        "gazeTowards": true,
        "gazeCondition": "towards",
        "faceOnLeft": true,
        "impliedDirection": 0,
        "testDirection": 0,
        "avgFps": 200,
        "minFps": 192,
        "maxFps": 204,
        "totalFrames": 94,
        "frameRates": 200
      },
      {
        "trial_number": 17,
        "trial_index": 137,
        "rt": 509,
        "correct": true,
        "response": "ArrowRight",
        "congruent": false,
        "gazeTowards": false,
        "gazeCondition": "away",
        "faceOnLeft": false,
        "impliedDirection": 180,
        "testDirection": 0,
        "avgFps": 199,
        "minFps": 105,
        "maxFps": 263,
        "totalFrames": 101,
        "frameRates": 199
      },
      {
        "trial_number": 18,
        "trial_index": 142,
        "rt": 449,
        "correct": true,
        "response": "ArrowLeft",
        "congruent": false,
        "gazeTowards": false,
        "gazeCondition": "away",
        "faceOnLeft": true,
        "impliedDirection": 0,
        "testDirection": 180,
        "avgFps": 201,
        "minFps": 192,
        "maxFps": 278,
        "totalFrames": 90,
        "frameRates": 201
      },
      {
        "trial_number": 19,
        "trial_index": 147,
        "rt": 496,
        "correct": true,
        "response": "ArrowRight",
        "congruent": true,
        "gazeTowards": true,
        "gazeCondition": "towards",
        "faceOnLeft": true,
        "impliedDirection": 0,
        "testDirection": 0,
        "avgFps": 200,
        "minFps": 192,
        "maxFps": 208,
        "totalFrames": 99,
        "frameRates": 200
      },
      {
        "trial_number": 20,
        "trial_index": 152,
        "rt": 425,
        "correct": true,
        "response": "ArrowRight",
        "congruent": true,
        "gazeTowards": false,
        "gazeCondition": "away",
        "faceOnLeft": true,
        "impliedDirection": 0,
        "testDirection": 0,
        "avgFps": 200,
        "minFps": 192,
        "maxFps": 208,
        "totalFrames": 85,
        "frameRates": 200
      },
      {
        "trial_number": 21,
        "trial_index": 157,
        "rt": 493,
        "correct": true,
        "response": "ArrowRight",
        "congruent": false,
        "gazeTowards": true,
        "gazeCondition": "towards",
        "faceOnLeft": false,
        "impliedDirection": 180,
        "testDirection": 0,
        "avgFps": 200,
        "minFps": 196,
        "maxFps": 204,
        "totalFrames": 99,
        "frameRates": 200
      },
      {
        "trial_number": 22,
        "trial_index": 162,
        "rt": 464,
        "correct": true,
        "response": "ArrowLeft",
        "congruent": true,
        "gazeTowards": false,
        "gazeCondition": "away",
        "faceOnLeft": false,
        "impliedDirection": 180,
        "testDirection": 180,
        "avgFps": 200,
        "minFps": 192,
        "maxFps": 204,
        "totalFrames": 92,
        "frameRates": 200
      },
      {
        "trial_number": 23,
        "trial_index": 170,
        "rt": 477,
        "correct": true,
        "response": "ArrowRight",
        "congruent": false,
        "gazeTowards": true,
        "gazeCondition": "towards",
        "faceOnLeft": false,
        "impliedDirection": 180,
        "testDirection": 0,
        "avgFps": 200,
        "minFps": 192,
        "maxFps": 213,
        "totalFrames": 95,
        "frameRates": 200
      },
      {
        "trial_number": 24,
        "trial_index": 175,
        "rt": 495,
        "correct": true,
        "response": "ArrowRight",
        "congruent": false,
        "gazeTowards": false,
        "gazeCondition": "away",
        "faceOnLeft": false,
        "impliedDirection": 180,
        "testDirection": 0,
        "avgFps": 198,
        "minFps": 89,
        "maxFps": 278,
        "totalFrames": 98,
        "frameRates": 198
      },
      {
        "trial_number": 25,
        "trial_index": 180,
        "rt": 465,
        "correct": true,
        "response": "ArrowLeft",
        "congruent": true,
        "gazeTowards": false,
        "gazeCondition": "away",
        "faceOnLeft": false,
        "impliedDirection": 180,
        "testDirection": 180,
        "avgFps": 200,
        "minFps": 192,
        "maxFps": 213,
        "totalFrames": 93,
        "frameRates": 200
      },
      {
        "trial_number": 26,
        "trial_index": 185,
        "rt": 506,
        "correct": true,
        "response": "ArrowLeft",
        "congruent": false,
        "gazeTowards": false,
        "gazeCondition": "away",
        "faceOnLeft": true,
        "impliedDirection": 0,
        "testDirection": 180,
        "avgFps": 200,
        "minFps": 196,
        "maxFps": 204,
        "totalFrames": 101,
        "frameRates": 200
      },
      {
        "trial_number": 27,
        "trial_index": 190,
        "rt": 493,
        "correct": true,
        "response": "ArrowLeft",
        "congruent": false,
        "gazeTowards": false,
        "gazeCondition": "away",
        "faceOnLeft": true,
        "impliedDirection": 0,
        "testDirection": 180,
        "avgFps": 201,
        "minFps": 192,
        "maxFps": 295,
        "totalFrames": 98,
        "frameRates": 201
      },
      {
        "trial_number": 28,
        "trial_index": 195,
        "rt": 485,
        "correct": true,
        "response": "ArrowLeft",
        "congruent": true,
        "gazeTowards": false,
        "gazeCondition": "away",
        "faceOnLeft": false,
        "impliedDirection": 180,
        "testDirection": 180,
        "avgFps": 198,
        "minFps": 92,
        "maxFps": 250,
        "totalFrames": 96,
        "frameRates": 198
      },
      {
        "trial_number": 29,
        "trial_index": 200,
        "rt": 449,
        "correct": true,
        "response": "ArrowRight",
        "congruent": true,
        "gazeTowards": false,
        "gazeCondition": "away",
        "faceOnLeft": true,
        "impliedDirection": 0,
        "testDirection": 0,
        "avgFps": 200,
        "minFps": 196,
        "maxFps": 208,
        "totalFrames": 90,
        "frameRates": 200
      },
      {
        "trial_number": 30,
        "trial_index": 205,
        "rt": 439,
        "correct": true,
        "response": "ArrowRight",
        "congruent": false,
        "gazeTowards": false,
        "gazeCondition": "away",
        "faceOnLeft": false,
        "impliedDirection": 180,
        "testDirection": 0,
        "avgFps": 200,
        "minFps": 196,
        "maxFps": 204,
        "totalFrames": 87,
        "frameRates": 200
      },
      {
        "trial_number": 31,
        "trial_index": 211,
        "rt": 443,
        "correct": true,
        "response": "ArrowRight",
        "congruent": true,
        "gazeTowards": false,
        "gazeCondition": "away",
        "faceOnLeft": true,
        "impliedDirection": 0,
        "testDirection": 0,
        "avgFps": 201,
        "minFps": 192,
        "maxFps": 304,
        "totalFrames": 89,
        "frameRates": 201
      },
      {
        "trial_number": 32,
        "trial_index": 216,
        "rt": 478,
        "correct": true,
        "response": "ArrowRight",
        "congruent": true,
        "gazeTowards": true,
        "gazeCondition": "towards",
        "faceOnLeft": true,
        "impliedDirection": 0,
        "testDirection": 0,
        "avgFps": 200,
        "minFps": 196,
        "maxFps": 204,
        "totalFrames": 96,
        "frameRates": 200
      },
      {
        "trial_number": 33,
        "trial_index": 224,
        "rt": 458,
        "correct": true,
        "response": "ArrowRight",
        "congruent": true,
        "gazeTowards": false,
        "gazeCondition": "away",
        "faceOnLeft": true,
        "impliedDirection": 0,
        "testDirection": 0,
        "avgFps": 201,
        "minFps": 196,
        "maxFps": 286,
        "totalFrames": 91,
        "frameRates": 201
      },
      {
        "trial_number": 34,
        "trial_index": 229,
        "rt": 473,
        "correct": true,
        "response": "ArrowLeft",
        "congruent": true,
        "gazeTowards": false,
        "gazeCondition": "away",
        "faceOnLeft": false,
        "impliedDirection": 180,
        "testDirection": 180,
        "avgFps": 198,
        "minFps": 88,
        "maxFps": 263,
        "totalFrames": 94,
        "frameRates": 198
      },
      {
        "trial_number": 35,
        "trial_index": 234,
        "rt": 475,
        "correct": true,
        "response": "ArrowRight",
        "congruent": false,
        "gazeTowards": false,
        "gazeCondition": "away",
        "faceOnLeft": false,
        "impliedDirection": 180,
        "testDirection": 0,
        "avgFps": 200,
        "minFps": 196,
        "maxFps": 204,
        "totalFrames": 95,
        "frameRates": 200
      },
      {
        "trial_number": 36,
        "trial_index": 239,
        "rt": 453,
        "correct": true,
        "response": "ArrowLeft",
        "congruent": true,
        "gazeTowards": true,
        "gazeCondition": "towards",
        "faceOnLeft": false,
        "impliedDirection": 180,
        "testDirection": 180,
        "avgFps": 200,
        "minFps": 192,
        "maxFps": 204,
        "totalFrames": 90,
        "frameRates": 200
      },
      {
        "trial_number": 37,
        "trial_index": 244,
        "rt": 464,
        "correct": true,
        "response": "ArrowLeft",
        "congruent": false,
        "gazeTowards": false,
        "gazeCondition": "away",
        "faceOnLeft": true,
        "impliedDirection": 0,
        "testDirection": 180,
        "avgFps": 200,
        "minFps": 192,
        "maxFps": 204,
        "totalFrames": 93,
        "frameRates": 200
      },
      {
        "trial_number": 38,
        "trial_index": 249,
        "rt": 460,
        "correct": true,
        "response": "ArrowLeft",
        "congruent": true,
        "gazeTowards": false,
        "gazeCondition": "away",
        "faceOnLeft": false,
        "impliedDirection": 180,
        "testDirection": 180,
        "avgFps": 200,
        "minFps": 192,
        "maxFps": 208,
        "totalFrames": 92,
        "frameRates": 200
      },
      {
        "trial_number": 39,
        "trial_index": 254,
        "rt": 406,
        "correct": true,
        "response": "ArrowRight",
        "congruent": false,
        "gazeTowards": true,
        "gazeCondition": "towards",
        "faceOnLeft": false,
        "impliedDirection": 180,
        "testDirection": 0,
        "avgFps": 198,
        "minFps": 99,
        "maxFps": 208,
        "totalFrames": 81,
        "frameRates": 198
      },
      {
        "trial_number": 40,
        "trial_index": 259,
        "rt": 409,
        "correct": true,
        "response": "ArrowRight",
        "congruent": true,
        "gazeTowards": false,
        "gazeCondition": "away",
        "faceOnLeft": true,
        "impliedDirection": 0,
        "testDirection": 0,
        "avgFps": 200,
        "minFps": 196,
        "maxFps": 204,
        "totalFrames": 81,
        "frameRates": 200
      },
      {
        "trial_number": 41,
        "trial_index": 264,
        "rt": 465,
        "correct": true,
        "response": "ArrowLeft",
        "congruent": false,
        "gazeTowards": true,
        "gazeCondition": "towards",
        "faceOnLeft": true,
        "impliedDirection": 0,
        "testDirection": 180,
        "avgFps": 198,
        "minFps": 105,
        "maxFps": 256,
        "totalFrames": 92,
        "frameRates": 198
      },
      {
        "trial_number": 42,
        "trial_index": 269,
        "rt": 489,
        "correct": true,
        "response": "ArrowLeft",
        "congruent": true,
        "gazeTowards": true,
        "gazeCondition": "towards",
        "faceOnLeft": false,
        "impliedDirection": 180,
        "testDirection": 180,
        "avgFps": 199,
        "minFps": 118,
        "maxFps": 204,
        "totalFrames": 97,
        "frameRates": 199
      },
      {
        "trial_number": 43,
        "trial_index": 274,
        "rt": 437,
        "correct": true,
        "response": "ArrowRight",
        "congruent": false,
        "gazeTowards": false,
        "gazeCondition": "away",
        "faceOnLeft": false,
        "impliedDirection": 180,
        "testDirection": 0,
        "avgFps": 201,
        "minFps": 196,
        "maxFps": 295,
        "totalFrames": 87,
        "frameRates": 201
      },
      {
        "trial_number": 44,
        "trial_index": 279,
        "rt": 417,
        "correct": true,
        "response": "ArrowRight",
        "congruent": true,
        "gazeTowards": false,
        "gazeCondition": "away",
        "faceOnLeft": true,
        "impliedDirection": 0,
        "testDirection": 0,
        "avgFps": 201,
        "minFps": 196,
        "maxFps": 286,
        "totalFrames": 83,
        "frameRates": 201
      },
      {
        "trial_number": 45,
        "trial_index": 284,
        "rt": 424,
        "correct": true,
        "response": "ArrowLeft",
        "congruent": false,
        "gazeTowards": false,
        "gazeCondition": "away",
        "faceOnLeft": true,
        "impliedDirection": 0,
        "testDirection": 180,
        "avgFps": 198,
        "minFps": 108,
        "maxFps": 244,
        "totalFrames": 84,
        "frameRates": 198
      },
      {
        "trial_number": 46,
        "trial_index": 289,
        "rt": 434,
        "correct": true,
        "response": "ArrowLeft",
        "congruent": true,
        "gazeTowards": false,
        "gazeCondition": "away",
        "faceOnLeft": false,
        "impliedDirection": 180,
        "testDirection": 180,
        "avgFps": 198,
        "minFps": 100,
        "maxFps": 208,
        "totalFrames": 86,
        "frameRates": 198
      },
      {
        "trial_number": 47,
        "trial_index": 294,
        "rt": 401,
        "correct": true,
        "response": "ArrowLeft",
        "congruent": false,
        "gazeTowards": true,
        "gazeCondition": "towards",
        "faceOnLeft": true,
        "impliedDirection": 0,
        "testDirection": 180,
        "avgFps": 201,
        "minFps": 189,
        "maxFps": 304,
        "totalFrames": 80,
        "frameRates": 201
      },
      {
        "trial_number": 48,
        "trial_index": 299,
        "rt": 417,
        "correct": true,
        "response": "ArrowLeft",
        "congruent": false,
        "gazeTowards": false,
        "gazeCondition": "away",
        "faceOnLeft": true,
        "impliedDirection": 0,
        "testDirection": 180,
        "avgFps": 198,
        "minFps": 112,
        "maxFps": 222,
        "totalFrames": 83,
        "frameRates": 198
      },
      {
        "trial_number": 49,
        "trial_index": 304,
        "rt": 393,
        "correct": true,
        "response": "ArrowLeft",
        "congruent": false,
        "gazeTowards": true,
        "gazeCondition": "towards",
        "faceOnLeft": true,
        "impliedDirection": 0,
        "testDirection": 180,
        "avgFps": 200,
        "minFps": 192,
        "maxFps": 208,
        "totalFrames": 78,
        "frameRates": 200
      },
      {
        "trial_number": 50,
        "trial_index": 309,
        "rt": 384,
        "correct": true,
        "response": "ArrowRight",
        "congruent": true,
        "gazeTowards": true,
        "gazeCondition": "towards",
        "faceOnLeft": true,
        "impliedDirection": 0,
        "testDirection": 0,
        "avgFps": 200,
        "minFps": 192,
        "maxFps": 213,
        "totalFrames": 76,
        "frameRates": 200
      },
      {
        "trial_number": 51,
        "trial_index": 314,
        "rt": 450,
        "correct": true,
        "response": "ArrowLeft",
        "congruent": false,
        "gazeTowards": false,
        "gazeCondition": "away",
        "faceOnLeft": true,
        "impliedDirection": 0,
        "testDirection": 180,
        "avgFps": 198,
        "minFps": 92,
        "maxFps": 250,
        "totalFrames": 89,
        "frameRates": 198
      },
      {
        "trial_number": 52,
        "trial_index": 319,
        "rt": 426,
        "correct": true,
        "response": "ArrowRight",
        "congruent": false,
        "gazeTowards": true,
        "gazeCondition": "towards",
        "faceOnLeft": false,
        "impliedDirection": 180,
        "testDirection": 0,
        "avgFps": 200,
        "minFps": 189,
        "maxFps": 208,
        "totalFrames": 85,
        "frameRates": 200
      },
      {
        "trial_number": 53,
        "trial_index": 324,
        "rt": 452,
        "correct": true,
        "response": "ArrowRight",
        "congruent": true,
        "gazeTowards": true,
        "gazeCondition": "towards",
        "faceOnLeft": true,
        "impliedDirection": 0,
        "testDirection": 0,
        "avgFps": 198,
        "minFps": 91,
        "maxFps": 256,
        "totalFrames": 90,
        "frameRates": 198
      },
      {
        "trial_number": 54,
        "trial_index": 329,
        "rt": 457,
        "correct": true,
        "response": "ArrowLeft",
        "congruent": true,
        "gazeTowards": false,
        "gazeCondition": "away",
        "faceOnLeft": false,
        "impliedDirection": 180,
        "testDirection": 180,
        "avgFps": 200,
        "minFps": 192,
        "maxFps": 204,
        "totalFrames": 91,
        "frameRates": 200
      },
      {
        "trial_number": 55,
        "trial_index": 334,
        "rt": 425,
        "correct": true,
        "response": "ArrowRight",
        "congruent": false,
        "gazeTowards": false,
        "gazeCondition": "away",
        "faceOnLeft": false,
        "impliedDirection": 180,
        "testDirection": 0,
        "avgFps": 198,
        "minFps": 91,
        "maxFps": 244,
        "totalFrames": 84,
        "frameRates": 198
      },
      {
        "trial_number": 56,
        "trial_index": 339,
        "rt": 427,
        "correct": true,
        "response": "ArrowLeft",
        "congruent": false,
        "gazeTowards": false,
        "gazeCondition": "away",
        "faceOnLeft": true,
        "impliedDirection": 0,
        "testDirection": 180,
        "avgFps": 201,
        "minFps": 196,
        "maxFps": 286,
        "totalFrames": 85,
        "frameRates": 201
      },
      {
        "trial_number": 57,
        "trial_index": 344,
        "rt": 405,
        "correct": true,
        "response": "ArrowLeft",
        "congruent": false,
        "gazeTowards": false,
        "gazeCondition": "away",
        "faceOnLeft": true,
        "impliedDirection": 0,
        "testDirection": 180,
        "avgFps": 200,
        "minFps": 192,
        "maxFps": 213,
        "totalFrames": 81,
        "frameRates": 200
      },
      {
        "trial_number": 58,
        "trial_index": 349,
        "rt": 405,
        "correct": true,
        "response": "ArrowLeft",
        "congruent": true,
        "gazeTowards": true,
        "gazeCondition": "towards",
        "faceOnLeft": false,
        "impliedDirection": 180,
        "testDirection": 180,
        "avgFps": 200,
        "minFps": 192,
        "maxFps": 204,
        "totalFrames": 81,
        "frameRates": 200
      },
      {
        "trial_number": 59,
        "trial_index": 354,
        "rt": 421,
        "correct": true,
        "response": "ArrowLeft",
        "congruent": true,
        "gazeTowards": false,
        "gazeCondition": "away",
        "faceOnLeft": false,
        "impliedDirection": 180,
        "testDirection": 180,
        "avgFps": 200,
        "minFps": 192,
        "maxFps": 208,
        "totalFrames": 84,
        "frameRates": 200
      },
      {
        "trial_number": 60,
        "trial_index": 362,
        "rt": 442,
        "correct": true,
        "response": "ArrowLeft",
        "congruent": true,
        "gazeTowards": true,
        "gazeCondition": "towards",
        "faceOnLeft": false,
        "impliedDirection": 180,
        "testDirection": 180,
        "avgFps": 201,
        "minFps": 196,
        "maxFps": 286,
        "totalFrames": 88,
        "frameRates": 201
      },
      {
        "trial_number": 61,
        "trial_index": 367,
        "rt": 479,
        "correct": true,
        "response": "ArrowLeft",
        "congruent": true,
        "gazeTowards": true,
        "gazeCondition": "towards",
        "faceOnLeft": false,
        "impliedDirection": 180,
        "testDirection": 180,
        "avgFps": 200,
        "minFps": 196,
        "maxFps": 204,
        "totalFrames": 94,
        "frameRates": 200
      },
      {
        "trial_number": 62,
        "trial_index": 373,
        "rt": 425,
        "correct": true,
        "response": "ArrowRight",
        "congruent": false,
        "gazeTowards": false,
        "gazeCondition": "away",
        "faceOnLeft": false,
        "impliedDirection": 180,
        "testDirection": 0,
        "avgFps": 200,
        "minFps": 192,
        "maxFps": 204,
        "totalFrames": 85,
        "frameRates": 200
      },
      {
        "trial_number": 63,
        "trial_index": 381,
        "rt": 498,
        "correct": true,
        "response": "ArrowLeft",
        "congruent": true,
        "gazeTowards": true,
        "gazeCondition": "towards",
        "faceOnLeft": false,
        "impliedDirection": 180,
        "testDirection": 180,
        "avgFps": 201,
        "minFps": 196,
        "maxFps": 286,
        "totalFrames": 100,
        "frameRates": 201
      },
      {
        "trial_number": 64,
        "trial_index": 386,
        "rt": 452,
        "correct": true,
        "response": "ArrowLeft",
        "congruent": false,
        "gazeTowards": false,
        "gazeCondition": "away",
        "faceOnLeft": true,
        "impliedDirection": 0,
        "testDirection": 180,
        "avgFps": 200,
        "minFps": 196,
        "maxFps": 235,
        "totalFrames": 90,
        "frameRates": 200
      },
      {
        "trial_number": 65,
        "trial_index": 391,
        "rt": 450,
        "correct": true,
        "response": "ArrowLeft",
        "congruent": false,
        "gazeTowards": true,
        "gazeCondition": "towards",
        "faceOnLeft": true,
        "impliedDirection": 0,
        "testDirection": 180,
        "avgFps": 200,
        "minFps": 189,
        "maxFps": 204,
        "totalFrames": 90,
        "frameRates": 200
      },
      {
        "trial_number": 66,
        "trial_index": 396,
        "rt": 412,
        "correct": true,
        "response": "ArrowRight",
        "congruent": false,
        "gazeTowards": true,
        "gazeCondition": "towards",
        "faceOnLeft": false,
        "impliedDirection": 180,
        "testDirection": 0,
        "avgFps": 200,
        "minFps": 196,
        "maxFps": 208,
        "totalFrames": 82,
        "frameRates": 200
      },
      {
        "trial_number": 67,
        "trial_index": 401,
        "rt": 453,
        "correct": true,
        "response": "ArrowRight",
        "congruent": true,
        "gazeTowards": false,
        "gazeCondition": "away",
        "faceOnLeft": true,
        "impliedDirection": 0,
        "testDirection": 0,
        "avgFps": 200,
        "minFps": 192,
        "maxFps": 204,
        "totalFrames": 90,
        "frameRates": 200
      },
      {
        "trial_number": 68,
        "trial_index": 406,
        "rt": 503,
        "correct": true,
        "response": "ArrowLeft",
        "congruent": false,
        "gazeTowards": true,
        "gazeCondition": "towards",
        "faceOnLeft": true,
        "impliedDirection": 0,
        "testDirection": 180,
        "avgFps": 200,
        "minFps": 192,
        "maxFps": 208,
        "totalFrames": 101,
        "frameRates": 200
      },
      {
        "trial_number": 69,
        "trial_index": 414,
        "rt": 452,
        "correct": true,
        "response": "ArrowRight",
        "congruent": false,
        "gazeTowards": true,
        "gazeCondition": "towards",
        "faceOnLeft": false,
        "impliedDirection": 180,
        "testDirection": 0,
        "avgFps": 200,
        "minFps": 192,
        "maxFps": 208,
        "totalFrames": 90,
        "frameRates": 200
      },
      {
        "trial_number": 70,
        "trial_index": 419,
        "rt": 559,
        "correct": true,
        "response": "ArrowRight",
        "congruent": false,
        "gazeTowards": false,
        "gazeCondition": "away",
        "faceOnLeft": false,
        "impliedDirection": 180,
        "testDirection": 0,
        "avgFps": 200,
        "minFps": 189,
        "maxFps": 208,
        "totalFrames": 112,
        "frameRates": 200
      },
      {
        "trial_number": 71,
        "trial_index": 424,
        "rt": 468,
        "correct": true,
        "response": "ArrowRight",
        "congruent": false,
        "gazeTowards": false,
        "gazeCondition": "away",
        "faceOnLeft": false,
        "impliedDirection": 180,
        "testDirection": 0,
        "avgFps": 201,
        "minFps": 192,
        "maxFps": 271,
        "totalFrames": 93,
        "frameRates": 201
      },
      {
        "trial_number": 72,
        "trial_index": 429,
        "rt": 465,
        "correct": true,
        "response": "ArrowLeft",
        "congruent": true,
        "gazeTowards": false,
        "gazeCondition": "away",
        "faceOnLeft": false,
        "impliedDirection": 180,
        "testDirection": 180,
        "avgFps": 200,
        "minFps": 192,
        "maxFps": 213,
        "totalFrames": 93,
        "frameRates": 200
      },
      {
        "trial_number": 73,
        "trial_index": 434,
        "rt": 416,
        "correct": true,
        "response": "ArrowRight",
        "congruent": true,
        "gazeTowards": true,
        "gazeCondition": "towards",
        "faceOnLeft": true,
        "impliedDirection": 0,
        "testDirection": 0,
        "avgFps": 200,
        "minFps": 192,
        "maxFps": 204,
        "totalFrames": 83,
        "frameRates": 200
      },
      {
        "trial_number": 74,
        "trial_index": 439,
        "rt": 435,
        "correct": true,
        "response": "ArrowLeft",
        "congruent": true,
        "gazeTowards": false,
        "gazeCondition": "away",
        "faceOnLeft": false,
        "impliedDirection": 180,
        "testDirection": 180,
        "avgFps": 201,
        "minFps": 196,
        "maxFps": 304,
        "totalFrames": 87,
        "frameRates": 201
      },
      {
        "trial_number": 75,
        "trial_index": 444,
        "rt": 470,
        "correct": true,
        "response": "ArrowRight",
        "congruent": false,
        "gazeTowards": false,
        "gazeCondition": "away",
        "faceOnLeft": false,
        "impliedDirection": 180,
        "testDirection": 0,
        "avgFps": 200,
        "minFps": 196,
        "maxFps": 204,
        "totalFrames": 94,
        "frameRates": 200
      },
      {
        "trial_number": 76,
        "trial_index": 449,
        "rt": 422,
        "correct": true,
        "response": "ArrowLeft",
        "congruent": false,
        "gazeTowards": true,
        "gazeCondition": "towards",
        "faceOnLeft": true,
        "impliedDirection": 0,
        "testDirection": 180,
        "avgFps": 200,
        "minFps": 192,
        "maxFps": 208,
        "totalFrames": 84,
        "frameRates": 200
      },
      {
        "trial_number": 77,
        "trial_index": 454,
        "rt": 502,
        "correct": true,
        "response": "ArrowLeft",
        "congruent": true,
        "gazeTowards": true,
        "gazeCondition": "towards",
        "faceOnLeft": false,
        "impliedDirection": 180,
        "testDirection": 180,
        "avgFps": 200,
        "minFps": 196,
        "maxFps": 204,
        "totalFrames": 100,
        "frameRates": 200
      },
      {
        "trial_number": 78,
        "trial_index": 459,
        "rt": 438,
        "correct": true,
        "response": "ArrowLeft",
        "congruent": true,
        "gazeTowards": true,
        "gazeCondition": "towards",
        "faceOnLeft": false,
        "impliedDirection": 180,
        "testDirection": 180,
        "avgFps": 200,
        "minFps": 192,
        "maxFps": 208,
        "totalFrames": 88,
        "frameRates": 200
      },
      {
        "trial_number": 79,
        "trial_index": 464,
        "rt": 438,
        "correct": true,
        "response": "ArrowRight",
        "congruent": false,
        "gazeTowards": true,
        "gazeCondition": "towards",
        "faceOnLeft": false,
        "impliedDirection": 180,
        "testDirection": 0,
        "avgFps": 200,
        "minFps": 196,
        "maxFps": 204,
        "totalFrames": 87,
        "frameRates": 200
      },
      {
        "trial_number": 80,
        "trial_index": 469,
        "rt": 479,
        "correct": true,
        "response": "ArrowLeft",
        "congruent": false,
        "gazeTowards": true,
        "gazeCondition": "towards",
        "faceOnLeft": true,
        "impliedDirection": 0,
        "testDirection": 180,
        "avgFps": 200,
        "minFps": 196,
        "maxFps": 204,
        "totalFrames": 96,
        "frameRates": 200
      },
      {
        "trial_number": 81,
        "trial_index": 474,
        "rt": 436,
        "correct": true,
        "response": "ArrowRight",
        "congruent": true,
        "gazeTowards": true,
        "gazeCondition": "towards",
        "faceOnLeft": true,
        "impliedDirection": 0,
        "testDirection": 0,
        "avgFps": 200,
        "minFps": 192,
        "maxFps": 208,
        "totalFrames": 87,
        "frameRates": 200
      },
      {
        "trial_number": 82,
        "trial_index": 479,
        "rt": 486,
        "correct": true,
        "response": "ArrowRight",
        "congruent": false,
        "gazeTowards": false,
        "gazeCondition": "away",
        "faceOnLeft": false,
        "impliedDirection": 180,
        "testDirection": 0,
        "avgFps": 198,
        "minFps": 99,
        "maxFps": 208,
        "totalFrames": 97,
        "frameRates": 198
      },
      {
        "trial_number": 83,
        "trial_index": 484,
        "rt": 456,
        "correct": true,
        "response": "ArrowRight",
        "congruent": true,
        "gazeTowards": true,
        "gazeCondition": "towards",
        "faceOnLeft": true,
        "impliedDirection": 0,
        "testDirection": 0,
        "avgFps": 200,
        "minFps": 189,
        "maxFps": 208,
        "totalFrames": 91,
        "frameRates": 200
      },
      {
        "trial_number": 84,
        "trial_index": 492,
        "rt": 425,
        "correct": true,
        "response": "ArrowLeft",
        "congruent": false,
        "gazeTowards": false,
        "gazeCondition": "away",
        "faceOnLeft": true,
        "impliedDirection": 0,
        "testDirection": 180,
        "avgFps": 200,
        "minFps": 192,
        "maxFps": 204,
        "totalFrames": 85,
        "frameRates": 200
      },
      {
        "trial_number": 85,
        "trial_index": 497,
        "rt": 425,
        "correct": true,
        "response": "ArrowLeft",
        "congruent": true,
        "gazeTowards": false,
        "gazeCondition": "away",
        "faceOnLeft": false,
        "impliedDirection": 180,
        "testDirection": 180,
        "avgFps": 200,
        "minFps": 196,
        "maxFps": 204,
        "totalFrames": 84,
        "frameRates": 200
      },
      {
        "trial_number": 86,
        "trial_index": 502,
        "rt": 428,
        "correct": true,
        "response": "ArrowRight",
        "congruent": false,
        "gazeTowards": true,
        "gazeCondition": "towards",
        "faceOnLeft": false,
        "impliedDirection": 180,
        "testDirection": 0,
        "avgFps": 200,
        "minFps": 196,
        "maxFps": 204,
        "totalFrames": 85,
        "frameRates": 200
      },
      {
        "trial_number": 87,
        "trial_index": 507,
        "rt": 487,
        "correct": true,
        "response": "ArrowLeft",
        "congruent": false,
        "gazeTowards": true,
        "gazeCondition": "towards",
        "faceOnLeft": true,
        "impliedDirection": 0,
        "testDirection": 180,
        "avgFps": 201,
        "minFps": 192,
        "maxFps": 295,
        "totalFrames": 97,
        "frameRates": 201
      },
      {
        "trial_number": 88,
        "trial_index": 515,
        "rt": 435,
        "correct": true,
        "response": "ArrowLeft",
        "congruent": true,
        "gazeTowards": false,
        "gazeCondition": "away",
        "faceOnLeft": false,
        "impliedDirection": 180,
        "testDirection": 180,
        "avgFps": 200,
        "minFps": 192,
        "maxFps": 208,
        "totalFrames": 87,
        "frameRates": 200
      },
      {
        "trial_number": 89,
        "trial_index": 520,
        "rt": 524,
        "correct": true,
        "response": "ArrowLeft",
        "congruent": false,
        "gazeTowards": true,
        "gazeCondition": "towards",
        "faceOnLeft": true,
        "impliedDirection": 0,
        "testDirection": 180,
        "avgFps": 198,
        "minFps": 98,
        "maxFps": 204,
        "totalFrames": 104,
        "frameRates": 198
      },
      {
        "trial_number": 90,
        "trial_index": 525,
        "rt": 513,
        "correct": true,
        "response": "ArrowLeft",
        "congruent": true,
        "gazeTowards": false,
        "gazeCondition": "away",
        "faceOnLeft": false,
        "impliedDirection": 180,
        "testDirection": 180,
        "avgFps": 201,
        "minFps": 196,
        "maxFps": 278,
        "totalFrames": 102,
        "frameRates": 201
      },
      {
        "trial_number": 91,
        "trial_index": 534,
        "rt": 469,
        "correct": true,
        "response": "ArrowRight",
        "congruent": false,
        "gazeTowards": true,
        "gazeCondition": "towards",
        "faceOnLeft": false,
        "impliedDirection": 180,
        "testDirection": 0,
        "avgFps": 200,
        "minFps": 192,
        "maxFps": 208,
        "totalFrames": 94,
        "frameRates": 200
      },
      {
        "trial_number": 92,
        "trial_index": 539,
        "rt": 468,
        "correct": true,
        "response": "ArrowLeft",
        "congruent": true,
        "gazeTowards": false,
        "gazeCondition": "away",
        "faceOnLeft": false,
        "impliedDirection": 180,
        "testDirection": 180,
        "avgFps": 200,
        "minFps": 192,
        "maxFps": 208,
        "totalFrames": 94,
        "frameRates": 200
      },
      {
        "trial_number": 93,
        "trial_index": 544,
        "rt": 453,
        "correct": true,
        "response": "ArrowLeft",
        "congruent": true,
        "gazeTowards": true,
        "gazeCondition": "towards",
        "faceOnLeft": false,
        "impliedDirection": 180,
        "testDirection": 180,
        "avgFps": 200,
        "minFps": 185,
        "maxFps": 208,
        "totalFrames": 91,
        "frameRates": 200
      },
      {
        "trial_number": 94,
        "trial_index": 549,
        "rt": 536,
        "correct": true,
        "response": "ArrowRight",
        "congruent": true,
        "gazeTowards": false,
        "gazeCondition": "away",
        "faceOnLeft": true,
        "impliedDirection": 0,
        "testDirection": 0,
        "avgFps": 200,
        "minFps": 175,
        "maxFps": 208,
        "totalFrames": 107,
        "frameRates": 200
      },
      {
        "trial_number": 95,
        "trial_index": 554,
        "rt": 513,
        "correct": true,
        "response": "ArrowRight",
        "congruent": false,
        "gazeTowards": true,
        "gazeCondition": "towards",
        "faceOnLeft": false,
        "impliedDirection": 180,
        "testDirection": 0,
        "avgFps": 198,
        "minFps": 93,
        "maxFps": 233,
        "totalFrames": 102,
        "frameRates": 198
      },
      {
        "trial_number": 96,
        "trial_index": 559,
        "rt": 665,
        "correct": true,
        "response": "ArrowRight",
        "congruent": false,
        "gazeTowards": false,
        "gazeCondition": "away",
        "faceOnLeft": false,
        "impliedDirection": 180,
        "testDirection": 0,
        "avgFps": 200,
        "minFps": 189,
        "maxFps": 217,
        "totalFrames": 133,
        "frameRates": 200
      },
      {
        "trial_number": 97,
        "trial_index": 564,
        "rt": 523,
        "correct": true,
        "response": "ArrowLeft",
        "congruent": true,
        "gazeTowards": true,
        "gazeCondition": "towards",
        "faceOnLeft": false,
        "impliedDirection": 180,
        "testDirection": 180,
        "avgFps": 200,
        "minFps": 192,
        "maxFps": 204,
        "totalFrames": 104,
        "frameRates": 200
      },
      {
        "trial_number": 98,
        "trial_index": 569,
        "rt": 568,
        "correct": true,
        "response": "ArrowRight",
        "congruent": true,
        "gazeTowards": false,
        "gazeCondition": "away",
        "faceOnLeft": true,
        "impliedDirection": 0,
        "testDirection": 0,
        "avgFps": 200,
        "minFps": 192,
        "maxFps": 208,
        "totalFrames": 113,
        "frameRates": 200
      },
      {
        "trial_number": 99,
        "trial_index": 574,
        "rt": 741,
        "correct": true,
        "response": "ArrowRight",
        "congruent": true,
        "gazeTowards": true,
        "gazeCondition": "towards",
        "faceOnLeft": true,
        "impliedDirection": 0,
        "testDirection": 0,
        "avgFps": 200,
        "minFps": 192,
        "maxFps": 204,
        "totalFrames": 148,
        "frameRates": 200
      },
      {
        "trial_number": 100,
        "trial_index": 579,
        "rt": 586,
        "correct": true,
        "response": "ArrowRight",
        "congruent": false,
        "gazeTowards": true,
        "gazeCondition": "towards",
        "faceOnLeft": false,
        "impliedDirection": 180,
        "testDirection": 0,
        "avgFps": 201,
        "minFps": 196,
        "maxFps": 295,
        "totalFrames": 117,
        "frameRates": 201
      },
      {
        "trial_number": 101,
        "trial_index": 584,
        "rt": 529,
        "correct": true,
        "response": "ArrowLeft",
        "congruent": true,
        "gazeTowards": true,
        "gazeCondition": "towards",
        "faceOnLeft": false,
        "impliedDirection": 180,
        "testDirection": 180,
        "avgFps": 200,
        "minFps": 192,
        "maxFps": 208,
        "totalFrames": 106,
        "frameRates": 200
      },
      {
        "trial_number": 102,
        "trial_index": 589,
        "rt": 550,
        "correct": true,
        "response": "ArrowRight",
        "congruent": true,
        "gazeTowards": true,
        "gazeCondition": "towards",
        "faceOnLeft": true,
        "impliedDirection": 0,
        "testDirection": 0,
        "avgFps": 200,
        "minFps": 192,
        "maxFps": 204,
        "totalFrames": 110,
        "frameRates": 200
      },
      {
        "trial_number": 103,
        "trial_index": 594,
        "rt": 478,
        "correct": true,
        "response": "ArrowRight",
        "congruent": true,
        "gazeTowards": true,
        "gazeCondition": "towards",
        "faceOnLeft": true,
        "impliedDirection": 0,
        "testDirection": 0,
        "avgFps": 200,
        "minFps": 185,
        "maxFps": 208,
        "totalFrames": 95,
        "frameRates": 200
      },
      {
        "trial_number": 104,
        "trial_index": 602,
        "rt": 593,
        "correct": true,
        "response": "ArrowLeft",
        "congruent": false,
        "gazeTowards": false,
        "gazeCondition": "away",
        "faceOnLeft": true,
        "impliedDirection": 0,
        "testDirection": 180,
        "avgFps": 200,
        "minFps": 192,
        "maxFps": 208,
        "totalFrames": 119,
        "frameRates": 200
      },
      {
        "trial_number": 105,
        "trial_index": 607,
        "rt": 651,
        "correct": true,
        "response": "ArrowLeft",
        "congruent": true,
        "gazeTowards": true,
        "gazeCondition": "towards",
        "faceOnLeft": false,
        "impliedDirection": 180,
        "testDirection": 180,
        "avgFps": 200,
        "minFps": 192,
        "maxFps": 208,
        "totalFrames": 130,
        "frameRates": 200
      },
      {
        "trial_number": 106,
        "trial_index": 612,
        "rt": 498,
        "correct": true,
        "response": "ArrowLeft",
        "congruent": false,
        "gazeTowards": true,
        "gazeCondition": "towards",
        "faceOnLeft": true,
        "impliedDirection": 0,
        "testDirection": 180,
        "avgFps": 200,
        "minFps": 196,
        "maxFps": 204,
        "totalFrames": 99,
        "frameRates": 200
      },
      {
        "trial_number": 107,
        "trial_index": 620,
        "rt": 538,
        "correct": true,
        "response": "ArrowRight",
        "congruent": true,
        "gazeTowards": true,
        "gazeCondition": "towards",
        "faceOnLeft": true,
        "impliedDirection": 0,
        "testDirection": 0,
        "avgFps": 198,
        "minFps": 99,
        "maxFps": 208,
        "totalFrames": 107,
        "frameRates": 198
      },
      {
        "trial_number": 108,
        "trial_index": 625,
        "rt": 476,
        "correct": true,
        "response": "ArrowLeft",
        "congruent": false,
        "gazeTowards": true,
        "gazeCondition": "towards",
        "faceOnLeft": true,
        "impliedDirection": 0,
        "testDirection": 180,
        "avgFps": 200,
        "minFps": 196,
        "maxFps": 208,
        "totalFrames": 95,
        "frameRates": 200
      },
      {
        "trial_number": 109,
        "trial_index": 630,
        "rt": 532,
        "correct": true,
        "response": "ArrowLeft",
        "congruent": true,
        "gazeTowards": true,
        "gazeCondition": "towards",
        "faceOnLeft": false,
        "impliedDirection": 180,
        "testDirection": 180,
        "avgFps": 198,
        "minFps": 92,
        "maxFps": 250,
        "totalFrames": 106,
        "frameRates": 198
      },
      {
        "trial_number": 110,
        "trial_index": 635,
        "rt": 556,
        "correct": true,
        "response": "ArrowLeft",
        "congruent": true,
        "gazeTowards": true,
        "gazeCondition": "towards",
        "faceOnLeft": false,
        "impliedDirection": 180,
        "testDirection": 180,
        "avgFps": 198,
        "minFps": 93,
        "maxFps": 244,
        "totalFrames": 110,
        "frameRates": 198
      },
      {
        "trial_number": 111,
        "trial_index": 640,
        "rt": 478,
        "correct": true,
        "response": "ArrowRight",
        "congruent": true,
        "gazeTowards": false,
        "gazeCondition": "away",
        "faceOnLeft": true,
        "impliedDirection": 0,
        "testDirection": 0,
        "avgFps": 198,
        "minFps": 91,
        "maxFps": 250,
        "totalFrames": 95,
        "frameRates": 198
      },
      {
        "trial_number": 112,
        "trial_index": 648,
        "rt": 542,
        "correct": true,
        "response": "ArrowRight",
        "congruent": false,
        "gazeTowards": false,
        "gazeCondition": "away",
        "faceOnLeft": false,
        "impliedDirection": 180,
        "testDirection": 0,
        "avgFps": 200,
        "minFps": 196,
        "maxFps": 204,
        "totalFrames": 108,
        "frameRates": 200
      },
      {
        "trial_number": 113,
        "trial_index": 653,
        "rt": 479,
        "correct": true,
        "response": "ArrowRight",
        "congruent": true,
        "gazeTowards": false,
        "gazeCondition": "away",
        "faceOnLeft": true,
        "impliedDirection": 0,
        "testDirection": 0,
        "avgFps": 200,
        "minFps": 192,
        "maxFps": 208,
        "totalFrames": 95,
        "frameRates": 200
      },
      {
        "trial_number": 114,
        "trial_index": 658,
        "rt": 525,
        "correct": true,
        "response": "ArrowLeft",
        "congruent": false,
        "gazeTowards": true,
        "gazeCondition": "towards",
        "faceOnLeft": true,
        "impliedDirection": 0,
        "testDirection": 180,
        "avgFps": 200,
        "minFps": 192,
        "maxFps": 204,
        "totalFrames": 105,
        "frameRates": 200
      },
      {
        "trial_number": 115,
        "trial_index": 663,
        "rt": 593,
        "correct": true,
        "response": "ArrowLeft",
        "congruent": false,
        "gazeTowards": false,
        "gazeCondition": "away",
        "faceOnLeft": true,
        "impliedDirection": 0,
        "testDirection": 180,
        "avgFps": 200,
        "minFps": 192,
        "maxFps": 208,
        "totalFrames": 118,
        "frameRates": 200
      },
      {
        "trial_number": 116,
        "trial_index": 668,
        "rt": 511,
        "correct": true,
        "response": "ArrowRight",
        "congruent": false,
        "gazeTowards": false,
        "gazeCondition": "away",
        "faceOnLeft": false,
        "impliedDirection": 180,
        "testDirection": 0,
        "avgFps": 200,
        "minFps": 192,
        "maxFps": 204,
        "totalFrames": 102,
        "frameRates": 200
      },
      {
        "trial_number": 117,
        "trial_index": 673,
        "rt": 520,
        "correct": true,
        "response": "ArrowRight",
        "congruent": false,
        "gazeTowards": false,
        "gazeCondition": "away",
        "faceOnLeft": false,
        "impliedDirection": 180,
        "testDirection": 0,
        "avgFps": 200,
        "minFps": 196,
        "maxFps": 208,
        "totalFrames": 104,
        "frameRates": 200
      },
      {
        "trial_number": 118,
        "trial_index": 678,
        "rt": 517,
        "correct": true,
        "response": "ArrowLeft",
        "congruent": true,
        "gazeTowards": true,
        "gazeCondition": "towards",
        "faceOnLeft": false,
        "impliedDirection": 180,
        "testDirection": 180,
        "avgFps": 200,
        "minFps": 192,
        "maxFps": 204,
        "totalFrames": 104,
        "frameRates": 200
      },
      {
        "trial_number": 119,
        "trial_index": 683,
        "rt": 532,
        "correct": true,
        "response": "ArrowLeft",
        "congruent": false,
        "gazeTowards": false,
        "gazeCondition": "away",
        "faceOnLeft": true,
        "impliedDirection": 0,
        "testDirection": 180,
        "avgFps": 198,
        "minFps": 92,
        "maxFps": 250,
        "totalFrames": 106,
        "frameRates": 198
      }
    ],
    "catch": {
      "total": 12,
      "correct": 12,
      "accuracy": 100,
      "meanRT": 441,
      "trials": [
        {
          "trial_number": 0,
          "trial_index": 108,
          "rt": 523,
          "correct": true,
          "colorTarget": "tree",
          "gazeTowards": false,
          "gazeCondition": "away",
          "faceOnLeft": false
        },
        {
          "trial_number": 1,
          "trial_index": 166,
          "rt": 457,
          "correct": true,
          "colorTarget": "face",
          "gazeTowards": false,
          "gazeCondition": "away",
          "faceOnLeft": false
        },
        {
          "trial_number": 2,
          "trial_index": 220,
          "rt": 471,
          "correct": true,
          "colorTarget": "tree",
          "gazeTowards": true,
          "gazeCondition": "towards",
          "faceOnLeft": false
        },
        {
          "trial_number": 3,
          "trial_index": 358,
          "rt": 393,
          "correct": true,
          "colorTarget": "face",
          "gazeTowards": true,
          "gazeCondition": "towards",
          "faceOnLeft": true
        },
        {
          "trial_number": 4,
          "trial_index": 377,
          "rt": 505,
          "correct": true,
          "colorTarget": "tree",
          "gazeTowards": false,
          "gazeCondition": "away",
          "faceOnLeft": true
        },
        {
          "trial_number": 5,
          "trial_index": 410,
          "rt": 365,
          "correct": true,
          "colorTarget": "tree",
          "gazeTowards": true,
          "gazeCondition": "towards",
          "faceOnLeft": false
        },
        {
          "trial_number": 6,
          "trial_index": 488,
          "rt": 410,
          "correct": true,
          "colorTarget": "tree",
          "gazeTowards": true,
          "gazeCondition": "towards",
          "faceOnLeft": true
        },
        {
          "trial_number": 7,
          "trial_index": 511,
          "rt": 381,
          "correct": true,
          "colorTarget": "tree",
          "gazeTowards": true,
          "gazeCondition": "towards",
          "faceOnLeft": true
        },
        {
          "trial_number": 8,
          "trial_index": 530,
          "rt": 505,
          "correct": true,
          "colorTarget": "face",
          "gazeTowards": false,
          "gazeCondition": "away",
          "faceOnLeft": true
        },
        {
          "trial_number": 9,
          "trial_index": 598,
          "rt": 536,
          "correct": true,
          "colorTarget": "face",
          "gazeTowards": false,
          "gazeCondition": "away",
          "faceOnLeft": false
        },
        {
          "trial_number": 10,
          "trial_index": 616,
          "rt": 381,
          "correct": true,
          "colorTarget": "face",
          "gazeTowards": false,
          "gazeCondition": "away",
          "faceOnLeft": false
        },
        {
          "trial_number": 11,
          "trial_index": 644,
          "rt": 368,
          "correct": true,
          "colorTarget": "face",
          "gazeTowards": true,
          "gazeCondition": "towards",
          "faceOnLeft": true
        }
      ]
    },
    "practice": {
      "trials": [
        {
          "trial_number": 0,
          "rt": 1325,
          "correct": true,
          "direction": 0
        },
        {
          "trial_number": 1,
          "rt": 678,
          "correct": true,
          "direction": 180
        },
        {
          "trial_number": 2,
          "rt": 611,
          "correct": true,
          "direction": 180
        },
        {
          "trial_number": 3,
          "rt": 477,
          "correct": true,
          "direction": 180
        },
        {
          "trial_number": 4,
          "rt": 505,
          "correct": true,
          "direction": 0
        },
        {
          "trial_number": 5,
          "rt": 596,
          "correct": true,
          "direction": 0
        },
        {
          "trial_number": 6,
          "rt": 431,
          "correct": true,
          "direction": 180
        },
        {
          "trial_number": 7,
          "rt": 435,
          "correct": true,
          "direction": 180
        },
        {
          "trial_number": 8,
          "rt": 390,
          "correct": true,
          "direction": 180
        },
        {
          "trial_number": 9,
          "rt": 404,
          "correct": true,
          "direction": 180
        }
      ],
      "meanRT": 585,
      "accuracy": 100
    }
  }
}