{
  "experiment": "rdk-face-1",
  "UUID": "21e4c7da-2e78-48ce-8257-151ac9f402af",
  "data": {
    "session": {
      "experiment_version": "1.8.6",
      "treatment": "faces_towards_away_catch",
      "file_version": "1.8.6",
      "totalTrials": 120,
      "totalTrialsIncludingCatch": 132,
      "conditions": {
        "gazeTowardsCount": 60,
        "gazeAwayCount": 60,
        "gazeTowardsAccuracy": 100,
        "gazeAwayAccuracy": 100
      },
      "session_group": "default",
      "browserData": {
        "os": "Windows",
        "browser": "Chrome",
        "screenResolution": "1920x1080",
        "browserViewport": "1920x1080",
        "devicePixelRatio": 1,
        "colorDepth": 32,
        "hardwareConcurrency": 4,
        "deviceMemory": 8,
        "gpuRenderer": "ANGLE (NVIDIA, NVIDIA GeForce GTX 1050 Ti (0x00001C82) Direct3D11 vs_5_0 ps_5_0, D3D11)",
        "measuredRefreshRateHz": 43
      },
      "attention": {
        "visibilityEvents": [
          {
            "event": "blur",
            "state": "blurred",
            "timestamp": 1772780531208
          },
          {
            "event": "focus",
            "state": "focused",
            "timestamp": 1772780532281
          },
          {
            "event": "blur",
            "state": "blurred",
            "timestamp": 1772780533603
          },
          {
            "event": "visibilitychange",
            "state": "hidden",
            "timestamp": 1772780533605
          },
          {
            "event": "visibilitychange",
            "state": "visible",
            "timestamp": 1772780534864
          },
          {
            "event": "focus",
            "state": "focused",
            "timestamp": 1772780534867
          }
        ]
      },
      "calibration": {
        "monitorWidthCm": 38,
        "viewingDistanceCm": 54,
        "pixelsPerDegree": 50
      },
      "parameters": {
        "coherence": 0.4,
        "apertureDeg": 5,
        "densityDotsPerDeg2": 40,
        "dotDiameterDeg": 0.035,
        "dotSpeedDegPerSec": 3,
        "lifetimeMs": 200,
        "fixationDurationMs": 1500,
        "faceDurationMs": 1500,
        "testDurationMs": 2000,
        "catchResponseMs": 3000
      },
      "prolific": {
        "prolificPid": "63936d7d3c6617700a56744b",
        "studyId": "",
        "sessionId": ""
      },
      "timing": {
        "startTime": "2026-03-06T07:02:10.820Z",
        "endTime": "2026-03-06T07:14:31.066Z",
        "totalElapsedTimeMs": 740246
      }
    },
    "trials": [
      {
        "trial_number": 0,
        "trial_index": 49,
        "rt": 650,
        "correct": true,
        "response": "ArrowLeft",
        "congruent": true,
        "gazeTowards": false,
        "gazeCondition": "away",
        "faceOnLeft": false,
        "impliedDirection": 180,
        "testDirection": 180,
        "avgFps": 75,
        "minFps": 74,
        "maxFps": 77,
        "totalFrames": 49,
        "frameRates": 75
      },
      {
        "trial_number": 1,
        "trial_index": 54,
        "rt": 426,
        "correct": true,
        "response": "ArrowRight",
        "congruent": true,
        "gazeTowards": true,
        "gazeCondition": "towards",
        "faceOnLeft": true,
        "impliedDirection": 0,
        "testDirection": 0,
        "avgFps": 76,
        "minFps": 74,
        "maxFps": 150,
        "totalFrames": 32,
        "frameRates": 76
      },
      {
        "trial_number": 2,
        "trial_index": 59,
        "rt": 438,
        "correct": true,
        "response": "ArrowLeft",
        "congruent": false,
        "gazeTowards": true,
        "gazeCondition": "towards",
        "faceOnLeft": true,
        "impliedDirection": 0,
        "testDirection": 180,
        "avgFps": 75,
        "minFps": 75,
        "maxFps": 76,
        "totalFrames": 32,
        "frameRates": 75
      },
      {
        "trial_number": 3,
        "trial_index": 64,
        "rt": 470,
        "correct": true,
        "response": "ArrowRight",
        "congruent": true,
        "gazeTowards": true,
        "gazeCondition": "towards",
        "faceOnLeft": true,
        "impliedDirection": 0,
        "testDirection": 0,
        "avgFps": 76,
        "minFps": 74,
        "maxFps": 150,
        "totalFrames": 35,
        "frameRates": 76
      },
      {
        "trial_number": 4,
        "trial_index": 69,
        "rt": 478,
        "correct": true,
        "response": "ArrowLeft",
        "congruent": true,
        "gazeTowards": false,
        "gazeCondition": "away",
        "faceOnLeft": false,
        "impliedDirection": 180,
        "testDirection": 180,
        "avgFps": 76,
        "minFps": 74,
        "maxFps": 148,
        "totalFrames": 36,
        "frameRates": 76
      },
      {
        "trial_number": 5,
        "trial_index": 74,
        "rt": 573,
        "correct": true,
        "response": "ArrowLeft",
        "congruent": true,
        "gazeTowards": true,
        "gazeCondition": "towards",
        "faceOnLeft": false,
        "impliedDirection": 180,
        "testDirection": 180,
        "avgFps": 76,
        "minFps": 74,
        "maxFps": 150,
        "totalFrames": 43,
        "frameRates": 76
      },
      {
        "trial_number": 6,
        "trial_index": 79,
        "rt": 459,
        "correct": true,
        "response": "ArrowLeft",
        "congruent": true,
        "gazeTowards": false,
        "gazeCondition": "away",
        "faceOnLeft": false,
        "impliedDirection": 180,
        "testDirection": 180,
        "avgFps": 76,
        "minFps": 74,
        "maxFps": 148,
        "totalFrames": 35,
        "frameRates": 76
      },
      {
        "trial_number": 7,
        "trial_index": 84,
        "rt": 466,
        "correct": true,
        "response": "ArrowRight",
        "congruent": false,
        "gazeTowards": true,
        "gazeCondition": "towards",
        "faceOnLeft": false,
        "impliedDirection": 180,
        "testDirection": 0,
        "avgFps": 75,
        "minFps": 74,
        "maxFps": 76,
        "totalFrames": 34,
        "frameRates": 75
      },
      {
        "trial_number": 8,
        "trial_index": 89,
        "rt": 503,
        "correct": true,
        "response": "ArrowRight",
        "congruent": false,
        "gazeTowards": false,
        "gazeCondition": "away",
        "faceOnLeft": false,
        "impliedDirection": 180,
        "testDirection": 0,
        "avgFps": 75,
        "minFps": 74,
        "maxFps": 76,
        "totalFrames": 37,
        "frameRates": 75
      },
      {
        "trial_number": 9,
        "trial_index": 94,
        "rt": 408,
        "correct": true,
        "response": "ArrowLeft",
        "congruent": false,
        "gazeTowards": true,
        "gazeCondition": "towards",
        "faceOnLeft": true,
        "impliedDirection": 0,
        "testDirection": 180,
        "avgFps": 76,
        "minFps": 73,
        "maxFps": 152,
        "totalFrames": 31,
        "frameRates": 76
      },
      {
        "trial_number": 10,
        "trial_index": 99,
        "rt": 466,
        "correct": true,
        "response": "ArrowLeft",
        "congruent": true,
        "gazeTowards": true,
        "gazeCondition": "towards",
        "faceOnLeft": false,
        "impliedDirection": 180,
        "testDirection": 180,
        "avgFps": 76,
        "minFps": 74,
        "maxFps": 100,
        "totalFrames": 35,
        "frameRates": 76
      },
      {
        "trial_number": 11,
        "trial_index": 104,
        "rt": 430,
        "correct": true,
        "response": "ArrowRight",
        "congruent": false,
        "gazeTowards": false,
        "gazeCondition": "away",
        "faceOnLeft": false,
        "impliedDirection": 180,
        "testDirection": 0,
        "avgFps": 76,
        "minFps": 72,
        "maxFps": 152,
        "totalFrames": 32,
        "frameRates": 76
      },
      {
        "trial_number": 12,
        "trial_index": 109,
        "rt": 537,
        "correct": true,
        "response": "ArrowRight",
        "congruent": false,
        "gazeTowards": false,
        "gazeCondition": "away",
        "faceOnLeft": false,
        "impliedDirection": 180,
        "testDirection": 0,
        "avgFps": 75,
        "minFps": 74,
        "maxFps": 76,
        "totalFrames": 40,
        "frameRates": 75
      },
      {
        "trial_number": 13,
        "trial_index": 114,
        "rt": 453,
        "correct": true,
        "response": "ArrowLeft",
        "congruent": false,
        "gazeTowards": true,
        "gazeCondition": "towards",
        "faceOnLeft": true,
        "impliedDirection": 0,
        "testDirection": 180,
        "avgFps": 75,
        "minFps": 74,
        "maxFps": 76,
        "totalFrames": 34,
        "frameRates": 75
      },
      {
        "trial_number": 14,
        "trial_index": 119,
        "rt": 458,
        "correct": true,
        "response": "ArrowRight",
        "congruent": true,
        "gazeTowards": false,
        "gazeCondition": "away",
        "faceOnLeft": true,
        "impliedDirection": 0,
        "testDirection": 0,
        "avgFps": 75,
        "minFps": 74,
        "maxFps": 76,
        "totalFrames": 34,
        "frameRates": 75
      },
      {
        "trial_number": 15,
        "trial_index": 127,
        "rt": 466,
        "correct": true,
        "response": "ArrowRight",
        "congruent": false,
        "gazeTowards": true,
        "gazeCondition": "towards",
        "faceOnLeft": false,
        "impliedDirection": 180,
        "testDirection": 0,
        "avgFps": 75,
        "minFps": 74,
        "maxFps": 77,
        "totalFrames": 34,
        "frameRates": 75
      },
      {
        "trial_number": 16,
        "trial_index": 138,
        "rt": 534,
        "correct": true,
        "response": "ArrowRight",
        "congruent": true,
        "gazeTowards": false,
        "gazeCondition": "away",
        "faceOnLeft": true,
        "impliedDirection": 0,
        "testDirection": 0,
        "avgFps": 76,
        "minFps": 74,
        "maxFps": 150,
        "totalFrames": 40,
        "frameRates": 76
      },
      {
        "trial_number": 17,
        "trial_index": 143,
        "rt": 550,
        "correct": true,
        "response": "ArrowLeft",
        "congruent": false,
        "gazeTowards": true,
        "gazeCondition": "towards",
        "faceOnLeft": true,
        "impliedDirection": 0,
        "testDirection": 180,
        "avgFps": 75,
        "minFps": 73,
        "maxFps": 77,
        "totalFrames": 41,
        "frameRates": 75
      },
      {
        "trial_number": 18,
        "trial_index": 148,
        "rt": 483,
        "correct": true,
        "response": "ArrowRight",
        "congruent": false,
        "gazeTowards": false,
        "gazeCondition": "away",
        "faceOnLeft": false,
        "impliedDirection": 180,
        "testDirection": 0,
        "avgFps": 76,
        "minFps": 74,
        "maxFps": 150,
        "totalFrames": 37,
        "frameRates": 76
      },
      {
        "trial_number": 19,
        "trial_index": 153,
        "rt": 477,
        "correct": true,
        "response": "ArrowRight",
        "congruent": false,
        "gazeTowards": false,
        "gazeCondition": "away",
        "faceOnLeft": false,
        "impliedDirection": 180,
        "testDirection": 0,
        "avgFps": 76,
        "minFps": 74,
        "maxFps": 100,
        "totalFrames": 36,
        "frameRates": 76
      },
      {
        "trial_number": 20,
        "trial_index": 158,
        "rt": 504,
        "correct": true,
        "response": "ArrowLeft",
        "congruent": true,
        "gazeTowards": false,
        "gazeCondition": "away",
        "faceOnLeft": false,
        "impliedDirection": 180,
        "testDirection": 180,
        "avgFps": 74,
        "minFps": 41,
        "maxFps": 81,
        "totalFrames": 37,
        "frameRates": 74
      },
      {
        "trial_number": 21,
        "trial_index": 163,
        "rt": 485,
        "correct": true,
        "response": "ArrowLeft",
        "congruent": false,
        "gazeTowards": false,
        "gazeCondition": "away",
        "faceOnLeft": true,
        "impliedDirection": 0,
        "testDirection": 180,
        "avgFps": 76,
        "minFps": 73,
        "maxFps": 150,
        "totalFrames": 36,
        "frameRates": 76
      },
      {
        "trial_number": 22,
        "trial_index": 168,
        "rt": 462,
        "correct": true,
        "response": "ArrowRight",
        "congruent": true,
        "gazeTowards": false,
        "gazeCondition": "away",
        "faceOnLeft": true,
        "impliedDirection": 0,
        "testDirection": 0,
        "avgFps": 76,
        "minFps": 72,
        "maxFps": 101,
        "totalFrames": 35,
        "frameRates": 76
      },
      {
        "trial_number": 23,
        "trial_index": 173,
        "rt": 473,
        "correct": true,
        "response": "ArrowLeft",
        "congruent": true,
        "gazeTowards": false,
        "gazeCondition": "away",
        "faceOnLeft": false,
        "impliedDirection": 180,
        "testDirection": 180,
        "avgFps": 74,
        "minFps": 43,
        "maxFps": 83,
        "totalFrames": 35,
        "frameRates": 74
      },
      {
        "trial_number": 24,
        "trial_index": 178,
        "rt": 499,
        "correct": true,
        "response": "ArrowLeft",
        "congruent": false,
        "gazeTowards": true,
        "gazeCondition": "towards",
        "faceOnLeft": true,
        "impliedDirection": 0,
        "testDirection": 180,
        "avgFps": 75,
        "minFps": 74,
        "maxFps": 76,
        "totalFrames": 37,
        "frameRates": 75
      },
      {
        "trial_number": 25,
        "trial_index": 183,
        "rt": 443,
        "correct": true,
        "response": "ArrowLeft",
        "congruent": false,
        "gazeTowards": false,
        "gazeCondition": "away",
        "faceOnLeft": true,
        "impliedDirection": 0,
        "testDirection": 180,
        "avgFps": 75,
        "minFps": 74,
        "maxFps": 78,
        "totalFrames": 33,
        "frameRates": 75
      },
      {
        "trial_number": 26,
        "trial_index": 188,
        "rt": 412,
        "correct": true,
        "response": "ArrowLeft",
        "congruent": true,
        "gazeTowards": true,
        "gazeCondition": "towards",
        "faceOnLeft": false,
        "impliedDirection": 180,
        "testDirection": 180,
        "avgFps": 75,
        "minFps": 74,
        "maxFps": 76,
        "totalFrames": 31,
        "frameRates": 75
      },
      {
        "trial_number": 27,
        "trial_index": 193,
        "rt": 393,
        "correct": true,
        "response": "ArrowLeft",
        "congruent": false,
        "gazeTowards": false,
        "gazeCondition": "away",
        "faceOnLeft": true,
        "impliedDirection": 0,
        "testDirection": 180,
        "avgFps": 75,
        "minFps": 74,
        "maxFps": 76,
        "totalFrames": 29,
        "frameRates": 75
      },
      {
        "trial_number": 28,
        "trial_index": 198,
        "rt": 453,
        "correct": true,
        "response": "ArrowLeft",
        "congruent": true,
        "gazeTowards": true,
        "gazeCondition": "towards",
        "faceOnLeft": false,
        "impliedDirection": 180,
        "testDirection": 180,
        "avgFps": 76,
        "minFps": 74,
        "maxFps": 113,
        "totalFrames": 34,
        "frameRates": 76
      },
      {
        "trial_number": 29,
        "trial_index": 203,
        "rt": 489,
        "correct": true,
        "response": "ArrowRight",
        "congruent": true,
        "gazeTowards": true,
        "gazeCondition": "towards",
        "faceOnLeft": true,
        "impliedDirection": 0,
        "testDirection": 0,
        "avgFps": 76,
        "minFps": 73,
        "maxFps": 150,
        "totalFrames": 37,
        "frameRates": 76
      },
      {
        "trial_number": 30,
        "trial_index": 209,
        "rt": 518,
        "correct": true,
        "response": "ArrowRight",
        "congruent": true,
        "gazeTowards": true,
        "gazeCondition": "towards",
        "faceOnLeft": true,
        "impliedDirection": 0,
        "testDirection": 0,
        "avgFps": 75,
        "minFps": 74,
        "maxFps": 76,
        "totalFrames": 38,
        "frameRates": 75
      },
      {
        "trial_number": 31,
        "trial_index": 214,
        "rt": 440,
        "correct": true,
        "response": "ArrowRight",
        "congruent": true,
        "gazeTowards": true,
        "gazeCondition": "towards",
        "faceOnLeft": true,
        "impliedDirection": 0,
        "testDirection": 0,
        "avgFps": 75,
        "minFps": 75,
        "maxFps": 76,
        "totalFrames": 33,
        "frameRates": 75
      },
      {
        "trial_number": 32,
        "trial_index": 219,
        "rt": 444,
        "correct": true,
        "response": "ArrowLeft",
        "congruent": true,
        "gazeTowards": true,
        "gazeCondition": "towards",
        "faceOnLeft": false,
        "impliedDirection": 180,
        "testDirection": 180,
        "avgFps": 76,
        "minFps": 74,
        "maxFps": 152,
        "totalFrames": 33,
        "frameRates": 76
      },
      {
        "trial_number": 33,
        "trial_index": 224,
        "rt": 410,
        "correct": true,
        "response": "ArrowLeft",
        "congruent": true,
        "gazeTowards": true,
        "gazeCondition": "towards",
        "faceOnLeft": false,
        "impliedDirection": 180,
        "testDirection": 180,
        "avgFps": 75,
        "minFps": 74,
        "maxFps": 77,
        "totalFrames": 31,
        "frameRates": 75
      },
      {
        "trial_number": 34,
        "trial_index": 229,
        "rt": 423,
        "correct": true,
        "response": "ArrowRight",
        "congruent": false,
        "gazeTowards": true,
        "gazeCondition": "towards",
        "faceOnLeft": false,
        "impliedDirection": 180,
        "testDirection": 0,
        "avgFps": 75,
        "minFps": 73,
        "maxFps": 77,
        "totalFrames": 31,
        "frameRates": 75
      },
      {
        "trial_number": 35,
        "trial_index": 234,
        "rt": 455,
        "correct": true,
        "response": "ArrowLeft",
        "congruent": false,
        "gazeTowards": false,
        "gazeCondition": "away",
        "faceOnLeft": true,
        "impliedDirection": 0,
        "testDirection": 180,
        "avgFps": 73,
        "minFps": 42,
        "maxFps": 78,
        "totalFrames": 34,
        "frameRates": 73
      },
      {
        "trial_number": 36,
        "trial_index": 239,
        "rt": 444,
        "correct": true,
        "response": "ArrowRight",
        "congruent": true,
        "gazeTowards": true,
        "gazeCondition": "towards",
        "faceOnLeft": true,
        "impliedDirection": 0,
        "testDirection": 0,
        "avgFps": 75,
        "minFps": 72,
        "maxFps": 79,
        "totalFrames": 33,
        "frameRates": 75
      },
      {
        "trial_number": 37,
        "trial_index": 244,
        "rt": 414,
        "correct": true,
        "response": "ArrowLeft",
        "congruent": true,
        "gazeTowards": true,
        "gazeCondition": "towards",
        "faceOnLeft": false,
        "impliedDirection": 180,
        "testDirection": 180,
        "avgFps": 76,
        "minFps": 74,
        "maxFps": 146,
        "totalFrames": 31,
        "frameRates": 76
      },
      {
        "trial_number": 38,
        "trial_index": 249,
        "rt": 535,
        "correct": true,
        "response": "ArrowLeft",
        "congruent": false,
        "gazeTowards": true,
        "gazeCondition": "towards",
        "faceOnLeft": true,
        "impliedDirection": 0,
        "testDirection": 180,
        "avgFps": 76,
        "minFps": 74,
        "maxFps": 150,
        "totalFrames": 40,
        "frameRates": 76
      },
      {
        "trial_number": 39,
        "trial_index": 254,
        "rt": 487,
        "correct": true,
        "response": "ArrowRight",
        "congruent": true,
        "gazeTowards": false,
        "gazeCondition": "away",
        "faceOnLeft": true,
        "impliedDirection": 0,
        "testDirection": 0,
        "avgFps": 75,
        "minFps": 74,
        "maxFps": 76,
        "totalFrames": 36,
        "frameRates": 75
      },
      {
        "trial_number": 40,
        "trial_index": 259,
        "rt": 554,
        "correct": true,
        "response": "ArrowRight",
        "congruent": false,
        "gazeTowards": true,
        "gazeCondition": "towards",
        "faceOnLeft": false,
        "impliedDirection": 180,
        "testDirection": 0,
        "avgFps": 75,
        "minFps": 74,
        "maxFps": 76,
        "totalFrames": 41,
        "frameRates": 75
      },
      {
        "trial_number": 41,
        "trial_index": 264,
        "rt": 644,
        "correct": true,
        "response": "ArrowRight",
        "congruent": false,
        "gazeTowards": true,
        "gazeCondition": "towards",
        "faceOnLeft": false,
        "impliedDirection": 180,
        "testDirection": 0,
        "avgFps": 75,
        "minFps": 74,
        "maxFps": 76,
        "totalFrames": 48,
        "frameRates": 75
      },
      {
        "trial_number": 42,
        "trial_index": 269,
        "rt": 552,
        "correct": true,
        "response": "ArrowLeft",
        "congruent": false,
        "gazeTowards": true,
        "gazeCondition": "towards",
        "faceOnLeft": true,
        "impliedDirection": 0,
        "testDirection": 180,
        "avgFps": 75,
        "minFps": 74,
        "maxFps": 76,
        "totalFrames": 41,
        "frameRates": 75
      },
      {
        "trial_number": 43,
        "trial_index": 274,
        "rt": 443,
        "correct": true,
        "response": "ArrowRight",
        "congruent": true,
        "gazeTowards": true,
        "gazeCondition": "towards",
        "faceOnLeft": true,
        "impliedDirection": 0,
        "testDirection": 0,
        "avgFps": 75,
        "minFps": 74,
        "maxFps": 76,
        "totalFrames": 33,
        "frameRates": 75
      },
      {
        "trial_number": 44,
        "trial_index": 282,
        "rt": 531,
        "correct": true,
        "response": "ArrowRight",
        "congruent": false,
        "gazeTowards": true,
        "gazeCondition": "towards",
        "faceOnLeft": false,
        "impliedDirection": 180,
        "testDirection": 0,
        "avgFps": 75,
        "minFps": 74,
        "maxFps": 76,
        "totalFrames": 40,
        "frameRates": 75
      },
      {
        "trial_number": 45,
        "trial_index": 290,
        "rt": 512,
        "correct": true,
        "response": "ArrowRight",
        "congruent": false,
        "gazeTowards": false,
        "gazeCondition": "away",
        "faceOnLeft": false,
        "impliedDirection": 180,
        "testDirection": 0,
        "avgFps": 76,
        "minFps": 74,
        "maxFps": 148,
        "totalFrames": 39,
        "frameRates": 76
      },
      {
        "trial_number": 46,
        "trial_index": 295,
        "rt": 545,
        "correct": true,
        "response": "ArrowLeft",
        "congruent": true,
        "gazeTowards": false,
        "gazeCondition": "away",
        "faceOnLeft": false,
        "impliedDirection": 180,
        "testDirection": 180,
        "avgFps": 74,
        "minFps": 48,
        "maxFps": 79,
        "totalFrames": 40,
        "frameRates": 74
      },
      {
        "trial_number": 47,
        "trial_index": 300,
        "rt": 568,
        "correct": true,
        "response": "ArrowLeft",
        "congruent": false,
        "gazeTowards": true,
        "gazeCondition": "towards",
        "faceOnLeft": true,
        "impliedDirection": 0,
        "testDirection": 180,
        "avgFps": 76,
        "minFps": 74,
        "maxFps": 150,
        "totalFrames": 43,
        "frameRates": 76
      },
      {
        "trial_number": 48,
        "trial_index": 308,
        "rt": 906,
        "correct": true,
        "response": "ArrowRight",
        "congruent": true,
        "gazeTowards": false,
        "gazeCondition": "away",
        "faceOnLeft": true,
        "impliedDirection": 0,
        "testDirection": 0,
        "avgFps": 74,
        "minFps": 40,
        "maxFps": 85,
        "totalFrames": 67,
        "frameRates": 74
      },
      {
        "trial_number": 49,
        "trial_index": 313,
        "rt": 647,
        "correct": true,
        "response": "ArrowLeft",
        "congruent": true,
        "gazeTowards": false,
        "gazeCondition": "away",
        "faceOnLeft": false,
        "impliedDirection": 180,
        "testDirection": 180,
        "avgFps": 74,
        "minFps": 47,
        "maxFps": 82,
        "totalFrames": 48,
        "frameRates": 74
      },
      {
        "trial_number": 50,
        "trial_index": 318,
        "rt": 574,
        "correct": true,
        "response": "ArrowLeft",
        "congruent": false,
        "gazeTowards": false,
        "gazeCondition": "away",
        "faceOnLeft": true,
        "impliedDirection": 0,
        "testDirection": 180,
        "avgFps": 75,
        "minFps": 74,
        "maxFps": 76,
        "totalFrames": 43,
        "frameRates": 75
      },
      {
        "trial_number": 51,
        "trial_index": 323,
        "rt": 611,
        "correct": true,
        "response": "ArrowRight",
        "congruent": true,
        "gazeTowards": false,
        "gazeCondition": "away",
        "faceOnLeft": true,
        "impliedDirection": 0,
        "testDirection": 0,
        "avgFps": 75,
        "minFps": 73,
        "maxFps": 77,
        "totalFrames": 46,
        "frameRates": 75
      },
      {
        "trial_number": 52,
        "trial_index": 328,
        "rt": 663,
        "correct": true,
        "response": "ArrowRight",
        "congruent": false,
        "gazeTowards": false,
        "gazeCondition": "away",
        "faceOnLeft": false,
        "impliedDirection": 180,
        "testDirection": 0,
        "avgFps": 75,
        "minFps": 74,
        "maxFps": 76,
        "totalFrames": 49,
        "frameRates": 75
      },
      {
        "trial_number": 53,
        "trial_index": 333,
        "rt": 651,
        "correct": true,
        "response": "ArrowLeft",
        "congruent": true,
        "gazeTowards": true,
        "gazeCondition": "towards",
        "faceOnLeft": false,
        "impliedDirection": 180,
        "testDirection": 180,
        "avgFps": 75,
        "minFps": 74,
        "maxFps": 76,
        "totalFrames": 48,
        "frameRates": 75
      },
      {
        "trial_number": 54,
        "trial_index": 338,
        "rt": 547,
        "correct": true,
        "response": "ArrowRight",
        "congruent": true,
        "gazeTowards": false,
        "gazeCondition": "away",
        "faceOnLeft": true,
        "impliedDirection": 0,
        "testDirection": 0,
        "avgFps": 75,
        "minFps": 74,
        "maxFps": 76,
        "totalFrames": 41,
        "frameRates": 75
      },
      {
        "trial_number": 55,
        "trial_index": 343,
        "rt": 579,
        "correct": true,
        "response": "ArrowRight",
        "congruent": true,
        "gazeTowards": false,
        "gazeCondition": "away",
        "faceOnLeft": true,
        "impliedDirection": 0,
        "testDirection": 0,
        "avgFps": 76,
        "minFps": 74,
        "maxFps": 152,
        "totalFrames": 43,
        "frameRates": 76
      },
      {
        "trial_number": 56,
        "trial_index": 348,
        "rt": 530,
        "correct": true,
        "response": "ArrowLeft",
        "congruent": true,
        "gazeTowards": false,
        "gazeCondition": "away",
        "faceOnLeft": false,
        "impliedDirection": 180,
        "testDirection": 180,
        "avgFps": 76,
        "minFps": 74,
        "maxFps": 113,
        "totalFrames": 40,
        "frameRates": 76
      },
      {
        "trial_number": 57,
        "trial_index": 353,
        "rt": 610,
        "correct": true,
        "response": "ArrowLeft",
        "congruent": false,
        "gazeTowards": false,
        "gazeCondition": "away",
        "faceOnLeft": true,
        "impliedDirection": 0,
        "testDirection": 180,
        "avgFps": 76,
        "minFps": 74,
        "maxFps": 150,
        "totalFrames": 46,
        "frameRates": 76
      },
      {
        "trial_number": 58,
        "trial_index": 358,
        "rt": 531,
        "correct": true,
        "response": "ArrowLeft",
        "congruent": true,
        "gazeTowards": false,
        "gazeCondition": "away",
        "faceOnLeft": false,
        "impliedDirection": 180,
        "testDirection": 180,
        "avgFps": 75,
        "minFps": 74,
        "maxFps": 76,
        "totalFrames": 40,
        "frameRates": 75
      },
      {
        "trial_number": 59,
        "trial_index": 363,
        "rt": 608,
        "correct": true,
        "response": "ArrowLeft",
        "congruent": true,
        "gazeTowards": false,
        "gazeCondition": "away",
        "faceOnLeft": false,
        "impliedDirection": 180,
        "testDirection": 180,
        "avgFps": 75,
        "minFps": 74,
        "maxFps": 100,
        "totalFrames": 46,
        "frameRates": 75
      },
      {
        "trial_number": 60,
        "trial_index": 369,
        "rt": 663,
        "correct": true,
        "response": "ArrowRight",
        "congruent": false,
        "gazeTowards": false,
        "gazeCondition": "away",
        "faceOnLeft": false,
        "impliedDirection": 180,
        "testDirection": 0,
        "avgFps": 76,
        "minFps": 74,
        "maxFps": 148,
        "totalFrames": 50,
        "frameRates": 76
      },
      {
        "trial_number": 61,
        "trial_index": 374,
        "rt": 648,
        "correct": true,
        "response": "ArrowLeft",
        "congruent": false,
        "gazeTowards": false,
        "gazeCondition": "away",
        "faceOnLeft": true,
        "impliedDirection": 0,
        "testDirection": 180,
        "avgFps": 75,
        "minFps": 74,
        "maxFps": 76,
        "totalFrames": 48,
        "frameRates": 75
      },
      {
        "trial_number": 62,
        "trial_index": 379,
        "rt": 491,
        "correct": true,
        "response": "ArrowRight",
        "congruent": true,
        "gazeTowards": false,
        "gazeCondition": "away",
        "faceOnLeft": true,
        "impliedDirection": 0,
        "testDirection": 0,
        "avgFps": 75,
        "minFps": 74,
        "maxFps": 76,
        "totalFrames": 36,
        "frameRates": 75
      },
      {
        "trial_number": 63,
        "trial_index": 384,
        "rt": 927,
        "correct": true,
        "response": "ArrowLeft",
        "congruent": true,
        "gazeTowards": true,
        "gazeCondition": "towards",
        "faceOnLeft": false,
        "impliedDirection": 180,
        "testDirection": 180,
        "avgFps": 76,
        "minFps": 74,
        "maxFps": 150,
        "totalFrames": 70,
        "frameRates": 76
      },
      {
        "trial_number": 64,
        "trial_index": 392,
        "rt": 540,
        "correct": true,
        "response": "ArrowRight",
        "congruent": true,
        "gazeTowards": false,
        "gazeCondition": "away",
        "faceOnLeft": true,
        "impliedDirection": 0,
        "testDirection": 0,
        "avgFps": 76,
        "minFps": 74,
        "maxFps": 148,
        "totalFrames": 41,
        "frameRates": 76
      },
      {
        "trial_number": 65,
        "trial_index": 397,
        "rt": 590,
        "correct": true,
        "response": "ArrowRight",
        "congruent": false,
        "gazeTowards": true,
        "gazeCondition": "towards",
        "faceOnLeft": false,
        "impliedDirection": 180,
        "testDirection": 0,
        "avgFps": 74,
        "minFps": 43,
        "maxFps": 81,
        "totalFrames": 44,
        "frameRates": 74
      },
      {
        "trial_number": 66,
        "trial_index": 402,
        "rt": 762,
        "correct": true,
        "response": "ArrowRight",
        "congruent": false,
        "gazeTowards": true,
        "gazeCondition": "towards",
        "faceOnLeft": false,
        "impliedDirection": 180,
        "testDirection": 0,
        "avgFps": 76,
        "minFps": 74,
        "maxFps": 152,
        "totalFrames": 57,
        "frameRates": 76
      },
      {
        "trial_number": 67,
        "trial_index": 407,
        "rt": 579,
        "correct": true,
        "response": "ArrowRight",
        "congruent": true,
        "gazeTowards": false,
        "gazeCondition": "away",
        "faceOnLeft": true,
        "impliedDirection": 0,
        "testDirection": 0,
        "avgFps": 76,
        "minFps": 73,
        "maxFps": 152,
        "totalFrames": 43,
        "frameRates": 76
      },
      {
        "trial_number": 68,
        "trial_index": 412,
        "rt": 574,
        "correct": true,
        "response": "ArrowLeft",
        "congruent": false,
        "gazeTowards": true,
        "gazeCondition": "towards",
        "faceOnLeft": true,
        "impliedDirection": 0,
        "testDirection": 180,
        "avgFps": 75,
        "minFps": 74,
        "maxFps": 76,
        "totalFrames": 43,
        "frameRates": 75
      },
      {
        "trial_number": 69,
        "trial_index": 417,
        "rt": 454,
        "correct": true,
        "response": "ArrowRight",
        "congruent": true,
        "gazeTowards": true,
        "gazeCondition": "towards",
        "faceOnLeft": true,
        "impliedDirection": 0,
        "testDirection": 0,
        "avgFps": 74,
        "minFps": 48,
        "maxFps": 79,
        "totalFrames": 33,
        "frameRates": 74
      },
      {
        "trial_number": 70,
        "trial_index": 422,
        "rt": 511,
        "correct": true,
        "response": "ArrowRight",
        "congruent": true,
        "gazeTowards": true,
        "gazeCondition": "towards",
        "faceOnLeft": true,
        "impliedDirection": 0,
        "testDirection": 0,
        "avgFps": 76,
        "minFps": 74,
        "maxFps": 152,
        "totalFrames": 38,
        "frameRates": 76
      },
      {
        "trial_number": 71,
        "trial_index": 427,
        "rt": 462,
        "correct": true,
        "response": "ArrowRight",
        "congruent": true,
        "gazeTowards": true,
        "gazeCondition": "towards",
        "faceOnLeft": true,
        "impliedDirection": 0,
        "testDirection": 0,
        "avgFps": 75,
        "minFps": 74,
        "maxFps": 76,
        "totalFrames": 34,
        "frameRates": 75
      },
      {
        "trial_number": 72,
        "trial_index": 432,
        "rt": 472,
        "correct": true,
        "response": "ArrowRight",
        "congruent": false,
        "gazeTowards": false,
        "gazeCondition": "away",
        "faceOnLeft": false,
        "impliedDirection": 180,
        "testDirection": 0,
        "avgFps": 75,
        "minFps": 74,
        "maxFps": 76,
        "totalFrames": 35,
        "frameRates": 75
      },
      {
        "trial_number": 73,
        "trial_index": 437,
        "rt": 524,
        "correct": true,
        "response": "ArrowLeft",
        "congruent": true,
        "gazeTowards": false,
        "gazeCondition": "away",
        "faceOnLeft": false,
        "impliedDirection": 180,
        "testDirection": 180,
        "avgFps": 76,
        "minFps": 74,
        "maxFps": 150,
        "totalFrames": 39,
        "frameRates": 76
      },
      {
        "trial_number": 74,
        "trial_index": 442,
        "rt": 602,
        "correct": true,
        "response": "ArrowLeft",
        "congruent": true,
        "gazeTowards": false,
        "gazeCondition": "away",
        "faceOnLeft": false,
        "impliedDirection": 180,
        "testDirection": 180,
        "avgFps": 75,
        "minFps": 70,
        "maxFps": 80,
        "totalFrames": 45,
        "frameRates": 75
      },
      {
        "trial_number": 75,
        "trial_index": 447,
        "rt": 811,
        "correct": true,
        "response": "ArrowRight",
        "congruent": true,
        "gazeTowards": false,
        "gazeCondition": "away",
        "faceOnLeft": true,
        "impliedDirection": 0,
        "testDirection": 0,
        "avgFps": 76,
        "minFps": 74,
        "maxFps": 152,
        "totalFrames": 61,
        "frameRates": 76
      },
      {
        "trial_number": 76,
        "trial_index": 452,
        "rt": 868,
        "correct": true,
        "response": "ArrowLeft",
        "congruent": false,
        "gazeTowards": false,
        "gazeCondition": "away",
        "faceOnLeft": true,
        "impliedDirection": 0,
        "testDirection": 180,
        "avgFps": 74,
        "minFps": 41,
        "maxFps": 82,
        "totalFrames": 65,
        "frameRates": 74
      },
      {
        "trial_number": 77,
        "trial_index": 457,
        "rt": 940,
        "correct": true,
        "response": "ArrowRight",
        "congruent": true,
        "gazeTowards": false,
        "gazeCondition": "away",
        "faceOnLeft": true,
        "impliedDirection": 0,
        "testDirection": 0,
        "avgFps": 75,
        "minFps": 74,
        "maxFps": 76,
        "totalFrames": 70,
        "frameRates": 75
      },
      {
        "trial_number": 78,
        "trial_index": 462,
        "rt": 691,
        "correct": true,
        "response": "ArrowRight",
        "congruent": true,
        "gazeTowards": true,
        "gazeCondition": "towards",
        "faceOnLeft": true,
        "impliedDirection": 0,
        "testDirection": 0,
        "avgFps": 76,
        "minFps": 74,
        "maxFps": 150,
        "totalFrames": 52,
        "frameRates": 76
      },
      {
        "trial_number": 79,
        "trial_index": 467,
        "rt": 755,
        "correct": true,
        "response": "ArrowRight",
        "congruent": false,
        "gazeTowards": true,
        "gazeCondition": "towards",
        "faceOnLeft": false,
        "impliedDirection": 180,
        "testDirection": 0,
        "avgFps": 75,
        "minFps": 74,
        "maxFps": 76,
        "totalFrames": 56,
        "frameRates": 75
      },
      {
        "trial_number": 80,
        "trial_index": 472,
        "rt": 862,
        "correct": true,
        "response": "ArrowLeft",
        "congruent": true,
        "gazeTowards": true,
        "gazeCondition": "towards",
        "faceOnLeft": false,
        "impliedDirection": 180,
        "testDirection": 180,
        "avgFps": 76,
        "minFps": 74,
        "maxFps": 136,
        "totalFrames": 65,
        "frameRates": 76
      },
      {
        "trial_number": 81,
        "trial_index": 477,
        "rt": 917,
        "correct": true,
        "response": "ArrowLeft",
        "congruent": false,
        "gazeTowards": false,
        "gazeCondition": "away",
        "faceOnLeft": true,
        "impliedDirection": 0,
        "testDirection": 180,
        "avgFps": 75,
        "minFps": 73,
        "maxFps": 77,
        "totalFrames": 68,
        "frameRates": 75
      },
      {
        "trial_number": 82,
        "trial_index": 482,
        "rt": 765,
        "correct": true,
        "response": "ArrowRight",
        "congruent": false,
        "gazeTowards": true,
        "gazeCondition": "towards",
        "faceOnLeft": false,
        "impliedDirection": 180,
        "testDirection": 0,
        "avgFps": 75,
        "minFps": 73,
        "maxFps": 78,
        "totalFrames": 57,
        "frameRates": 75
      },
      {
        "trial_number": 83,
        "trial_index": 487,
        "rt": 823,
        "correct": true,
        "response": "ArrowLeft",
        "congruent": false,
        "gazeTowards": false,
        "gazeCondition": "away",
        "faceOnLeft": true,
        "impliedDirection": 0,
        "testDirection": 180,
        "avgFps": 75,
        "minFps": 74,
        "maxFps": 76,
        "totalFrames": 62,
        "frameRates": 75
      },
      {
        "trial_number": 84,
        "trial_index": 495,
        "rt": 564,
        "correct": true,
        "response": "ArrowRight",
        "congruent": false,
        "gazeTowards": false,
        "gazeCondition": "away",
        "faceOnLeft": false,
        "impliedDirection": 180,
        "testDirection": 0,
        "avgFps": 76,
        "minFps": 74,
        "maxFps": 148,
        "totalFrames": 43,
        "frameRates": 76
      },
      {
        "trial_number": 85,
        "trial_index": 500,
        "rt": 564,
        "correct": true,
        "response": "ArrowLeft",
        "congruent": false,
        "gazeTowards": true,
        "gazeCondition": "towards",
        "faceOnLeft": true,
        "impliedDirection": 0,
        "testDirection": 180,
        "avgFps": 74,
        "minFps": 40,
        "maxFps": 85,
        "totalFrames": 42,
        "frameRates": 74
      },
      {
        "trial_number": 86,
        "trial_index": 505,
        "rt": 1013,
        "correct": true,
        "response": "ArrowRight",
        "congruent": true,
        "gazeTowards": true,
        "gazeCondition": "towards",
        "faceOnLeft": true,
        "impliedDirection": 0,
        "testDirection": 0,
        "avgFps": 76,
        "minFps": 73,
        "maxFps": 148,
        "totalFrames": 76,
        "frameRates": 76
      },
      {
        "trial_number": 87,
        "trial_index": 513,
        "rt": 740,
        "correct": true,
        "response": "ArrowLeft",
        "congruent": false,
        "gazeTowards": true,
        "gazeCondition": "towards",
        "faceOnLeft": true,
        "impliedDirection": 0,
        "testDirection": 180,
        "avgFps": 76,
        "minFps": 69,
        "maxFps": 148,
        "totalFrames": 56,
        "frameRates": 76
      },
      {
        "trial_number": 88,
        "trial_index": 518,
        "rt": 714,
        "correct": true,
        "response": "ArrowLeft",
        "congruent": false,
        "gazeTowards": false,
        "gazeCondition": "away",
        "faceOnLeft": true,
        "impliedDirection": 0,
        "testDirection": 180,
        "avgFps": 76,
        "minFps": 73,
        "maxFps": 152,
        "totalFrames": 54,
        "frameRates": 76
      },
      {
        "trial_number": 89,
        "trial_index": 527,
        "rt": 464,
        "correct": true,
        "response": "ArrowRight",
        "congruent": true,
        "gazeTowards": true,
        "gazeCondition": "towards",
        "faceOnLeft": true,
        "impliedDirection": 0,
        "testDirection": 0,
        "avgFps": 73,
        "minFps": 42,
        "maxFps": 80,
        "totalFrames": 34,
        "frameRates": 73
      },
      {
        "trial_number": 90,
        "trial_index": 532,
        "rt": 543,
        "correct": true,
        "response": "ArrowLeft",
        "congruent": true,
        "gazeTowards": false,
        "gazeCondition": "away",
        "faceOnLeft": false,
        "impliedDirection": 180,
        "testDirection": 180,
        "avgFps": 75,
        "minFps": 74,
        "maxFps": 76,
        "totalFrames": 40,
        "frameRates": 75
      },
      {
        "trial_number": 91,
        "trial_index": 537,
        "rt": 554,
        "correct": true,
        "response": "ArrowRight",
        "congruent": false,
        "gazeTowards": true,
        "gazeCondition": "towards",
        "faceOnLeft": false,
        "impliedDirection": 180,
        "testDirection": 0,
        "avgFps": 74,
        "minFps": 41,
        "maxFps": 79,
        "totalFrames": 41,
        "frameRates": 74
      },
      {
        "trial_number": 92,
        "trial_index": 542,
        "rt": 556,
        "correct": true,
        "response": "ArrowLeft",
        "congruent": true,
        "gazeTowards": true,
        "gazeCondition": "towards",
        "faceOnLeft": false,
        "impliedDirection": 180,
        "testDirection": 180,
        "avgFps": 76,
        "minFps": 73,
        "maxFps": 152,
        "totalFrames": 42,
        "frameRates": 76
      },
      {
        "trial_number": 93,
        "trial_index": 547,
        "rt": 498,
        "correct": true,
        "response": "ArrowRight",
        "congruent": false,
        "gazeTowards": true,
        "gazeCondition": "towards",
        "faceOnLeft": false,
        "impliedDirection": 180,
        "testDirection": 0,
        "avgFps": 75,
        "minFps": 74,
        "maxFps": 77,
        "totalFrames": 37,
        "frameRates": 75
      },
      {
        "trial_number": 94,
        "trial_index": 552,
        "rt": 545,
        "correct": true,
        "response": "ArrowRight",
        "congruent": false,
        "gazeTowards": false,
        "gazeCondition": "away",
        "faceOnLeft": false,
        "impliedDirection": 180,
        "testDirection": 0,
        "avgFps": 74,
        "minFps": 43,
        "maxFps": 80,
        "totalFrames": 40,
        "frameRates": 74
      },
      {
        "trial_number": 95,
        "trial_index": 557,
        "rt": 598,
        "correct": true,
        "response": "ArrowLeft",
        "congruent": false,
        "gazeTowards": false,
        "gazeCondition": "away",
        "faceOnLeft": true,
        "impliedDirection": 0,
        "testDirection": 180,
        "avgFps": 76,
        "minFps": 74,
        "maxFps": 150,
        "totalFrames": 45,
        "frameRates": 76
      },
      {
        "trial_number": 96,
        "trial_index": 562,
        "rt": 479,
        "correct": true,
        "response": "ArrowRight",
        "congruent": false,
        "gazeTowards": false,
        "gazeCondition": "away",
        "faceOnLeft": false,
        "impliedDirection": 180,
        "testDirection": 0,
        "avgFps": 75,
        "minFps": 74,
        "maxFps": 76,
        "totalFrames": 36,
        "frameRates": 75
      },
      {
        "trial_number": 97,
        "trial_index": 570,
        "rt": 768,
        "correct": true,
        "response": "ArrowLeft",
        "congruent": false,
        "gazeTowards": true,
        "gazeCondition": "towards",
        "faceOnLeft": true,
        "impliedDirection": 0,
        "testDirection": 180,
        "avgFps": 76,
        "minFps": 74,
        "maxFps": 150,
        "totalFrames": 58,
        "frameRates": 76
      },
      {
        "trial_number": 98,
        "trial_index": 575,
        "rt": 754,
        "correct": true,
        "response": "ArrowRight",
        "congruent": true,
        "gazeTowards": false,
        "gazeCondition": "away",
        "faceOnLeft": true,
        "impliedDirection": 0,
        "testDirection": 0,
        "avgFps": 76,
        "minFps": 74,
        "maxFps": 119,
        "totalFrames": 57,
        "frameRates": 76
      },
      {
        "trial_number": 99,
        "trial_index": 580,
        "rt": 600,
        "correct": true,
        "response": "ArrowLeft",
        "congruent": false,
        "gazeTowards": true,
        "gazeCondition": "towards",
        "faceOnLeft": true,
        "impliedDirection": 0,
        "testDirection": 180,
        "avgFps": 75,
        "minFps": 73,
        "maxFps": 101,
        "totalFrames": 45,
        "frameRates": 75
      },
      {
        "trial_number": 100,
        "trial_index": 585,
        "rt": 537,
        "correct": true,
        "response": "ArrowLeft",
        "congruent": false,
        "gazeTowards": true,
        "gazeCondition": "towards",
        "faceOnLeft": true,
        "impliedDirection": 0,
        "testDirection": 180,
        "avgFps": 76,
        "minFps": 74,
        "maxFps": 150,
        "totalFrames": 40,
        "frameRates": 76
      },
      {
        "trial_number": 101,
        "trial_index": 590,
        "rt": 548,
        "correct": true,
        "response": "ArrowLeft",
        "congruent": true,
        "gazeTowards": true,
        "gazeCondition": "towards",
        "faceOnLeft": false,
        "impliedDirection": 180,
        "testDirection": 180,
        "avgFps": 75,
        "minFps": 74,
        "maxFps": 76,
        "totalFrames": 41,
        "frameRates": 75
      },
      {
        "trial_number": 102,
        "trial_index": 595,
        "rt": 753,
        "correct": true,
        "response": "ArrowLeft",
        "congruent": false,
        "gazeTowards": true,
        "gazeCondition": "towards",
        "faceOnLeft": true,
        "impliedDirection": 0,
        "testDirection": 180,
        "avgFps": 76,
        "minFps": 74,
        "maxFps": 152,
        "totalFrames": 57,
        "frameRates": 76
      },
      {
        "trial_number": 103,
        "trial_index": 600,
        "rt": 690,
        "correct": true,
        "response": "ArrowLeft",
        "congruent": false,
        "gazeTowards": true,
        "gazeCondition": "towards",
        "faceOnLeft": true,
        "impliedDirection": 0,
        "testDirection": 180,
        "avgFps": 76,
        "minFps": 74,
        "maxFps": 152,
        "totalFrames": 52,
        "frameRates": 76
      },
      {
        "trial_number": 104,
        "trial_index": 605,
        "rt": 614,
        "correct": true,
        "response": "ArrowLeft",
        "congruent": true,
        "gazeTowards": true,
        "gazeCondition": "towards",
        "faceOnLeft": false,
        "impliedDirection": 180,
        "testDirection": 180,
        "avgFps": 75,
        "minFps": 74,
        "maxFps": 76,
        "totalFrames": 46,
        "frameRates": 75
      },
      {
        "trial_number": 105,
        "trial_index": 610,
        "rt": 502,
        "correct": true,
        "response": "ArrowRight",
        "congruent": false,
        "gazeTowards": false,
        "gazeCondition": "away",
        "faceOnLeft": false,
        "impliedDirection": 180,
        "testDirection": 0,
        "avgFps": 75,
        "minFps": 74,
        "maxFps": 76,
        "totalFrames": 38,
        "frameRates": 75
      },
      {
        "trial_number": 106,
        "trial_index": 615,
        "rt": 537,
        "correct": true,
        "response": "ArrowLeft",
        "congruent": true,
        "gazeTowards": true,
        "gazeCondition": "towards",
        "faceOnLeft": false,
        "impliedDirection": 180,
        "testDirection": 180,
        "avgFps": 75,
        "minFps": 74,
        "maxFps": 76,
        "totalFrames": 40,
        "frameRates": 75
      },
      {
        "trial_number": 107,
        "trial_index": 620,
        "rt": 1081,
        "correct": true,
        "response": "ArrowRight",
        "congruent": false,
        "gazeTowards": true,
        "gazeCondition": "towards",
        "faceOnLeft": false,
        "impliedDirection": 180,
        "testDirection": 0,
        "avgFps": 75,
        "minFps": 74,
        "maxFps": 155,
        "totalFrames": 81,
        "frameRates": 75
      },
      {
        "trial_number": 108,
        "trial_index": 625,
        "rt": 638,
        "correct": true,
        "response": "ArrowRight",
        "congruent": true,
        "gazeTowards": false,
        "gazeCondition": "away",
        "faceOnLeft": true,
        "impliedDirection": 0,
        "testDirection": 0,
        "avgFps": 75,
        "minFps": 74,
        "maxFps": 76,
        "totalFrames": 47,
        "frameRates": 75
      },
      {
        "trial_number": 109,
        "trial_index": 630,
        "rt": 749,
        "correct": true,
        "response": "ArrowRight",
        "congruent": true,
        "gazeTowards": false,
        "gazeCondition": "away",
        "faceOnLeft": true,
        "impliedDirection": 0,
        "testDirection": 0,
        "avgFps": 76,
        "minFps": 73,
        "maxFps": 150,
        "totalFrames": 56,
        "frameRates": 76
      },
      {
        "trial_number": 110,
        "trial_index": 635,
        "rt": 723,
        "correct": true,
        "response": "ArrowRight",
        "congruent": false,
        "gazeTowards": true,
        "gazeCondition": "towards",
        "faceOnLeft": false,
        "impliedDirection": 180,
        "testDirection": 0,
        "avgFps": 75,
        "minFps": 74,
        "maxFps": 76,
        "totalFrames": 54,
        "frameRates": 75
      },
      {
        "trial_number": 111,
        "trial_index": 640,
        "rt": 896,
        "correct": true,
        "response": "ArrowLeft",
        "congruent": false,
        "gazeTowards": false,
        "gazeCondition": "away",
        "faceOnLeft": true,
        "impliedDirection": 0,
        "testDirection": 180,
        "avgFps": 75,
        "minFps": 74,
        "maxFps": 76,
        "totalFrames": 67,
        "frameRates": 75
      },
      {
        "trial_number": 112,
        "trial_index": 645,
        "rt": 458,
        "correct": true,
        "response": "ArrowRight",
        "congruent": true,
        "gazeTowards": true,
        "gazeCondition": "towards",
        "faceOnLeft": true,
        "impliedDirection": 0,
        "testDirection": 0,
        "avgFps": 75,
        "minFps": 74,
        "maxFps": 76,
        "totalFrames": 34,
        "frameRates": 75
      },
      {
        "trial_number": 113,
        "trial_index": 650,
        "rt": 513,
        "correct": true,
        "response": "ArrowLeft",
        "congruent": false,
        "gazeTowards": false,
        "gazeCondition": "away",
        "faceOnLeft": true,
        "impliedDirection": 0,
        "testDirection": 180,
        "avgFps": 75,
        "minFps": 74,
        "maxFps": 77,
        "totalFrames": 38,
        "frameRates": 75
      },
      {
        "trial_number": 114,
        "trial_index": 658,
        "rt": 488,
        "correct": true,
        "response": "ArrowRight",
        "congruent": false,
        "gazeTowards": false,
        "gazeCondition": "away",
        "faceOnLeft": false,
        "impliedDirection": 180,
        "testDirection": 0,
        "avgFps": 76,
        "minFps": 74,
        "maxFps": 110,
        "totalFrames": 37,
        "frameRates": 76
      },
      {
        "trial_number": 115,
        "trial_index": 663,
        "rt": 524,
        "correct": true,
        "response": "ArrowRight",
        "congruent": true,
        "gazeTowards": true,
        "gazeCondition": "towards",
        "faceOnLeft": true,
        "impliedDirection": 0,
        "testDirection": 0,
        "avgFps": 75,
        "minFps": 74,
        "maxFps": 76,
        "totalFrames": 39,
        "frameRates": 75
      },
      {
        "trial_number": 116,
        "trial_index": 668,
        "rt": 506,
        "correct": true,
        "response": "ArrowRight",
        "congruent": true,
        "gazeTowards": false,
        "gazeCondition": "away",
        "faceOnLeft": true,
        "impliedDirection": 0,
        "testDirection": 0,
        "avgFps": 74,
        "minFps": 40,
        "maxFps": 83,
        "totalFrames": 37,
        "frameRates": 74
      },
      {
        "trial_number": 117,
        "trial_index": 673,
        "rt": 541,
        "correct": true,
        "response": "ArrowLeft",
        "congruent": false,
        "gazeTowards": false,
        "gazeCondition": "away",
        "faceOnLeft": true,
        "impliedDirection": 0,
        "testDirection": 180,
        "avgFps": 75,
        "minFps": 74,
        "maxFps": 76,
        "totalFrames": 40,
        "frameRates": 75
      },
      {
        "trial_number": 118,
        "trial_index": 678,
        "rt": 562,
        "correct": true,
        "response": "ArrowRight",
        "congruent": false,
        "gazeTowards": false,
        "gazeCondition": "away",
        "faceOnLeft": false,
        "impliedDirection": 180,
        "testDirection": 0,
        "avgFps": 75,
        "minFps": 74,
        "maxFps": 102,
        "totalFrames": 42,
        "frameRates": 75
      },
      {
        "trial_number": 119,
        "trial_index": 683,
        "rt": 593,
        "correct": true,
        "response": "ArrowLeft",
        "congruent": true,
        "gazeTowards": true,
        "gazeCondition": "towards",
        "faceOnLeft": false,
        "impliedDirection": 180,
        "testDirection": 180,
        "avgFps": 76,
        "minFps": 74,
        "maxFps": 144,
        "totalFrames": 45,
        "frameRates": 76
      }
    ],
    "catch": {
      "total": 12,
      "correct": 12,
      "accuracy": 100,
      "meanRT": 550,
      "trials": [
        {
          "trial_number": 0,
          "trial_index": 123,
          "rt": 528,
          "correct": true,
          "colorTarget": "face",
          "gazeTowards": false,
          "gazeCondition": "away",
          "faceOnLeft": true
        },
        {
          "trial_number": 1,
          "trial_index": 131,
          "rt": 416,
          "correct": true,
          "colorTarget": "tree",
          "gazeTowards": false,
          "gazeCondition": "away",
          "faceOnLeft": false
        },
        {
          "trial_number": 2,
          "trial_index": 134,
          "rt": 514,
          "correct": true,
          "colorTarget": "tree",
          "gazeTowards": true,
          "gazeCondition": "towards",
          "faceOnLeft": false
        },
        {
          "trial_number": 3,
          "trial_index": 278,
          "rt": 749,
          "correct": true,
          "colorTarget": "face",
          "gazeTowards": false,
          "gazeCondition": "away",
          "faceOnLeft": true
        },
        {
          "trial_number": 4,
          "trial_index": 286,
          "rt": 457,
          "correct": true,
          "colorTarget": "face",
          "gazeTowards": false,
          "gazeCondition": "away",
          "faceOnLeft": true
        },
        {
          "trial_number": 5,
          "trial_index": 304,
          "rt": 628,
          "correct": true,
          "colorTarget": "face",
          "gazeTowards": true,
          "gazeCondition": "towards",
          "faceOnLeft": true
        },
        {
          "trial_number": 6,
          "trial_index": 388,
          "rt": 508,
          "correct": true,
          "colorTarget": "face",
          "gazeTowards": true,
          "gazeCondition": "towards",
          "faceOnLeft": false
        },
        {
          "trial_number": 7,
          "trial_index": 491,
          "rt": 691,
          "correct": true,
          "colorTarget": "tree",
          "gazeTowards": false,
          "gazeCondition": "away",
          "faceOnLeft": false
        },
        {
          "trial_number": 8,
          "trial_index": 509,
          "rt": 461,
          "correct": true,
          "colorTarget": "tree",
          "gazeTowards": true,
          "gazeCondition": "towards",
          "faceOnLeft": false
        },
        {
          "trial_number": 9,
          "trial_index": 522,
          "rt": 438,
          "correct": true,
          "colorTarget": "tree",
          "gazeTowards": true,
          "gazeCondition": "towards",
          "faceOnLeft": false
        },
        {
          "trial_number": 10,
          "trial_index": 566,
          "rt": 539,
          "correct": true,
          "colorTarget": "tree",
          "gazeTowards": true,
          "gazeCondition": "towards",
          "faceOnLeft": false
        },
        {
          "trial_number": 11,
          "trial_index": 654,
          "rt": 672,
          "correct": true,
          "colorTarget": "face",
          "gazeTowards": true,
          "gazeCondition": "towards",
          "faceOnLeft": false
        }
      ]
    },
    "practice": {
      "trials": [
        {
          "trial_number": 0,
          "rt": null,
          "correct": false,
          "direction": 180
        },
        {
          "trial_number": 1,
          "rt": 747,
          "correct": true,
          "direction": 0
        },
        {
          "trial_number": 2,
          "rt": 876,
          "correct": true,
          "direction": 0
        },
        {
          "trial_number": 3,
          "rt": 691,
          "correct": true,
          "direction": 0
        },
        {
          "trial_number": 4,
          "rt": 450,
          "correct": true,
          "direction": 180
        },
        {
          "trial_number": 5,
          "rt": 539,
          "correct": true,
          "direction": 0
        },
        {
          "trial_number": 6,
          "rt": 530,
          "correct": true,
          "direction": 180
        },
        {
          "trial_number": 7,
          "rt": 588,
          "correct": true,
          "direction": 180
        },
        {
          "trial_number": 8,
          "rt": 489,
          "correct": true,
          "direction": 180
        },
        {
          "trial_number": 9,
          "rt": 532,
          "correct": true,
          "direction": 180
        }
      ],
      "meanRT": 605,
      "accuracy": 90
    }
  }
}