{
  "experiment": "rdk-face-1",
  "UUID": "9f927c23-80ff-4d9b-8eae-7e09be24ca47",
  "data": {
    "session": {
      "experiment_version": "1.8.6",
      "treatment": "faces_towards_away_catch",
      "file_version": "1.8.6",
      "totalTrials": 120,
      "totalTrialsIncludingCatch": 132,
      "conditions": {
        "gazeTowardsCount": 60,
        "gazeAwayCount": 60,
        "gazeTowardsAccuracy": 93,
        "gazeAwayAccuracy": 88
      },
      "session_group": "default",
      "browserData": {
        "os": "Mac",
        "browser": "Safari",
        "screenResolution": "1440x900",
        "browserViewport": "1440x900",
        "devicePixelRatio": 2,
        "colorDepth": 24,
        "hardwareConcurrency": 4,
        "deviceMemory": "Unknown",
        "gpuRenderer": "Apple GPU",
        "measuredRefreshRateHz": 54
      },
      "attention": {
        "visibilityEvents": [
          {
            "event": "visibilitychange",
            "state": "hidden",
            "timestamp": 1772781227242
          },
          {
            "event": "blur",
            "state": "blurred",
            "timestamp": 1772781227374
          },
          {
            "event": "focus",
            "state": "focused",
            "timestamp": 1772781488458
          },
          {
            "event": "visibilitychange",
            "state": "visible",
            "timestamp": 1772781489073
          }
        ]
      },
      "calibration": {
        "monitorWidthCm": 38,
        "viewingDistanceCm": 54,
        "pixelsPerDegree": 50
      },
      "parameters": {
        "coherence": 0.4,
        "apertureDeg": 5,
        "densityDotsPerDeg2": 40,
        "dotDiameterDeg": 0.035,
        "dotSpeedDegPerSec": 3,
        "lifetimeMs": 200,
        "fixationDurationMs": 1500,
        "faceDurationMs": 1500,
        "testDurationMs": 2000,
        "catchResponseMs": 3000
      },
      "prolific": {
        "prolificPid": "6034cb7ee10e21aaad71814a",
        "studyId": "",
        "sessionId": ""
      },
      "timing": {
        "startTime": "2026-03-06T07:11:34.898Z",
        "endTime": "2026-03-06T07:38:49.376Z",
        "totalElapsedTimeMs": 1634478
      }
    },
    "trials": [
      {
        "trial_number": 0,
        "trial_index": 49,
        "rt": 1916,
        "correct": true,
        "response": "ArrowLeft",
        "congruent": false,
        "gazeTowards": false,
        "gazeCondition": "away",
        "faceOnLeft": true,
        "impliedDirection": 0,
        "testDirection": 180,
        "avgFps": 30,
        "minFps": 29,
        "maxFps": 31,
        "totalFrames": 57,
        "frameRates": 30
      },
      {
        "trial_number": 1,
        "trial_index": 54,
        "rt": 829,
        "correct": true,
        "response": "ArrowRight",
        "congruent": true,
        "gazeTowards": false,
        "gazeCondition": "away",
        "faceOnLeft": true,
        "impliedDirection": 0,
        "testDirection": 0,
        "avgFps": 30,
        "minFps": 29,
        "maxFps": 31,
        "totalFrames": 24,
        "frameRates": 30
      },
      {
        "trial_number": 2,
        "trial_index": 59,
        "rt": 964,
        "correct": true,
        "response": "ArrowRight",
        "congruent": true,
        "gazeTowards": true,
        "gazeCondition": "towards",
        "faceOnLeft": true,
        "impliedDirection": 0,
        "testDirection": 0,
        "avgFps": 30,
        "minFps": 29,
        "maxFps": 31,
        "totalFrames": 28,
        "frameRates": 30
      },
      {
        "trial_number": 3,
        "trial_index": 64,
        "rt": 1795,
        "correct": true,
        "response": "ArrowRight",
        "congruent": false,
        "gazeTowards": true,
        "gazeCondition": "towards",
        "faceOnLeft": false,
        "impliedDirection": 180,
        "testDirection": 0,
        "avgFps": 30,
        "minFps": 29,
        "maxFps": 31,
        "totalFrames": 53,
        "frameRates": 30
      },
      {
        "trial_number": 4,
        "trial_index": 69,
        "rt": 1631,
        "correct": true,
        "response": "ArrowRight",
        "congruent": false,
        "gazeTowards": false,
        "gazeCondition": "away",
        "faceOnLeft": false,
        "impliedDirection": 180,
        "testDirection": 0,
        "avgFps": 30,
        "minFps": 29,
        "maxFps": 31,
        "totalFrames": 48,
        "frameRates": 30
      },
      {
        "trial_number": 5,
        "trial_index": 74,
        "rt": 1647,
        "correct": true,
        "response": "ArrowLeft",
        "congruent": true,
        "gazeTowards": true,
        "gazeCondition": "towards",
        "faceOnLeft": false,
        "impliedDirection": 180,
        "testDirection": 180,
        "avgFps": 30,
        "minFps": 29,
        "maxFps": 31,
        "totalFrames": 49,
        "frameRates": 30
      },
      {
        "trial_number": 6,
        "trial_index": 82,
        "rt": null,
        "correct": false,
        "response": null,
        "congruent": true,
        "gazeTowards": true,
        "gazeCondition": "towards",
        "faceOnLeft": false,
        "impliedDirection": 180,
        "testDirection": 180,
        "avgFps": 30,
        "minFps": 29,
        "maxFps": 31,
        "totalFrames": 59,
        "frameRates": 30
      },
      {
        "trial_number": 7,
        "trial_index": 87,
        "rt": 931,
        "correct": true,
        "response": "ArrowLeft",
        "congruent": true,
        "gazeTowards": false,
        "gazeCondition": "away",
        "faceOnLeft": false,
        "impliedDirection": 180,
        "testDirection": 180,
        "avgFps": 30,
        "minFps": 29,
        "maxFps": 31,
        "totalFrames": 27,
        "frameRates": 30
      },
      {
        "trial_number": 8,
        "trial_index": 92,
        "rt": 1670,
        "correct": true,
        "response": "ArrowLeft",
        "congruent": false,
        "gazeTowards": true,
        "gazeCondition": "towards",
        "faceOnLeft": true,
        "impliedDirection": 0,
        "testDirection": 180,
        "avgFps": 30,
        "minFps": 29,
        "maxFps": 31,
        "totalFrames": 49,
        "frameRates": 30
      },
      {
        "trial_number": 9,
        "trial_index": 97,
        "rt": 1540,
        "correct": true,
        "response": "ArrowLeft",
        "congruent": true,
        "gazeTowards": true,
        "gazeCondition": "towards",
        "faceOnLeft": false,
        "impliedDirection": 180,
        "testDirection": 180,
        "avgFps": 30,
        "minFps": 21,
        "maxFps": 53,
        "totalFrames": 45,
        "frameRates": 30
      },
      {
        "trial_number": 10,
        "trial_index": 102,
        "rt": 1366,
        "correct": false,
        "response": "ArrowRight",
        "congruent": false,
        "gazeTowards": true,
        "gazeCondition": "towards",
        "faceOnLeft": true,
        "impliedDirection": 0,
        "testDirection": 180,
        "avgFps": 30,
        "minFps": 29,
        "maxFps": 31,
        "totalFrames": 40,
        "frameRates": 30
      },
      {
        "trial_number": 11,
        "trial_index": 107,
        "rt": 973,
        "correct": true,
        "response": "ArrowRight",
        "congruent": true,
        "gazeTowards": true,
        "gazeCondition": "towards",
        "faceOnLeft": true,
        "impliedDirection": 0,
        "testDirection": 0,
        "avgFps": 30,
        "minFps": 29,
        "maxFps": 31,
        "totalFrames": 28,
        "frameRates": 30
      },
      {
        "trial_number": 12,
        "trial_index": 112,
        "rt": 1025,
        "correct": true,
        "response": "ArrowLeft",
        "congruent": false,
        "gazeTowards": false,
        "gazeCondition": "away",
        "faceOnLeft": true,
        "impliedDirection": 0,
        "testDirection": 180,
        "avgFps": 30,
        "minFps": 29,
        "maxFps": 31,
        "totalFrames": 30,
        "frameRates": 30
      },
      {
        "trial_number": 13,
        "trial_index": 120,
        "rt": 1477,
        "correct": true,
        "response": "ArrowRight",
        "congruent": false,
        "gazeTowards": true,
        "gazeCondition": "towards",
        "faceOnLeft": false,
        "impliedDirection": 180,
        "testDirection": 0,
        "avgFps": 30,
        "minFps": 29,
        "maxFps": 31,
        "totalFrames": 43,
        "frameRates": 30
      },
      {
        "trial_number": 14,
        "trial_index": 125,
        "rt": 1448,
        "correct": true,
        "response": "ArrowLeft",
        "congruent": true,
        "gazeTowards": true,
        "gazeCondition": "towards",
        "faceOnLeft": false,
        "impliedDirection": 180,
        "testDirection": 180,
        "avgFps": 30,
        "minFps": 29,
        "maxFps": 31,
        "totalFrames": 42,
        "frameRates": 30
      },
      {
        "trial_number": 15,
        "trial_index": 130,
        "rt": 921,
        "correct": true,
        "response": "ArrowLeft",
        "congruent": false,
        "gazeTowards": false,
        "gazeCondition": "away",
        "faceOnLeft": true,
        "impliedDirection": 0,
        "testDirection": 180,
        "avgFps": 30,
        "minFps": 29,
        "maxFps": 31,
        "totalFrames": 27,
        "frameRates": 30
      },
      {
        "trial_number": 16,
        "trial_index": 135,
        "rt": 1231,
        "correct": true,
        "response": "ArrowRight",
        "congruent": true,
        "gazeTowards": false,
        "gazeCondition": "away",
        "faceOnLeft": true,
        "impliedDirection": 0,
        "testDirection": 0,
        "avgFps": 30,
        "minFps": 29,
        "maxFps": 31,
        "totalFrames": 36,
        "frameRates": 30
      },
      {
        "trial_number": 17,
        "trial_index": 140,
        "rt": 742,
        "correct": true,
        "response": "ArrowRight",
        "congruent": true,
        "gazeTowards": false,
        "gazeCondition": "away",
        "faceOnLeft": true,
        "impliedDirection": 0,
        "testDirection": 0,
        "avgFps": 30,
        "minFps": 29,
        "maxFps": 31,
        "totalFrames": 21,
        "frameRates": 30
      },
      {
        "trial_number": 18,
        "trial_index": 145,
        "rt": 1504,
        "correct": true,
        "response": "ArrowRight",
        "congruent": false,
        "gazeTowards": true,
        "gazeCondition": "towards",
        "faceOnLeft": false,
        "impliedDirection": 180,
        "testDirection": 0,
        "avgFps": 30,
        "minFps": 29,
        "maxFps": 31,
        "totalFrames": 44,
        "frameRates": 30
      },
      {
        "trial_number": 19,
        "trial_index": 150,
        "rt": 1761,
        "correct": true,
        "response": "ArrowLeft",
        "congruent": false,
        "gazeTowards": true,
        "gazeCondition": "towards",
        "faceOnLeft": true,
        "impliedDirection": 0,
        "testDirection": 180,
        "avgFps": 30,
        "minFps": 29,
        "maxFps": 31,
        "totalFrames": 52,
        "frameRates": 30
      },
      {
        "trial_number": 20,
        "trial_index": 155,
        "rt": 1195,
        "correct": true,
        "response": "ArrowLeft",
        "congruent": true,
        "gazeTowards": false,
        "gazeCondition": "away",
        "faceOnLeft": false,
        "impliedDirection": 180,
        "testDirection": 180,
        "avgFps": 30,
        "minFps": 29,
        "maxFps": 31,
        "totalFrames": 35,
        "frameRates": 30
      },
      {
        "trial_number": 21,
        "trial_index": 160,
        "rt": 1268,
        "correct": true,
        "response": "ArrowRight",
        "congruent": false,
        "gazeTowards": true,
        "gazeCondition": "towards",
        "faceOnLeft": false,
        "impliedDirection": 180,
        "testDirection": 0,
        "avgFps": 30,
        "minFps": 29,
        "maxFps": 31,
        "totalFrames": 37,
        "frameRates": 30
      },
      {
        "trial_number": 22,
        "trial_index": 165,
        "rt": 994,
        "correct": true,
        "response": "ArrowRight",
        "congruent": true,
        "gazeTowards": false,
        "gazeCondition": "away",
        "faceOnLeft": true,
        "impliedDirection": 0,
        "testDirection": 0,
        "avgFps": 30,
        "minFps": 29,
        "maxFps": 30,
        "totalFrames": 29,
        "frameRates": 30
      },
      {
        "trial_number": 23,
        "trial_index": 170,
        "rt": 1233,
        "correct": true,
        "response": "ArrowLeft",
        "congruent": true,
        "gazeTowards": true,
        "gazeCondition": "towards",
        "faceOnLeft": false,
        "impliedDirection": 180,
        "testDirection": 180,
        "avgFps": 30,
        "minFps": 24,
        "maxFps": 42,
        "totalFrames": 36,
        "frameRates": 30
      },
      {
        "trial_number": 24,
        "trial_index": 175,
        "rt": 957,
        "correct": false,
        "response": "ArrowRight",
        "congruent": false,
        "gazeTowards": false,
        "gazeCondition": "away",
        "faceOnLeft": true,
        "impliedDirection": 0,
        "testDirection": 180,
        "avgFps": 30,
        "minFps": 29,
        "maxFps": 31,
        "totalFrames": 28,
        "frameRates": 30
      },
      {
        "trial_number": 25,
        "trial_index": 180,
        "rt": 1188,
        "correct": true,
        "response": "ArrowLeft",
        "congruent": true,
        "gazeTowards": true,
        "gazeCondition": "towards",
        "faceOnLeft": false,
        "impliedDirection": 180,
        "testDirection": 180,
        "avgFps": 30,
        "minFps": 29,
        "maxFps": 31,
        "totalFrames": 35,
        "frameRates": 30
      },
      {
        "trial_number": 26,
        "trial_index": 185,
        "rt": 895,
        "correct": true,
        "response": "ArrowRight",
        "congruent": false,
        "gazeTowards": false,
        "gazeCondition": "away",
        "faceOnLeft": false,
        "impliedDirection": 180,
        "testDirection": 0,
        "avgFps": 30,
        "minFps": 29,
        "maxFps": 31,
        "totalFrames": 26,
        "frameRates": 30
      },
      {
        "trial_number": 27,
        "trial_index": 190,
        "rt": 1374,
        "correct": true,
        "response": "ArrowLeft",
        "congruent": true,
        "gazeTowards": true,
        "gazeCondition": "towards",
        "faceOnLeft": false,
        "impliedDirection": 180,
        "testDirection": 180,
        "avgFps": 30,
        "minFps": 29,
        "maxFps": 31,
        "totalFrames": 40,
        "frameRates": 30
      },
      {
        "trial_number": 28,
        "trial_index": 195,
        "rt": 926,
        "correct": true,
        "response": "ArrowRight",
        "congruent": false,
        "gazeTowards": false,
        "gazeCondition": "away",
        "faceOnLeft": false,
        "impliedDirection": 180,
        "testDirection": 0,
        "avgFps": 30,
        "minFps": 29,
        "maxFps": 31,
        "totalFrames": 27,
        "frameRates": 30
      },
      {
        "trial_number": 29,
        "trial_index": 200,
        "rt": 1076,
        "correct": true,
        "response": "ArrowRight",
        "congruent": true,
        "gazeTowards": true,
        "gazeCondition": "towards",
        "faceOnLeft": true,
        "impliedDirection": 0,
        "testDirection": 0,
        "avgFps": 30,
        "minFps": 29,
        "maxFps": 31,
        "totalFrames": 31,
        "frameRates": 30
      },
      {
        "trial_number": 30,
        "trial_index": 205,
        "rt": 951,
        "correct": true,
        "response": "ArrowRight",
        "congruent": false,
        "gazeTowards": false,
        "gazeCondition": "away",
        "faceOnLeft": false,
        "impliedDirection": 180,
        "testDirection": 0,
        "avgFps": 30,
        "minFps": 29,
        "maxFps": 30,
        "totalFrames": 28,
        "frameRates": 30
      },
      {
        "trial_number": 31,
        "trial_index": 211,
        "rt": 973,
        "correct": true,
        "response": "ArrowLeft",
        "congruent": true,
        "gazeTowards": true,
        "gazeCondition": "towards",
        "faceOnLeft": false,
        "impliedDirection": 180,
        "testDirection": 180,
        "avgFps": 30,
        "minFps": 29,
        "maxFps": 31,
        "totalFrames": 28,
        "frameRates": 30
      },
      {
        "trial_number": 32,
        "trial_index": 216,
        "rt": 749,
        "correct": true,
        "response": "ArrowRight",
        "congruent": true,
        "gazeTowards": true,
        "gazeCondition": "towards",
        "faceOnLeft": true,
        "impliedDirection": 0,
        "testDirection": 0,
        "avgFps": 30,
        "minFps": 29,
        "maxFps": 31,
        "totalFrames": 22,
        "frameRates": 30
      },
      {
        "trial_number": 33,
        "trial_index": 221,
        "rt": 1054,
        "correct": true,
        "response": "ArrowLeft",
        "congruent": true,
        "gazeTowards": false,
        "gazeCondition": "away",
        "faceOnLeft": false,
        "impliedDirection": 180,
        "testDirection": 180,
        "avgFps": 30,
        "minFps": 29,
        "maxFps": 31,
        "totalFrames": 31,
        "frameRates": 30
      },
      {
        "trial_number": 34,
        "trial_index": 226,
        "rt": 673,
        "correct": true,
        "response": "ArrowLeft",
        "congruent": true,
        "gazeTowards": false,
        "gazeCondition": "away",
        "faceOnLeft": false,
        "impliedDirection": 180,
        "testDirection": 180,
        "avgFps": 30,
        "minFps": 29,
        "maxFps": 31,
        "totalFrames": 19,
        "frameRates": 30
      },
      {
        "trial_number": 35,
        "trial_index": 231,
        "rt": null,
        "correct": false,
        "response": null,
        "congruent": true,
        "gazeTowards": false,
        "gazeCondition": "away",
        "faceOnLeft": false,
        "impliedDirection": 180,
        "testDirection": 180,
        "avgFps": 30,
        "minFps": 29,
        "maxFps": 31,
        "totalFrames": 59,
        "frameRates": 30
      },
      {
        "trial_number": 36,
        "trial_index": 236,
        "rt": 1870,
        "correct": true,
        "response": "ArrowLeft",
        "congruent": false,
        "gazeTowards": false,
        "gazeCondition": "away",
        "faceOnLeft": true,
        "impliedDirection": 0,
        "testDirection": 180,
        "avgFps": 30,
        "minFps": 29,
        "maxFps": 31,
        "totalFrames": 55,
        "frameRates": 30
      },
      {
        "trial_number": 37,
        "trial_index": 241,
        "rt": 917,
        "correct": true,
        "response": "ArrowLeft",
        "congruent": true,
        "gazeTowards": true,
        "gazeCondition": "towards",
        "faceOnLeft": false,
        "impliedDirection": 180,
        "testDirection": 180,
        "avgFps": 30,
        "minFps": 29,
        "maxFps": 31,
        "totalFrames": 27,
        "frameRates": 30
      },
      {
        "trial_number": 38,
        "trial_index": 246,
        "rt": 753,
        "correct": true,
        "response": "ArrowLeft",
        "congruent": true,
        "gazeTowards": true,
        "gazeCondition": "towards",
        "faceOnLeft": false,
        "impliedDirection": 180,
        "testDirection": 180,
        "avgFps": 30,
        "minFps": 29,
        "maxFps": 31,
        "totalFrames": 21,
        "frameRates": 30
      },
      {
        "trial_number": 39,
        "trial_index": 251,
        "rt": 922,
        "correct": true,
        "response": "ArrowLeft",
        "congruent": true,
        "gazeTowards": false,
        "gazeCondition": "away",
        "faceOnLeft": false,
        "impliedDirection": 180,
        "testDirection": 180,
        "avgFps": 30,
        "minFps": 29,
        "maxFps": 31,
        "totalFrames": 27,
        "frameRates": 30
      },
      {
        "trial_number": 40,
        "trial_index": 256,
        "rt": 845,
        "correct": true,
        "response": "ArrowRight",
        "congruent": true,
        "gazeTowards": true,
        "gazeCondition": "towards",
        "faceOnLeft": true,
        "impliedDirection": 0,
        "testDirection": 0,
        "avgFps": 30,
        "minFps": 29,
        "maxFps": 31,
        "totalFrames": 24,
        "frameRates": 30
      },
      {
        "trial_number": 41,
        "trial_index": 261,
        "rt": 1529,
        "correct": true,
        "response": "ArrowLeft",
        "congruent": true,
        "gazeTowards": false,
        "gazeCondition": "away",
        "faceOnLeft": false,
        "impliedDirection": 180,
        "testDirection": 180,
        "avgFps": 30,
        "minFps": 29,
        "maxFps": 31,
        "totalFrames": 45,
        "frameRates": 30
      },
      {
        "trial_number": 42,
        "trial_index": 266,
        "rt": 1340,
        "correct": false,
        "response": "ArrowLeft",
        "congruent": true,
        "gazeTowards": false,
        "gazeCondition": "away",
        "faceOnLeft": true,
        "impliedDirection": 0,
        "testDirection": 0,
        "avgFps": 30,
        "minFps": 29,
        "maxFps": 31,
        "totalFrames": 39,
        "frameRates": 30
      },
      {
        "trial_number": 43,
        "trial_index": 271,
        "rt": null,
        "correct": false,
        "response": null,
        "congruent": true,
        "gazeTowards": false,
        "gazeCondition": "away",
        "faceOnLeft": false,
        "impliedDirection": 180,
        "testDirection": 180,
        "avgFps": 30,
        "minFps": 29,
        "maxFps": 31,
        "totalFrames": 59,
        "frameRates": 30
      },
      {
        "trial_number": 44,
        "trial_index": 276,
        "rt": 898,
        "correct": true,
        "response": "ArrowRight",
        "congruent": false,
        "gazeTowards": false,
        "gazeCondition": "away",
        "faceOnLeft": false,
        "impliedDirection": 180,
        "testDirection": 0,
        "avgFps": 30,
        "minFps": 29,
        "maxFps": 30,
        "totalFrames": 26,
        "frameRates": 30
      },
      {
        "trial_number": 45,
        "trial_index": 281,
        "rt": 734,
        "correct": true,
        "response": "ArrowLeft",
        "congruent": false,
        "gazeTowards": true,
        "gazeCondition": "towards",
        "faceOnLeft": true,
        "impliedDirection": 0,
        "testDirection": 180,
        "avgFps": 30,
        "minFps": 29,
        "maxFps": 31,
        "totalFrames": 21,
        "frameRates": 30
      },
      {
        "trial_number": 46,
        "trial_index": 286,
        "rt": 1057,
        "correct": true,
        "response": "ArrowLeft",
        "congruent": false,
        "gazeTowards": false,
        "gazeCondition": "away",
        "faceOnLeft": true,
        "impliedDirection": 0,
        "testDirection": 180,
        "avgFps": 30,
        "minFps": 29,
        "maxFps": 31,
        "totalFrames": 31,
        "frameRates": 30
      },
      {
        "trial_number": 47,
        "trial_index": 294,
        "rt": 822,
        "correct": true,
        "response": "ArrowRight",
        "congruent": true,
        "gazeTowards": false,
        "gazeCondition": "away",
        "faceOnLeft": true,
        "impliedDirection": 0,
        "testDirection": 0,
        "avgFps": 30,
        "minFps": 29,
        "maxFps": 30,
        "totalFrames": 24,
        "frameRates": 30
      },
      {
        "trial_number": 48,
        "trial_index": 299,
        "rt": 1014,
        "correct": true,
        "response": "ArrowLeft",
        "congruent": false,
        "gazeTowards": false,
        "gazeCondition": "away",
        "faceOnLeft": true,
        "impliedDirection": 0,
        "testDirection": 180,
        "avgFps": 30,
        "minFps": 29,
        "maxFps": 31,
        "totalFrames": 30,
        "frameRates": 30
      },
      {
        "trial_number": 49,
        "trial_index": 304,
        "rt": 791,
        "correct": true,
        "response": "ArrowLeft",
        "congruent": false,
        "gazeTowards": false,
        "gazeCondition": "away",
        "faceOnLeft": true,
        "impliedDirection": 0,
        "testDirection": 180,
        "avgFps": 30,
        "minFps": 29,
        "maxFps": 31,
        "totalFrames": 23,
        "frameRates": 30
      },
      {
        "trial_number": 50,
        "trial_index": 309,
        "rt": 791,
        "correct": true,
        "response": "ArrowRight",
        "congruent": true,
        "gazeTowards": true,
        "gazeCondition": "towards",
        "faceOnLeft": true,
        "impliedDirection": 0,
        "testDirection": 0,
        "avgFps": 30,
        "minFps": 29,
        "maxFps": 31,
        "totalFrames": 23,
        "frameRates": 30
      },
      {
        "trial_number": 51,
        "trial_index": 314,
        "rt": 1098,
        "correct": true,
        "response": "ArrowRight",
        "congruent": true,
        "gazeTowards": false,
        "gazeCondition": "away",
        "faceOnLeft": true,
        "impliedDirection": 0,
        "testDirection": 0,
        "avgFps": 30,
        "minFps": 29,
        "maxFps": 31,
        "totalFrames": 32,
        "frameRates": 30
      },
      {
        "trial_number": 52,
        "trial_index": 319,
        "rt": 1265,
        "correct": true,
        "response": "ArrowLeft",
        "congruent": false,
        "gazeTowards": false,
        "gazeCondition": "away",
        "faceOnLeft": true,
        "impliedDirection": 0,
        "testDirection": 180,
        "avgFps": 30,
        "minFps": 29,
        "maxFps": 31,
        "totalFrames": 37,
        "frameRates": 30
      },
      {
        "trial_number": 53,
        "trial_index": 324,
        "rt": 1089,
        "correct": true,
        "response": "ArrowLeft",
        "congruent": true,
        "gazeTowards": false,
        "gazeCondition": "away",
        "faceOnLeft": false,
        "impliedDirection": 180,
        "testDirection": 180,
        "avgFps": 30,
        "minFps": 29,
        "maxFps": 31,
        "totalFrames": 32,
        "frameRates": 30
      },
      {
        "trial_number": 54,
        "trial_index": 329,
        "rt": 774,
        "correct": true,
        "response": "ArrowRight",
        "congruent": false,
        "gazeTowards": true,
        "gazeCondition": "towards",
        "faceOnLeft": false,
        "impliedDirection": 180,
        "testDirection": 0,
        "avgFps": 30,
        "minFps": 29,
        "maxFps": 31,
        "totalFrames": 22,
        "frameRates": 30
      },
      {
        "trial_number": 55,
        "trial_index": 334,
        "rt": 863,
        "correct": true,
        "response": "ArrowLeft",
        "congruent": false,
        "gazeTowards": true,
        "gazeCondition": "towards",
        "faceOnLeft": true,
        "impliedDirection": 0,
        "testDirection": 180,
        "avgFps": 30,
        "minFps": 29,
        "maxFps": 31,
        "totalFrames": 25,
        "frameRates": 30
      },
      {
        "trial_number": 56,
        "trial_index": 339,
        "rt": 1685,
        "correct": true,
        "response": "ArrowLeft",
        "congruent": false,
        "gazeTowards": false,
        "gazeCondition": "away",
        "faceOnLeft": true,
        "impliedDirection": 0,
        "testDirection": 180,
        "avgFps": 30,
        "minFps": 29,
        "maxFps": 31,
        "totalFrames": 50,
        "frameRates": 30
      },
      {
        "trial_number": 57,
        "trial_index": 344,
        "rt": 1495,
        "correct": true,
        "response": "ArrowRight",
        "congruent": false,
        "gazeTowards": true,
        "gazeCondition": "towards",
        "faceOnLeft": false,
        "impliedDirection": 180,
        "testDirection": 0,
        "avgFps": 30,
        "minFps": 29,
        "maxFps": 31,
        "totalFrames": 44,
        "frameRates": 30
      },
      {
        "trial_number": 58,
        "trial_index": 352,
        "rt": 1085,
        "correct": true,
        "response": "ArrowRight",
        "congruent": false,
        "gazeTowards": false,
        "gazeCondition": "away",
        "faceOnLeft": false,
        "impliedDirection": 180,
        "testDirection": 0,
        "avgFps": 30,
        "minFps": 29,
        "maxFps": 31,
        "totalFrames": 31,
        "frameRates": 30
      },
      {
        "trial_number": 59,
        "trial_index": 357,
        "rt": 956,
        "correct": true,
        "response": "ArrowLeft",
        "congruent": true,
        "gazeTowards": false,
        "gazeCondition": "away",
        "faceOnLeft": false,
        "impliedDirection": 180,
        "testDirection": 180,
        "avgFps": 30,
        "minFps": 29,
        "maxFps": 31,
        "totalFrames": 28,
        "frameRates": 30
      },
      {
        "trial_number": 60,
        "trial_index": 362,
        "rt": 1222,
        "correct": true,
        "response": "ArrowLeft",
        "congruent": false,
        "gazeTowards": false,
        "gazeCondition": "away",
        "faceOnLeft": true,
        "impliedDirection": 0,
        "testDirection": 180,
        "avgFps": 30,
        "minFps": 29,
        "maxFps": 31,
        "totalFrames": 36,
        "frameRates": 30
      },
      {
        "trial_number": 61,
        "trial_index": 367,
        "rt": 1152,
        "correct": true,
        "response": "ArrowRight",
        "congruent": true,
        "gazeTowards": false,
        "gazeCondition": "away",
        "faceOnLeft": true,
        "impliedDirection": 0,
        "testDirection": 0,
        "avgFps": 30,
        "minFps": 29,
        "maxFps": 31,
        "totalFrames": 33,
        "frameRates": 30
      },
      {
        "trial_number": 62,
        "trial_index": 373,
        "rt": 986,
        "correct": true,
        "response": "ArrowLeft",
        "congruent": false,
        "gazeTowards": true,
        "gazeCondition": "towards",
        "faceOnLeft": true,
        "impliedDirection": 0,
        "testDirection": 180,
        "avgFps": 30,
        "minFps": 29,
        "maxFps": 31,
        "totalFrames": 28,
        "frameRates": 30
      },
      {
        "trial_number": 63,
        "trial_index": 378,
        "rt": 992,
        "correct": true,
        "response": "ArrowLeft",
        "congruent": true,
        "gazeTowards": false,
        "gazeCondition": "away",
        "faceOnLeft": false,
        "impliedDirection": 180,
        "testDirection": 180,
        "avgFps": 30,
        "minFps": 29,
        "maxFps": 31,
        "totalFrames": 29,
        "frameRates": 30
      },
      {
        "trial_number": 64,
        "trial_index": 383,
        "rt": 866,
        "correct": true,
        "response": "ArrowLeft",
        "congruent": false,
        "gazeTowards": true,
        "gazeCondition": "towards",
        "faceOnLeft": true,
        "impliedDirection": 0,
        "testDirection": 180,
        "avgFps": 30,
        "minFps": 29,
        "maxFps": 31,
        "totalFrames": 25,
        "frameRates": 30
      },
      {
        "trial_number": 65,
        "trial_index": 388,
        "rt": 1433,
        "correct": true,
        "response": "ArrowRight",
        "congruent": false,
        "gazeTowards": true,
        "gazeCondition": "towards",
        "faceOnLeft": false,
        "impliedDirection": 180,
        "testDirection": 0,
        "avgFps": 30,
        "minFps": 29,
        "maxFps": 31,
        "totalFrames": 42,
        "frameRates": 30
      },
      {
        "trial_number": 66,
        "trial_index": 393,
        "rt": 851,
        "correct": true,
        "response": "ArrowLeft",
        "congruent": true,
        "gazeTowards": false,
        "gazeCondition": "away",
        "faceOnLeft": false,
        "impliedDirection": 180,
        "testDirection": 180,
        "avgFps": 30,
        "minFps": 29,
        "maxFps": 31,
        "totalFrames": 25,
        "frameRates": 30
      },
      {
        "trial_number": 67,
        "trial_index": 398,
        "rt": 1112,
        "correct": true,
        "response": "ArrowLeft",
        "congruent": false,
        "gazeTowards": true,
        "gazeCondition": "towards",
        "faceOnLeft": true,
        "impliedDirection": 0,
        "testDirection": 180,
        "avgFps": 30,
        "minFps": 29,
        "maxFps": 31,
        "totalFrames": 33,
        "frameRates": 30
      },
      {
        "trial_number": 68,
        "trial_index": 403,
        "rt": 1409,
        "correct": true,
        "response": "ArrowLeft",
        "congruent": false,
        "gazeTowards": true,
        "gazeCondition": "towards",
        "faceOnLeft": true,
        "impliedDirection": 0,
        "testDirection": 180,
        "avgFps": 30,
        "minFps": 29,
        "maxFps": 31,
        "totalFrames": 41,
        "frameRates": 30
      },
      {
        "trial_number": 69,
        "trial_index": 408,
        "rt": 1355,
        "correct": true,
        "response": "ArrowLeft",
        "congruent": true,
        "gazeTowards": true,
        "gazeCondition": "towards",
        "faceOnLeft": false,
        "impliedDirection": 180,
        "testDirection": 180,
        "avgFps": 30,
        "minFps": 24,
        "maxFps": 42,
        "totalFrames": 40,
        "frameRates": 30
      },
      {
        "trial_number": 70,
        "trial_index": 413,
        "rt": 1135,
        "correct": true,
        "response": "ArrowRight",
        "congruent": true,
        "gazeTowards": true,
        "gazeCondition": "towards",
        "faceOnLeft": true,
        "impliedDirection": 0,
        "testDirection": 0,
        "avgFps": 30,
        "minFps": 29,
        "maxFps": 31,
        "totalFrames": 33,
        "frameRates": 30
      },
      {
        "trial_number": 71,
        "trial_index": 418,
        "rt": 1037,
        "correct": true,
        "response": "ArrowLeft",
        "congruent": true,
        "gazeTowards": true,
        "gazeCondition": "towards",
        "faceOnLeft": false,
        "impliedDirection": 180,
        "testDirection": 180,
        "avgFps": 30,
        "minFps": 29,
        "maxFps": 31,
        "totalFrames": 30,
        "frameRates": 30
      },
      {
        "trial_number": 72,
        "trial_index": 426,
        "rt": 1027,
        "correct": true,
        "response": "ArrowLeft",
        "congruent": false,
        "gazeTowards": false,
        "gazeCondition": "away",
        "faceOnLeft": true,
        "impliedDirection": 0,
        "testDirection": 180,
        "avgFps": 30,
        "minFps": 29,
        "maxFps": 31,
        "totalFrames": 30,
        "frameRates": 30
      },
      {
        "trial_number": 73,
        "trial_index": 431,
        "rt": 1355,
        "correct": false,
        "response": "ArrowLeft",
        "congruent": true,
        "gazeTowards": false,
        "gazeCondition": "away",
        "faceOnLeft": true,
        "impliedDirection": 0,
        "testDirection": 0,
        "avgFps": 30,
        "minFps": 29,
        "maxFps": 31,
        "totalFrames": 40,
        "frameRates": 30
      },
      {
        "trial_number": 74,
        "trial_index": 436,
        "rt": 1624,
        "correct": true,
        "response": "ArrowRight",
        "congruent": false,
        "gazeTowards": false,
        "gazeCondition": "away",
        "faceOnLeft": false,
        "impliedDirection": 180,
        "testDirection": 0,
        "avgFps": 30,
        "minFps": 29,
        "maxFps": 31,
        "totalFrames": 48,
        "frameRates": 30
      },
      {
        "trial_number": 75,
        "trial_index": 444,
        "rt": 1288,
        "correct": true,
        "response": "ArrowRight",
        "congruent": false,
        "gazeTowards": true,
        "gazeCondition": "towards",
        "faceOnLeft": false,
        "impliedDirection": 180,
        "testDirection": 0,
        "avgFps": 30,
        "minFps": 29,
        "maxFps": 31,
        "totalFrames": 38,
        "frameRates": 30
      },
      {
        "trial_number": 76,
        "trial_index": 449,
        "rt": 1425,
        "correct": false,
        "response": "ArrowLeft",
        "congruent": false,
        "gazeTowards": true,
        "gazeCondition": "towards",
        "faceOnLeft": false,
        "impliedDirection": 180,
        "testDirection": 0,
        "avgFps": 30,
        "minFps": 29,
        "maxFps": 31,
        "totalFrames": 42,
        "frameRates": 30
      },
      {
        "trial_number": 77,
        "trial_index": 457,
        "rt": 929,
        "correct": true,
        "response": "ArrowLeft",
        "congruent": true,
        "gazeTowards": true,
        "gazeCondition": "towards",
        "faceOnLeft": false,
        "impliedDirection": 180,
        "testDirection": 180,
        "avgFps": 30,
        "minFps": 27,
        "maxFps": 33,
        "totalFrames": 27,
        "frameRates": 30
      },
      {
        "trial_number": 78,
        "trial_index": 462,
        "rt": 1078,
        "correct": true,
        "response": "ArrowLeft",
        "congruent": false,
        "gazeTowards": true,
        "gazeCondition": "towards",
        "faceOnLeft": true,
        "impliedDirection": 0,
        "testDirection": 180,
        "avgFps": 30,
        "minFps": 29,
        "maxFps": 31,
        "totalFrames": 31,
        "frameRates": 30
      },
      {
        "trial_number": 79,
        "trial_index": 467,
        "rt": 1287,
        "correct": true,
        "response": "ArrowLeft",
        "congruent": true,
        "gazeTowards": false,
        "gazeCondition": "away",
        "faceOnLeft": false,
        "impliedDirection": 180,
        "testDirection": 180,
        "avgFps": 30,
        "minFps": 29,
        "maxFps": 31,
        "totalFrames": 38,
        "frameRates": 30
      },
      {
        "trial_number": 80,
        "trial_index": 472,
        "rt": 985,
        "correct": true,
        "response": "ArrowLeft",
        "congruent": true,
        "gazeTowards": false,
        "gazeCondition": "away",
        "faceOnLeft": false,
        "impliedDirection": 180,
        "testDirection": 180,
        "avgFps": 30,
        "minFps": 29,
        "maxFps": 31,
        "totalFrames": 29,
        "frameRates": 30
      },
      {
        "trial_number": 81,
        "trial_index": 477,
        "rt": 1170,
        "correct": true,
        "response": "ArrowRight",
        "congruent": true,
        "gazeTowards": false,
        "gazeCondition": "away",
        "faceOnLeft": true,
        "impliedDirection": 0,
        "testDirection": 0,
        "avgFps": 30,
        "minFps": 29,
        "maxFps": 31,
        "totalFrames": 34,
        "frameRates": 30
      },
      {
        "trial_number": 82,
        "trial_index": 482,
        "rt": 1149,
        "correct": true,
        "response": "ArrowRight",
        "congruent": true,
        "gazeTowards": true,
        "gazeCondition": "towards",
        "faceOnLeft": true,
        "impliedDirection": 0,
        "testDirection": 0,
        "avgFps": 30,
        "minFps": 29,
        "maxFps": 31,
        "totalFrames": 34,
        "frameRates": 30
      },
      {
        "trial_number": 83,
        "trial_index": 487,
        "rt": null,
        "correct": false,
        "response": null,
        "congruent": true,
        "gazeTowards": false,
        "gazeCondition": "away",
        "faceOnLeft": true,
        "impliedDirection": 0,
        "testDirection": 0,
        "avgFps": 30,
        "minFps": 29,
        "maxFps": 31,
        "totalFrames": 59,
        "frameRates": 30
      },
      {
        "trial_number": 84,
        "trial_index": 492,
        "rt": 1237,
        "correct": true,
        "response": "ArrowRight",
        "congruent": true,
        "gazeTowards": true,
        "gazeCondition": "towards",
        "faceOnLeft": true,
        "impliedDirection": 0,
        "testDirection": 0,
        "avgFps": 30,
        "minFps": 29,
        "maxFps": 31,
        "totalFrames": 36,
        "frameRates": 30
      },
      {
        "trial_number": 85,
        "trial_index": 497,
        "rt": 1191,
        "correct": true,
        "response": "ArrowRight",
        "congruent": true,
        "gazeTowards": true,
        "gazeCondition": "towards",
        "faceOnLeft": true,
        "impliedDirection": 0,
        "testDirection": 0,
        "avgFps": 30,
        "minFps": 29,
        "maxFps": 31,
        "totalFrames": 35,
        "frameRates": 30
      },
      {
        "trial_number": 86,
        "trial_index": 502,
        "rt": 907,
        "correct": true,
        "response": "ArrowRight",
        "congruent": true,
        "gazeTowards": false,
        "gazeCondition": "away",
        "faceOnLeft": true,
        "impliedDirection": 0,
        "testDirection": 0,
        "avgFps": 30,
        "minFps": 29,
        "maxFps": 30,
        "totalFrames": 26,
        "frameRates": 30
      },
      {
        "trial_number": 87,
        "trial_index": 507,
        "rt": 836,
        "correct": true,
        "response": "ArrowRight",
        "congruent": true,
        "gazeTowards": false,
        "gazeCondition": "away",
        "faceOnLeft": true,
        "impliedDirection": 0,
        "testDirection": 0,
        "avgFps": 30,
        "minFps": 29,
        "maxFps": 31,
        "totalFrames": 24,
        "frameRates": 30
      },
      {
        "trial_number": 88,
        "trial_index": 512,
        "rt": 1019,
        "correct": true,
        "response": "ArrowRight",
        "congruent": false,
        "gazeTowards": true,
        "gazeCondition": "towards",
        "faceOnLeft": false,
        "impliedDirection": 180,
        "testDirection": 0,
        "avgFps": 30,
        "minFps": 29,
        "maxFps": 30,
        "totalFrames": 30,
        "frameRates": 30
      },
      {
        "trial_number": 89,
        "trial_index": 517,
        "rt": 1013,
        "correct": true,
        "response": "ArrowRight",
        "congruent": false,
        "gazeTowards": false,
        "gazeCondition": "away",
        "faceOnLeft": false,
        "impliedDirection": 180,
        "testDirection": 0,
        "avgFps": 30,
        "minFps": 29,
        "maxFps": 31,
        "totalFrames": 29,
        "frameRates": 30
      },
      {
        "trial_number": 90,
        "trial_index": 525,
        "rt": 1518,
        "correct": true,
        "response": "ArrowLeft",
        "congruent": false,
        "gazeTowards": false,
        "gazeCondition": "away",
        "faceOnLeft": true,
        "impliedDirection": 0,
        "testDirection": 180,
        "avgFps": 30,
        "minFps": 29,
        "maxFps": 31,
        "totalFrames": 45,
        "frameRates": 30
      },
      {
        "trial_number": 91,
        "trial_index": 531,
        "rt": 969,
        "correct": true,
        "response": "ArrowLeft",
        "congruent": false,
        "gazeTowards": true,
        "gazeCondition": "towards",
        "faceOnLeft": true,
        "impliedDirection": 0,
        "testDirection": 180,
        "avgFps": 30,
        "minFps": 29,
        "maxFps": 31,
        "totalFrames": 28,
        "frameRates": 30
      },
      {
        "trial_number": 92,
        "trial_index": 536,
        "rt": 1444,
        "correct": true,
        "response": "ArrowLeft",
        "congruent": true,
        "gazeTowards": true,
        "gazeCondition": "towards",
        "faceOnLeft": false,
        "impliedDirection": 180,
        "testDirection": 180,
        "avgFps": 30,
        "minFps": 29,
        "maxFps": 31,
        "totalFrames": 42,
        "frameRates": 30
      },
      {
        "trial_number": 93,
        "trial_index": 541,
        "rt": 699,
        "correct": true,
        "response": "ArrowLeft",
        "congruent": false,
        "gazeTowards": true,
        "gazeCondition": "towards",
        "faceOnLeft": true,
        "impliedDirection": 0,
        "testDirection": 180,
        "avgFps": 30,
        "minFps": 29,
        "maxFps": 31,
        "totalFrames": 20,
        "frameRates": 30
      },
      {
        "trial_number": 94,
        "trial_index": 546,
        "rt": 861,
        "correct": true,
        "response": "ArrowRight",
        "congruent": false,
        "gazeTowards": false,
        "gazeCondition": "away",
        "faceOnLeft": false,
        "impliedDirection": 180,
        "testDirection": 0,
        "avgFps": 30,
        "minFps": 29,
        "maxFps": 31,
        "totalFrames": 25,
        "frameRates": 30
      },
      {
        "trial_number": 95,
        "trial_index": 551,
        "rt": 1371,
        "correct": true,
        "response": "ArrowLeft",
        "congruent": false,
        "gazeTowards": true,
        "gazeCondition": "towards",
        "faceOnLeft": true,
        "impliedDirection": 0,
        "testDirection": 180,
        "avgFps": 30,
        "minFps": 29,
        "maxFps": 31,
        "totalFrames": 40,
        "frameRates": 30
      },
      {
        "trial_number": 96,
        "trial_index": 556,
        "rt": 1250,
        "correct": true,
        "response": "ArrowLeft",
        "congruent": false,
        "gazeTowards": true,
        "gazeCondition": "towards",
        "faceOnLeft": true,
        "impliedDirection": 0,
        "testDirection": 180,
        "avgFps": 30,
        "minFps": 29,
        "maxFps": 31,
        "totalFrames": 36,
        "frameRates": 30
      },
      {
        "trial_number": 97,
        "trial_index": 561,
        "rt": 1332,
        "correct": true,
        "response": "ArrowLeft",
        "congruent": false,
        "gazeTowards": false,
        "gazeCondition": "away",
        "faceOnLeft": true,
        "impliedDirection": 0,
        "testDirection": 180,
        "avgFps": 30,
        "minFps": 29,
        "maxFps": 31,
        "totalFrames": 39,
        "frameRates": 30
      },
      {
        "trial_number": 98,
        "trial_index": 566,
        "rt": 824,
        "correct": true,
        "response": "ArrowRight",
        "congruent": false,
        "gazeTowards": true,
        "gazeCondition": "towards",
        "faceOnLeft": false,
        "impliedDirection": 180,
        "testDirection": 0,
        "avgFps": 30,
        "minFps": 29,
        "maxFps": 31,
        "totalFrames": 24,
        "frameRates": 30
      },
      {
        "trial_number": 99,
        "trial_index": 571,
        "rt": 1596,
        "correct": true,
        "response": "ArrowRight",
        "congruent": true,
        "gazeTowards": true,
        "gazeCondition": "towards",
        "faceOnLeft": true,
        "impliedDirection": 0,
        "testDirection": 0,
        "avgFps": 30,
        "minFps": 29,
        "maxFps": 31,
        "totalFrames": 47,
        "frameRates": 30
      },
      {
        "trial_number": 100,
        "trial_index": 576,
        "rt": 898,
        "correct": true,
        "response": "ArrowRight",
        "congruent": false,
        "gazeTowards": true,
        "gazeCondition": "towards",
        "faceOnLeft": false,
        "impliedDirection": 180,
        "testDirection": 0,
        "avgFps": 30,
        "minFps": 29,
        "maxFps": 31,
        "totalFrames": 26,
        "frameRates": 30
      },
      {
        "trial_number": 101,
        "trial_index": 581,
        "rt": 1403,
        "correct": true,
        "response": "ArrowRight",
        "congruent": true,
        "gazeTowards": false,
        "gazeCondition": "away",
        "faceOnLeft": true,
        "impliedDirection": 0,
        "testDirection": 0,
        "avgFps": 30,
        "minFps": 29,
        "maxFps": 31,
        "totalFrames": 41,
        "frameRates": 30
      },
      {
        "trial_number": 102,
        "trial_index": 586,
        "rt": 1174,
        "correct": true,
        "response": "ArrowRight",
        "congruent": false,
        "gazeTowards": false,
        "gazeCondition": "away",
        "faceOnLeft": false,
        "impliedDirection": 180,
        "testDirection": 0,
        "avgFps": 30,
        "minFps": 29,
        "maxFps": 31,
        "totalFrames": 34,
        "frameRates": 30
      },
      {
        "trial_number": 103,
        "trial_index": 594,
        "rt": 1097,
        "correct": true,
        "response": "ArrowRight",
        "congruent": false,
        "gazeTowards": true,
        "gazeCondition": "towards",
        "faceOnLeft": false,
        "impliedDirection": 180,
        "testDirection": 0,
        "avgFps": 30,
        "minFps": 29,
        "maxFps": 31,
        "totalFrames": 32,
        "frameRates": 30
      },
      {
        "trial_number": 104,
        "trial_index": 599,
        "rt": 1598,
        "correct": true,
        "response": "ArrowLeft",
        "congruent": false,
        "gazeTowards": false,
        "gazeCondition": "away",
        "faceOnLeft": true,
        "impliedDirection": 0,
        "testDirection": 180,
        "avgFps": 30,
        "minFps": 29,
        "maxFps": 31,
        "totalFrames": 47,
        "frameRates": 30
      },
      {
        "trial_number": 105,
        "trial_index": 604,
        "rt": 829,
        "correct": true,
        "response": "ArrowLeft",
        "congruent": true,
        "gazeTowards": true,
        "gazeCondition": "towards",
        "faceOnLeft": false,
        "impliedDirection": 180,
        "testDirection": 180,
        "avgFps": 30,
        "minFps": 29,
        "maxFps": 31,
        "totalFrames": 24,
        "frameRates": 30
      },
      {
        "trial_number": 106,
        "trial_index": 609,
        "rt": 1017,
        "correct": true,
        "response": "ArrowRight",
        "congruent": false,
        "gazeTowards": true,
        "gazeCondition": "towards",
        "faceOnLeft": false,
        "impliedDirection": 180,
        "testDirection": 0,
        "avgFps": 30,
        "minFps": 29,
        "maxFps": 31,
        "totalFrames": 29,
        "frameRates": 30
      },
      {
        "trial_number": 107,
        "trial_index": 614,
        "rt": 1091,
        "correct": true,
        "response": "ArrowRight",
        "congruent": false,
        "gazeTowards": false,
        "gazeCondition": "away",
        "faceOnLeft": false,
        "impliedDirection": 180,
        "testDirection": 0,
        "avgFps": 30,
        "minFps": 29,
        "maxFps": 31,
        "totalFrames": 32,
        "frameRates": 30
      },
      {
        "trial_number": 108,
        "trial_index": 622,
        "rt": 974,
        "correct": true,
        "response": "ArrowRight",
        "congruent": true,
        "gazeTowards": false,
        "gazeCondition": "away",
        "faceOnLeft": true,
        "impliedDirection": 0,
        "testDirection": 0,
        "avgFps": 30,
        "minFps": 29,
        "maxFps": 31,
        "totalFrames": 28,
        "frameRates": 30
      },
      {
        "trial_number": 109,
        "trial_index": 627,
        "rt": 713,
        "correct": true,
        "response": "ArrowRight",
        "congruent": false,
        "gazeTowards": false,
        "gazeCondition": "away",
        "faceOnLeft": false,
        "impliedDirection": 180,
        "testDirection": 0,
        "avgFps": 30,
        "minFps": 29,
        "maxFps": 31,
        "totalFrames": 20,
        "frameRates": 30
      },
      {
        "trial_number": 110,
        "trial_index": 632,
        "rt": 1088,
        "correct": true,
        "response": "ArrowLeft",
        "congruent": true,
        "gazeTowards": true,
        "gazeCondition": "towards",
        "faceOnLeft": false,
        "impliedDirection": 180,
        "testDirection": 180,
        "avgFps": 30,
        "minFps": 29,
        "maxFps": 31,
        "totalFrames": 32,
        "frameRates": 30
      },
      {
        "trial_number": 111,
        "trial_index": 637,
        "rt": 684,
        "correct": false,
        "response": "ArrowRight",
        "congruent": false,
        "gazeTowards": false,
        "gazeCondition": "away",
        "faceOnLeft": true,
        "impliedDirection": 0,
        "testDirection": 180,
        "avgFps": 30,
        "minFps": 29,
        "maxFps": 31,
        "totalFrames": 20,
        "frameRates": 30
      },
      {
        "trial_number": 112,
        "trial_index": 642,
        "rt": 800,
        "correct": true,
        "response": "ArrowLeft",
        "congruent": false,
        "gazeTowards": false,
        "gazeCondition": "away",
        "faceOnLeft": true,
        "impliedDirection": 0,
        "testDirection": 180,
        "avgFps": 30,
        "minFps": 29,
        "maxFps": 30,
        "totalFrames": 23,
        "frameRates": 30
      },
      {
        "trial_number": 113,
        "trial_index": 647,
        "rt": 1343,
        "correct": false,
        "response": "ArrowLeft",
        "congruent": true,
        "gazeTowards": true,
        "gazeCondition": "towards",
        "faceOnLeft": true,
        "impliedDirection": 0,
        "testDirection": 0,
        "avgFps": 30,
        "minFps": 29,
        "maxFps": 30,
        "totalFrames": 39,
        "frameRates": 30
      },
      {
        "trial_number": 114,
        "trial_index": 652,
        "rt": 837,
        "correct": true,
        "response": "ArrowLeft",
        "congruent": true,
        "gazeTowards": false,
        "gazeCondition": "away",
        "faceOnLeft": false,
        "impliedDirection": 180,
        "testDirection": 180,
        "avgFps": 30,
        "minFps": 29,
        "maxFps": 31,
        "totalFrames": 24,
        "frameRates": 30
      },
      {
        "trial_number": 115,
        "trial_index": 660,
        "rt": 1007,
        "correct": true,
        "response": "ArrowRight",
        "congruent": false,
        "gazeTowards": false,
        "gazeCondition": "away",
        "faceOnLeft": false,
        "impliedDirection": 180,
        "testDirection": 0,
        "avgFps": 30,
        "minFps": 29,
        "maxFps": 31,
        "totalFrames": 29,
        "frameRates": 30
      },
      {
        "trial_number": 116,
        "trial_index": 665,
        "rt": 1066,
        "correct": true,
        "response": "ArrowLeft",
        "congruent": true,
        "gazeTowards": true,
        "gazeCondition": "towards",
        "faceOnLeft": false,
        "impliedDirection": 180,
        "testDirection": 180,
        "avgFps": 30,
        "minFps": 29,
        "maxFps": 31,
        "totalFrames": 31,
        "frameRates": 30
      },
      {
        "trial_number": 117,
        "trial_index": 670,
        "rt": 858,
        "correct": true,
        "response": "ArrowRight",
        "congruent": false,
        "gazeTowards": true,
        "gazeCondition": "towards",
        "faceOnLeft": false,
        "impliedDirection": 180,
        "testDirection": 0,
        "avgFps": 30,
        "minFps": 29,
        "maxFps": 31,
        "totalFrames": 25,
        "frameRates": 30
      },
      {
        "trial_number": 118,
        "trial_index": 678,
        "rt": 1221,
        "correct": true,
        "response": "ArrowLeft",
        "congruent": false,
        "gazeTowards": true,
        "gazeCondition": "towards",
        "faceOnLeft": true,
        "impliedDirection": 0,
        "testDirection": 180,
        "avgFps": 30,
        "minFps": 29,
        "maxFps": 31,
        "totalFrames": 36,
        "frameRates": 30
      },
      {
        "trial_number": 119,
        "trial_index": 683,
        "rt": 1292,
        "correct": true,
        "response": "ArrowLeft",
        "congruent": true,
        "gazeTowards": true,
        "gazeCondition": "towards",
        "faceOnLeft": false,
        "impliedDirection": 180,
        "testDirection": 180,
        "avgFps": 30,
        "minFps": 29,
        "maxFps": 31,
        "totalFrames": 38,
        "frameRates": 30
      }
    ],
    "catch": {
      "total": 12,
      "correct": 12,
      "accuracy": 100,
      "meanRT": 1110,
      "trials": [
        {
          "trial_number": 0,
          "trial_index": 78,
          "rt": 1169,
          "correct": true,
          "colorTarget": "tree",
          "gazeTowards": true,
          "gazeCondition": "towards",
          "faceOnLeft": true
        },
        {
          "trial_number": 1,
          "trial_index": 116,
          "rt": 1348,
          "correct": true,
          "colorTarget": "face",
          "gazeTowards": true,
          "gazeCondition": "towards",
          "faceOnLeft": false
        },
        {
          "trial_number": 2,
          "trial_index": 290,
          "rt": 1274,
          "correct": true,
          "colorTarget": "face",
          "gazeTowards": true,
          "gazeCondition": "towards",
          "faceOnLeft": true
        },
        {
          "trial_number": 3,
          "trial_index": 348,
          "rt": 916,
          "correct": true,
          "colorTarget": "face",
          "gazeTowards": true,
          "gazeCondition": "towards",
          "faceOnLeft": true
        },
        {
          "trial_number": 4,
          "trial_index": 422,
          "rt": 966,
          "correct": true,
          "colorTarget": "face",
          "gazeTowards": true,
          "gazeCondition": "towards",
          "faceOnLeft": false
        },
        {
          "trial_number": 5,
          "trial_index": 440,
          "rt": 948,
          "correct": true,
          "colorTarget": "tree",
          "gazeTowards": true,
          "gazeCondition": "towards",
          "faceOnLeft": false
        },
        {
          "trial_number": 6,
          "trial_index": 453,
          "rt": 665,
          "correct": true,
          "colorTarget": "tree",
          "gazeTowards": true,
          "gazeCondition": "towards",
          "faceOnLeft": true
        },
        {
          "trial_number": 7,
          "trial_index": 521,
          "rt": 1973,
          "correct": true,
          "colorTarget": "face",
          "gazeTowards": false,
          "gazeCondition": "away",
          "faceOnLeft": true
        },
        {
          "trial_number": 8,
          "trial_index": 590,
          "rt": 1424,
          "correct": true,
          "colorTarget": "tree",
          "gazeTowards": true,
          "gazeCondition": "towards",
          "faceOnLeft": true
        },
        {
          "trial_number": 9,
          "trial_index": 618,
          "rt": 845,
          "correct": true,
          "colorTarget": "face",
          "gazeTowards": true,
          "gazeCondition": "towards",
          "faceOnLeft": true
        },
        {
          "trial_number": 10,
          "trial_index": 656,
          "rt": 834,
          "correct": true,
          "colorTarget": "tree",
          "gazeTowards": true,
          "gazeCondition": "towards",
          "faceOnLeft": false
        },
        {
          "trial_number": 11,
          "trial_index": 674,
          "rt": 957,
          "correct": true,
          "colorTarget": "tree",
          "gazeTowards": true,
          "gazeCondition": "towards",
          "faceOnLeft": false
        }
      ]
    },
    "practice": {
      "trials": [
        {
          "trial_number": 0,
          "rt": 1456,
          "correct": true,
          "direction": 180
        },
        {
          "trial_number": 1,
          "rt": 866,
          "correct": true,
          "direction": 0
        },
        {
          "trial_number": 2,
          "rt": null,
          "correct": false,
          "direction": 180
        },
        {
          "trial_number": 3,
          "rt": 1873,
          "correct": true,
          "direction": 180
        },
        {
          "trial_number": 4,
          "rt": 924,
          "correct": true,
          "direction": 0
        },
        {
          "trial_number": 5,
          "rt": 1122,
          "correct": true,
          "direction": 0
        },
        {
          "trial_number": 6,
          "rt": 762,
          "correct": true,
          "direction": 0
        },
        {
          "trial_number": 7,
          "rt": 848,
          "correct": true,
          "direction": 0
        },
        {
          "trial_number": 8,
          "rt": 1478,
          "correct": true,
          "direction": 180
        },
        {
          "trial_number": 9,
          "rt": 1849,
          "correct": true,
          "direction": 180
        }
      ],
      "meanRT": 1242,
      "accuracy": 90
    }
  }
}