{
  "experiment": "rdk-face-1",
  "UUID": "cedbfabb-babc-4d86-b0c5-2888d37865fc",
  "data": {
    "session": {
      "experiment_version": "1.8.6",
      "treatment": "faces_towards_away_catch",
      "file_version": "1.8.6",
      "totalTrials": 120,
      "totalTrialsIncludingCatch": 132,
      "conditions": {
        "gazeTowardsCount": 60,
        "gazeAwayCount": 60,
        "gazeTowardsAccuracy": 95,
        "gazeAwayAccuracy": 90
      },
      "session_group": "default",
      "browserData": {
        "os": "Windows",
        "browser": "Firefox",
        "screenResolution": "2560x1440",
        "browserViewport": "2560x1440",
        "devicePixelRatio": 1,
        "colorDepth": 24,
        "hardwareConcurrency": 12,
        "deviceMemory": "Unknown",
        "gpuRenderer": "ANGLE (AMD, Radeon R9 200 Series Direct3D11 vs_5_0 ps_5_0), or similar",
        "measuredRefreshRateHz": 148
      },
      "attention": {
        "visibilityEvents": [
          {
            "event": "focus",
            "state": "focused",
            "timestamp": 1772767837488
          },
          {
            "event": "blur",
            "state": "blurred",
            "timestamp": 1772767844657
          },
          {
            "event": "focus",
            "state": "focused",
            "timestamp": 1772767926274
          },
          {
            "event": "blur",
            "state": "blurred",
            "timestamp": 1772768133671
          },
          {
            "event": "focus",
            "state": "focused",
            "timestamp": 1772768136119
          },
          {
            "event": "blur",
            "state": "blurred",
            "timestamp": 1772768142525
          },
          {
            "event": "focus",
            "state": "focused",
            "timestamp": 1772768214750
          },
          {
            "event": "blur",
            "state": "blurred",
            "timestamp": 1772768215399
          },
          {
            "event": "focus",
            "state": "focused",
            "timestamp": 1772768220291
          }
        ]
      },
      "calibration": {
        "monitorWidthCm": 38,
        "viewingDistanceCm": 54,
        "pixelsPerDegree": 50
      },
      "parameters": {
        "coherence": 0.4,
        "apertureDeg": 5,
        "densityDotsPerDeg2": 40,
        "dotDiameterDeg": 0.035,
        "dotSpeedDegPerSec": 3,
        "lifetimeMs": 200,
        "fixationDurationMs": 1500,
        "faceDurationMs": 1500,
        "testDurationMs": 2000,
        "catchResponseMs": 3000
      },
      "prolific": {
        "prolificPid": "5e0ec7e71d6b465f1884e2a6",
        "studyId": "",
        "sessionId": ""
      },
      "timing": {
        "startTime": "2026-03-06T03:30:37.479Z",
        "endTime": "2026-03-06T03:45:05.260Z",
        "totalElapsedTimeMs": 867781
      }
    },
    "trials": [
      {
        "trial_number": 0,
        "trial_index": 49,
        "rt": 871,
        "correct": true,
        "response": "ArrowRight",
        "congruent": true,
        "gazeTowards": true,
        "gazeCondition": "towards",
        "faceOnLeft": true,
        "impliedDirection": 0,
        "testDirection": 0,
        "avgFps": 161,
        "minFps": 33,
        "maxFps": 3125,
        "totalFrames": 140,
        "frameRates": 161
      },
      {
        "trial_number": 1,
        "trial_index": 57,
        "rt": 744,
        "correct": true,
        "response": "ArrowLeft",
        "congruent": false,
        "gazeTowards": false,
        "gazeCondition": "away",
        "faceOnLeft": true,
        "impliedDirection": 0,
        "testDirection": 180,
        "avgFps": 166,
        "minFps": 164,
        "maxFps": 5000,
        "totalFrames": 123,
        "frameRates": 166
      },
      {
        "trial_number": 2,
        "trial_index": 65,
        "rt": 586,
        "correct": true,
        "response": "ArrowLeft",
        "congruent": true,
        "gazeTowards": false,
        "gazeCondition": "away",
        "faceOnLeft": false,
        "impliedDirection": 180,
        "testDirection": 180,
        "avgFps": 166,
        "minFps": 164,
        "maxFps": 472,
        "totalFrames": 97,
        "frameRates": 166
      },
      {
        "trial_number": 3,
        "trial_index": 70,
        "rt": 484,
        "correct": true,
        "response": "ArrowLeft",
        "congruent": true,
        "gazeTowards": false,
        "gazeCondition": "away",
        "faceOnLeft": false,
        "impliedDirection": 180,
        "testDirection": 180,
        "avgFps": 167,
        "minFps": 150,
        "maxFps": 3846,
        "totalFrames": 80,
        "frameRates": 167
      },
      {
        "trial_number": 4,
        "trial_index": 75,
        "rt": 610,
        "correct": true,
        "response": "ArrowLeft",
        "congruent": true,
        "gazeTowards": true,
        "gazeCondition": "towards",
        "faceOnLeft": false,
        "impliedDirection": 180,
        "testDirection": 180,
        "avgFps": 166,
        "minFps": 123,
        "maxFps": 2500,
        "totalFrames": 101,
        "frameRates": 166
      },
      {
        "trial_number": 5,
        "trial_index": 80,
        "rt": 517,
        "correct": true,
        "response": "ArrowLeft",
        "congruent": false,
        "gazeTowards": false,
        "gazeCondition": "away",
        "faceOnLeft": true,
        "impliedDirection": 0,
        "testDirection": 180,
        "avgFps": 167,
        "minFps": 164,
        "maxFps": 4167,
        "totalFrames": 86,
        "frameRates": 167
      },
      {
        "trial_number": 6,
        "trial_index": 85,
        "rt": 589,
        "correct": true,
        "response": "ArrowRight",
        "congruent": false,
        "gazeTowards": true,
        "gazeCondition": "towards",
        "faceOnLeft": false,
        "impliedDirection": 180,
        "testDirection": 0,
        "avgFps": 168,
        "minFps": 164,
        "maxFps": 7143,
        "totalFrames": 98,
        "frameRates": 168
      },
      {
        "trial_number": 7,
        "trial_index": 90,
        "rt": 535,
        "correct": true,
        "response": "ArrowLeft",
        "congruent": false,
        "gazeTowards": false,
        "gazeCondition": "away",
        "faceOnLeft": true,
        "impliedDirection": 0,
        "testDirection": 180,
        "avgFps": 167,
        "minFps": 164,
        "maxFps": 6250,
        "totalFrames": 89,
        "frameRates": 167
      },
      {
        "trial_number": 8,
        "trial_index": 95,
        "rt": 586,
        "correct": true,
        "response": "ArrowLeft",
        "congruent": false,
        "gazeTowards": false,
        "gazeCondition": "away",
        "faceOnLeft": true,
        "impliedDirection": 0,
        "testDirection": 180,
        "avgFps": 168,
        "minFps": 164,
        "maxFps": 5556,
        "totalFrames": 98,
        "frameRates": 168
      },
      {
        "trial_number": 9,
        "trial_index": 100,
        "rt": 497,
        "correct": true,
        "response": "ArrowRight",
        "congruent": false,
        "gazeTowards": false,
        "gazeCondition": "away",
        "faceOnLeft": false,
        "impliedDirection": 180,
        "testDirection": 0,
        "avgFps": 167,
        "minFps": 139,
        "maxFps": 3846,
        "totalFrames": 82,
        "frameRates": 167
      },
      {
        "trial_number": 10,
        "trial_index": 105,
        "rt": 551,
        "correct": true,
        "response": "ArrowLeft",
        "congruent": false,
        "gazeTowards": true,
        "gazeCondition": "towards",
        "faceOnLeft": true,
        "impliedDirection": 0,
        "testDirection": 180,
        "avgFps": 167,
        "minFps": 164,
        "maxFps": 7143,
        "totalFrames": 91,
        "frameRates": 167
      },
      {
        "trial_number": 11,
        "trial_index": 110,
        "rt": 562,
        "correct": true,
        "response": "ArrowRight",
        "congruent": true,
        "gazeTowards": true,
        "gazeCondition": "towards",
        "faceOnLeft": true,
        "impliedDirection": 0,
        "testDirection": 0,
        "avgFps": 162,
        "minFps": 45,
        "maxFps": 2500,
        "totalFrames": 91,
        "frameRates": 162
      },
      {
        "trial_number": 12,
        "trial_index": 115,
        "rt": 511,
        "correct": true,
        "response": "ArrowRight",
        "congruent": true,
        "gazeTowards": false,
        "gazeCondition": "away",
        "faceOnLeft": true,
        "impliedDirection": 0,
        "testDirection": 0,
        "avgFps": 167,
        "minFps": 164,
        "maxFps": 7143,
        "totalFrames": 85,
        "frameRates": 167
      },
      {
        "trial_number": 13,
        "trial_index": 120,
        "rt": 550,
        "correct": true,
        "response": "ArrowRight",
        "congruent": true,
        "gazeTowards": false,
        "gazeCondition": "away",
        "faceOnLeft": true,
        "impliedDirection": 0,
        "testDirection": 0,
        "avgFps": 167,
        "minFps": 164,
        "maxFps": 5556,
        "totalFrames": 91,
        "frameRates": 167
      },
      {
        "trial_number": 14,
        "trial_index": 125,
        "rt": 496,
        "correct": true,
        "response": "ArrowRight",
        "congruent": false,
        "gazeTowards": true,
        "gazeCondition": "towards",
        "faceOnLeft": false,
        "impliedDirection": 180,
        "testDirection": 0,
        "avgFps": 168,
        "minFps": 164,
        "maxFps": 2000,
        "totalFrames": 83,
        "frameRates": 168
      },
      {
        "trial_number": 15,
        "trial_index": 130,
        "rt": 488,
        "correct": true,
        "response": "ArrowRight",
        "congruent": true,
        "gazeTowards": false,
        "gazeCondition": "away",
        "faceOnLeft": true,
        "impliedDirection": 0,
        "testDirection": 0,
        "avgFps": 166,
        "minFps": 131,
        "maxFps": 5556,
        "totalFrames": 81,
        "frameRates": 166
      },
      {
        "trial_number": 16,
        "trial_index": 135,
        "rt": 557,
        "correct": true,
        "response": "ArrowLeft",
        "congruent": true,
        "gazeTowards": false,
        "gazeCondition": "away",
        "faceOnLeft": false,
        "impliedDirection": 180,
        "testDirection": 180,
        "avgFps": 168,
        "minFps": 164,
        "maxFps": 2632,
        "totalFrames": 93,
        "frameRates": 168
      },
      {
        "trial_number": 17,
        "trial_index": 140,
        "rt": 511,
        "correct": true,
        "response": "ArrowRight",
        "congruent": false,
        "gazeTowards": true,
        "gazeCondition": "towards",
        "faceOnLeft": false,
        "impliedDirection": 180,
        "testDirection": 0,
        "avgFps": 166,
        "minFps": 107,
        "maxFps": 2000,
        "totalFrames": 84,
        "frameRates": 166
      },
      {
        "trial_number": 18,
        "trial_index": 145,
        "rt": 581,
        "correct": true,
        "response": "ArrowRight",
        "congruent": true,
        "gazeTowards": false,
        "gazeCondition": "away",
        "faceOnLeft": true,
        "impliedDirection": 0,
        "testDirection": 0,
        "avgFps": 166,
        "minFps": 164,
        "maxFps": 658,
        "totalFrames": 96,
        "frameRates": 166
      },
      {
        "trial_number": 19,
        "trial_index": 150,
        "rt": 542,
        "correct": true,
        "response": "ArrowRight",
        "congruent": false,
        "gazeTowards": false,
        "gazeCondition": "away",
        "faceOnLeft": false,
        "impliedDirection": 180,
        "testDirection": 0,
        "avgFps": 167,
        "minFps": 164,
        "maxFps": 8333,
        "totalFrames": 90,
        "frameRates": 167
      },
      {
        "trial_number": 20,
        "trial_index": 155,
        "rt": 462,
        "correct": true,
        "response": "ArrowLeft",
        "congruent": true,
        "gazeTowards": false,
        "gazeCondition": "away",
        "faceOnLeft": false,
        "impliedDirection": 180,
        "testDirection": 180,
        "avgFps": 167,
        "minFps": 164,
        "maxFps": 5556,
        "totalFrames": 77,
        "frameRates": 167
      },
      {
        "trial_number": 21,
        "trial_index": 160,
        "rt": 550,
        "correct": true,
        "response": "ArrowLeft",
        "congruent": true,
        "gazeTowards": true,
        "gazeCondition": "towards",
        "faceOnLeft": false,
        "impliedDirection": 180,
        "testDirection": 180,
        "avgFps": 163,
        "minFps": 55,
        "maxFps": 556,
        "totalFrames": 89,
        "frameRates": 163
      },
      {
        "trial_number": 22,
        "trial_index": 165,
        "rt": 543,
        "correct": true,
        "response": "ArrowRight",
        "congruent": true,
        "gazeTowards": false,
        "gazeCondition": "away",
        "faceOnLeft": true,
        "impliedDirection": 0,
        "testDirection": 0,
        "avgFps": 163,
        "minFps": 55,
        "maxFps": 505,
        "totalFrames": 88,
        "frameRates": 163
      },
      {
        "trial_number": 23,
        "trial_index": 170,
        "rt": null,
        "correct": false,
        "response": null,
        "congruent": true,
        "gazeTowards": true,
        "gazeCondition": "towards",
        "faceOnLeft": false,
        "impliedDirection": 180,
        "testDirection": 180,
        "avgFps": 165,
        "minFps": 126,
        "maxFps": 7143,
        "totalFrames": 330,
        "frameRates": 165
      },
      {
        "trial_number": 24,
        "trial_index": 175,
        "rt": null,
        "correct": false,
        "response": null,
        "congruent": true,
        "gazeTowards": false,
        "gazeCondition": "away",
        "faceOnLeft": false,
        "impliedDirection": 180,
        "testDirection": 180,
        "avgFps": 165,
        "minFps": 126,
        "maxFps": 704,
        "totalFrames": 331,
        "frameRates": 165
      },
      {
        "trial_number": 25,
        "trial_index": 180,
        "rt": null,
        "correct": false,
        "response": null,
        "congruent": false,
        "gazeTowards": false,
        "gazeCondition": "away",
        "faceOnLeft": false,
        "impliedDirection": 180,
        "testDirection": 0,
        "avgFps": 165,
        "minFps": 124,
        "maxFps": 5000,
        "totalFrames": 331,
        "frameRates": 165
      },
      {
        "trial_number": 26,
        "trial_index": 185,
        "rt": null,
        "correct": false,
        "response": null,
        "congruent": true,
        "gazeTowards": false,
        "gazeCondition": "away",
        "faceOnLeft": false,
        "impliedDirection": 180,
        "testDirection": 180,
        "avgFps": 165,
        "minFps": 125,
        "maxFps": 4545,
        "totalFrames": 331,
        "frameRates": 165
      },
      {
        "trial_number": 27,
        "trial_index": 190,
        "rt": null,
        "correct": false,
        "response": null,
        "congruent": false,
        "gazeTowards": false,
        "gazeCondition": "away",
        "faceOnLeft": false,
        "impliedDirection": 180,
        "testDirection": 0,
        "avgFps": 166,
        "minFps": 129,
        "maxFps": 4545,
        "totalFrames": 332,
        "frameRates": 166
      },
      {
        "trial_number": 28,
        "trial_index": 195,
        "rt": null,
        "correct": false,
        "response": null,
        "congruent": true,
        "gazeTowards": false,
        "gazeCondition": "away",
        "faceOnLeft": true,
        "impliedDirection": 0,
        "testDirection": 0,
        "avgFps": 165,
        "minFps": 127,
        "maxFps": 5000,
        "totalFrames": 331,
        "frameRates": 165
      },
      {
        "trial_number": 29,
        "trial_index": 200,
        "rt": null,
        "correct": false,
        "response": null,
        "congruent": true,
        "gazeTowards": false,
        "gazeCondition": "away",
        "faceOnLeft": true,
        "impliedDirection": 0,
        "testDirection": 0,
        "avgFps": 165,
        "minFps": 125,
        "maxFps": 833,
        "totalFrames": 331,
        "frameRates": 165
      },
      {
        "trial_number": 30,
        "trial_index": 205,
        "rt": null,
        "correct": false,
        "response": null,
        "congruent": false,
        "gazeTowards": true,
        "gazeCondition": "towards",
        "faceOnLeft": false,
        "impliedDirection": 180,
        "testDirection": 0,
        "avgFps": 166,
        "minFps": 125,
        "maxFps": 6250,
        "totalFrames": 331,
        "frameRates": 166
      },
      {
        "trial_number": 31,
        "trial_index": 211,
        "rt": 1495,
        "correct": true,
        "response": "ArrowRight",
        "congruent": false,
        "gazeTowards": true,
        "gazeCondition": "towards",
        "faceOnLeft": false,
        "impliedDirection": 180,
        "testDirection": 0,
        "avgFps": 166,
        "minFps": 164,
        "maxFps": 769,
        "totalFrames": 247,
        "frameRates": 166
      },
      {
        "trial_number": 32,
        "trial_index": 216,
        "rt": 747,
        "correct": true,
        "response": "ArrowRight",
        "congruent": true,
        "gazeTowards": true,
        "gazeCondition": "towards",
        "faceOnLeft": true,
        "impliedDirection": 0,
        "testDirection": 0,
        "avgFps": 166,
        "minFps": 152,
        "maxFps": 4167,
        "totalFrames": 124,
        "frameRates": 166
      },
      {
        "trial_number": 33,
        "trial_index": 221,
        "rt": 539,
        "correct": true,
        "response": "ArrowRight",
        "congruent": true,
        "gazeTowards": true,
        "gazeCondition": "towards",
        "faceOnLeft": true,
        "impliedDirection": 0,
        "testDirection": 0,
        "avgFps": 167,
        "minFps": 164,
        "maxFps": 5000,
        "totalFrames": 90,
        "frameRates": 167
      },
      {
        "trial_number": 34,
        "trial_index": 226,
        "rt": 566,
        "correct": true,
        "response": "ArrowRight",
        "congruent": false,
        "gazeTowards": false,
        "gazeCondition": "away",
        "faceOnLeft": false,
        "impliedDirection": 180,
        "testDirection": 0,
        "avgFps": 167,
        "minFps": 164,
        "maxFps": 2083,
        "totalFrames": 94,
        "frameRates": 167
      },
      {
        "trial_number": 35,
        "trial_index": 231,
        "rt": 480,
        "correct": true,
        "response": "ArrowRight",
        "congruent": false,
        "gazeTowards": false,
        "gazeCondition": "away",
        "faceOnLeft": false,
        "impliedDirection": 180,
        "testDirection": 0,
        "avgFps": 167,
        "minFps": 152,
        "maxFps": 2381,
        "totalFrames": 80,
        "frameRates": 167
      },
      {
        "trial_number": 36,
        "trial_index": 236,
        "rt": 531,
        "correct": true,
        "response": "ArrowLeft",
        "congruent": false,
        "gazeTowards": false,
        "gazeCondition": "away",
        "faceOnLeft": true,
        "impliedDirection": 0,
        "testDirection": 180,
        "avgFps": 168,
        "minFps": 164,
        "maxFps": 4167,
        "totalFrames": 89,
        "frameRates": 168
      },
      {
        "trial_number": 37,
        "trial_index": 241,
        "rt": 533,
        "correct": true,
        "response": "ArrowLeft",
        "congruent": true,
        "gazeTowards": true,
        "gazeCondition": "towards",
        "faceOnLeft": false,
        "impliedDirection": 180,
        "testDirection": 180,
        "avgFps": 168,
        "minFps": 164,
        "maxFps": 2632,
        "totalFrames": 89,
        "frameRates": 168
      },
      {
        "trial_number": 38,
        "trial_index": 246,
        "rt": 430,
        "correct": true,
        "response": "ArrowRight",
        "congruent": false,
        "gazeTowards": true,
        "gazeCondition": "towards",
        "faceOnLeft": false,
        "impliedDirection": 180,
        "testDirection": 0,
        "avgFps": 166,
        "minFps": 120,
        "maxFps": 12500,
        "totalFrames": 71,
        "frameRates": 166
      },
      {
        "trial_number": 39,
        "trial_index": 254,
        "rt": 490,
        "correct": true,
        "response": "ArrowLeft",
        "congruent": false,
        "gazeTowards": false,
        "gazeCondition": "away",
        "faceOnLeft": true,
        "impliedDirection": 0,
        "testDirection": 180,
        "avgFps": 167,
        "minFps": 164,
        "maxFps": 2778,
        "totalFrames": 81,
        "frameRates": 167
      },
      {
        "trial_number": 40,
        "trial_index": 259,
        "rt": 444,
        "correct": true,
        "response": "ArrowRight",
        "congruent": false,
        "gazeTowards": true,
        "gazeCondition": "towards",
        "faceOnLeft": false,
        "impliedDirection": 180,
        "testDirection": 0,
        "avgFps": 162,
        "minFps": 53,
        "maxFps": 3333,
        "totalFrames": 72,
        "frameRates": 162
      },
      {
        "trial_number": 41,
        "trial_index": 264,
        "rt": 480,
        "correct": true,
        "response": "ArrowLeft",
        "congruent": true,
        "gazeTowards": false,
        "gazeCondition": "away",
        "faceOnLeft": false,
        "impliedDirection": 180,
        "testDirection": 180,
        "avgFps": 167,
        "minFps": 156,
        "maxFps": 2381,
        "totalFrames": 80,
        "frameRates": 167
      },
      {
        "trial_number": 42,
        "trial_index": 269,
        "rt": 398,
        "correct": true,
        "response": "ArrowRight",
        "congruent": true,
        "gazeTowards": true,
        "gazeCondition": "towards",
        "faceOnLeft": true,
        "impliedDirection": 0,
        "testDirection": 0,
        "avgFps": 168,
        "minFps": 164,
        "maxFps": 7143,
        "totalFrames": 66,
        "frameRates": 168
      },
      {
        "trial_number": 43,
        "trial_index": 274,
        "rt": 409,
        "correct": true,
        "response": "ArrowLeft",
        "congruent": true,
        "gazeTowards": true,
        "gazeCondition": "towards",
        "faceOnLeft": false,
        "impliedDirection": 180,
        "testDirection": 180,
        "avgFps": 169,
        "minFps": 164,
        "maxFps": 3125,
        "totalFrames": 69,
        "frameRates": 169
      },
      {
        "trial_number": 44,
        "trial_index": 279,
        "rt": 356,
        "correct": false,
        "response": "ArrowRight",
        "congruent": false,
        "gazeTowards": true,
        "gazeCondition": "towards",
        "faceOnLeft": true,
        "impliedDirection": 0,
        "testDirection": 180,
        "avgFps": 169,
        "minFps": 164,
        "maxFps": 2273,
        "totalFrames": 60,
        "frameRates": 169
      },
      {
        "trial_number": 45,
        "trial_index": 284,
        "rt": 517,
        "correct": true,
        "response": "ArrowLeft",
        "congruent": false,
        "gazeTowards": true,
        "gazeCondition": "towards",
        "faceOnLeft": true,
        "impliedDirection": 0,
        "testDirection": 180,
        "avgFps": 168,
        "minFps": 164,
        "maxFps": 3846,
        "totalFrames": 86,
        "frameRates": 168
      },
      {
        "trial_number": 46,
        "trial_index": 289,
        "rt": 498,
        "correct": true,
        "response": "ArrowRight",
        "congruent": false,
        "gazeTowards": false,
        "gazeCondition": "away",
        "faceOnLeft": false,
        "impliedDirection": 180,
        "testDirection": 0,
        "avgFps": 167,
        "minFps": 157,
        "maxFps": 4545,
        "totalFrames": 83,
        "frameRates": 167
      },
      {
        "trial_number": 47,
        "trial_index": 294,
        "rt": 453,
        "correct": true,
        "response": "ArrowLeft",
        "congruent": false,
        "gazeTowards": true,
        "gazeCondition": "towards",
        "faceOnLeft": true,
        "impliedDirection": 0,
        "testDirection": 180,
        "avgFps": 167,
        "minFps": 129,
        "maxFps": 3333,
        "totalFrames": 75,
        "frameRates": 167
      },
      {
        "trial_number": 48,
        "trial_index": 299,
        "rt": 650,
        "correct": true,
        "response": "ArrowRight",
        "congruent": true,
        "gazeTowards": true,
        "gazeCondition": "towards",
        "faceOnLeft": true,
        "impliedDirection": 0,
        "testDirection": 0,
        "avgFps": 168,
        "minFps": 164,
        "maxFps": 5556,
        "totalFrames": 108,
        "frameRates": 168
      },
      {
        "trial_number": 49,
        "trial_index": 304,
        "rt": 578,
        "correct": true,
        "response": "ArrowRight",
        "congruent": false,
        "gazeTowards": false,
        "gazeCondition": "away",
        "faceOnLeft": false,
        "impliedDirection": 180,
        "testDirection": 0,
        "avgFps": 166,
        "minFps": 156,
        "maxFps": 2000,
        "totalFrames": 96,
        "frameRates": 166
      },
      {
        "trial_number": 50,
        "trial_index": 309,
        "rt": 607,
        "correct": true,
        "response": "ArrowRight",
        "congruent": false,
        "gazeTowards": false,
        "gazeCondition": "away",
        "faceOnLeft": false,
        "impliedDirection": 180,
        "testDirection": 0,
        "avgFps": 167,
        "minFps": 164,
        "maxFps": 3846,
        "totalFrames": 101,
        "frameRates": 167
      },
      {
        "trial_number": 51,
        "trial_index": 314,
        "rt": 591,
        "correct": true,
        "response": "ArrowRight",
        "congruent": true,
        "gazeTowards": false,
        "gazeCondition": "away",
        "faceOnLeft": true,
        "impliedDirection": 0,
        "testDirection": 0,
        "avgFps": 167,
        "minFps": 164,
        "maxFps": 5556,
        "totalFrames": 98,
        "frameRates": 167
      },
      {
        "trial_number": 52,
        "trial_index": 322,
        "rt": 598,
        "correct": true,
        "response": "ArrowRight",
        "congruent": true,
        "gazeTowards": false,
        "gazeCondition": "away",
        "faceOnLeft": true,
        "impliedDirection": 0,
        "testDirection": 0,
        "avgFps": 166,
        "minFps": 159,
        "maxFps": 2000,
        "totalFrames": 99,
        "frameRates": 166
      },
      {
        "trial_number": 53,
        "trial_index": 327,
        "rt": 570,
        "correct": true,
        "response": "ArrowRight",
        "congruent": true,
        "gazeTowards": true,
        "gazeCondition": "towards",
        "faceOnLeft": true,
        "impliedDirection": 0,
        "testDirection": 0,
        "avgFps": 168,
        "minFps": 164,
        "maxFps": 3571,
        "totalFrames": 95,
        "frameRates": 168
      },
      {
        "trial_number": 54,
        "trial_index": 332,
        "rt": 411,
        "correct": true,
        "response": "ArrowLeft",
        "congruent": false,
        "gazeTowards": true,
        "gazeCondition": "towards",
        "faceOnLeft": true,
        "impliedDirection": 0,
        "testDirection": 180,
        "avgFps": 169,
        "minFps": 164,
        "maxFps": 3125,
        "totalFrames": 69,
        "frameRates": 169
      },
      {
        "trial_number": 55,
        "trial_index": 337,
        "rt": 467,
        "correct": true,
        "response": "ArrowRight",
        "congruent": false,
        "gazeTowards": false,
        "gazeCondition": "away",
        "faceOnLeft": false,
        "impliedDirection": 180,
        "testDirection": 0,
        "avgFps": 168,
        "minFps": 164,
        "maxFps": 8333,
        "totalFrames": 78,
        "frameRates": 168
      },
      {
        "trial_number": 56,
        "trial_index": 342,
        "rt": 450,
        "correct": true,
        "response": "ArrowLeft",
        "congruent": true,
        "gazeTowards": true,
        "gazeCondition": "towards",
        "faceOnLeft": false,
        "impliedDirection": 180,
        "testDirection": 180,
        "avgFps": 167,
        "minFps": 154,
        "maxFps": 2273,
        "totalFrames": 75,
        "frameRates": 167
      },
      {
        "trial_number": 57,
        "trial_index": 347,
        "rt": 399,
        "correct": true,
        "response": "ArrowRight",
        "congruent": true,
        "gazeTowards": false,
        "gazeCondition": "away",
        "faceOnLeft": true,
        "impliedDirection": 0,
        "testDirection": 0,
        "avgFps": 169,
        "minFps": 164,
        "maxFps": 3571,
        "totalFrames": 67,
        "frameRates": 169
      },
      {
        "trial_number": 58,
        "trial_index": 352,
        "rt": 467,
        "correct": true,
        "response": "ArrowLeft",
        "congruent": false,
        "gazeTowards": false,
        "gazeCondition": "away",
        "faceOnLeft": true,
        "impliedDirection": 0,
        "testDirection": 180,
        "avgFps": 168,
        "minFps": 164,
        "maxFps": 2500,
        "totalFrames": 78,
        "frameRates": 168
      },
      {
        "trial_number": 59,
        "trial_index": 357,
        "rt": 544,
        "correct": true,
        "response": "ArrowRight",
        "congruent": true,
        "gazeTowards": true,
        "gazeCondition": "towards",
        "faceOnLeft": true,
        "impliedDirection": 0,
        "testDirection": 0,
        "avgFps": 167,
        "minFps": 164,
        "maxFps": 4545,
        "totalFrames": 90,
        "frameRates": 167
      },
      {
        "trial_number": 60,
        "trial_index": 362,
        "rt": 565,
        "correct": true,
        "response": "ArrowLeft",
        "congruent": true,
        "gazeTowards": true,
        "gazeCondition": "towards",
        "faceOnLeft": false,
        "impliedDirection": 180,
        "testDirection": 180,
        "avgFps": 167,
        "minFps": 164,
        "maxFps": 3846,
        "totalFrames": 94,
        "frameRates": 167
      },
      {
        "trial_number": 61,
        "trial_index": 367,
        "rt": 480,
        "correct": true,
        "response": "ArrowLeft",
        "congruent": true,
        "gazeTowards": true,
        "gazeCondition": "towards",
        "faceOnLeft": false,
        "impliedDirection": 180,
        "testDirection": 180,
        "avgFps": 167,
        "minFps": 164,
        "maxFps": 4545,
        "totalFrames": 80,
        "frameRates": 167
      },
      {
        "trial_number": 62,
        "trial_index": 373,
        "rt": 566,
        "correct": true,
        "response": "ArrowRight",
        "congruent": false,
        "gazeTowards": true,
        "gazeCondition": "towards",
        "faceOnLeft": false,
        "impliedDirection": 180,
        "testDirection": 0,
        "avgFps": 163,
        "minFps": 56,
        "maxFps": 2381,
        "totalFrames": 92,
        "frameRates": 163
      },
      {
        "trial_number": 63,
        "trial_index": 378,
        "rt": 480,
        "correct": true,
        "response": "ArrowLeft",
        "congruent": true,
        "gazeTowards": false,
        "gazeCondition": "away",
        "faceOnLeft": false,
        "impliedDirection": 180,
        "testDirection": 180,
        "avgFps": 166,
        "minFps": 126,
        "maxFps": 4167,
        "totalFrames": 79,
        "frameRates": 166
      },
      {
        "trial_number": 64,
        "trial_index": 383,
        "rt": 535,
        "correct": true,
        "response": "ArrowLeft",
        "congruent": true,
        "gazeTowards": false,
        "gazeCondition": "away",
        "faceOnLeft": false,
        "impliedDirection": 180,
        "testDirection": 180,
        "avgFps": 166,
        "minFps": 164,
        "maxFps": 549,
        "totalFrames": 89,
        "frameRates": 166
      },
      {
        "trial_number": 65,
        "trial_index": 388,
        "rt": 479,
        "correct": true,
        "response": "ArrowLeft",
        "congruent": true,
        "gazeTowards": true,
        "gazeCondition": "towards",
        "faceOnLeft": false,
        "impliedDirection": 180,
        "testDirection": 180,
        "avgFps": 168,
        "minFps": 164,
        "maxFps": 2500,
        "totalFrames": 80,
        "frameRates": 168
      },
      {
        "trial_number": 66,
        "trial_index": 393,
        "rt": 415,
        "correct": true,
        "response": "ArrowLeft",
        "congruent": false,
        "gazeTowards": true,
        "gazeCondition": "towards",
        "faceOnLeft": true,
        "impliedDirection": 0,
        "testDirection": 180,
        "avgFps": 169,
        "minFps": 164,
        "maxFps": 5556,
        "totalFrames": 70,
        "frameRates": 169
      },
      {
        "trial_number": 67,
        "trial_index": 398,
        "rt": 423,
        "correct": true,
        "response": "ArrowRight",
        "congruent": true,
        "gazeTowards": false,
        "gazeCondition": "away",
        "faceOnLeft": true,
        "impliedDirection": 0,
        "testDirection": 0,
        "avgFps": 168,
        "minFps": 164,
        "maxFps": 3125,
        "totalFrames": 71,
        "frameRates": 168
      },
      {
        "trial_number": 68,
        "trial_index": 403,
        "rt": 500,
        "correct": true,
        "response": "ArrowRight",
        "congruent": false,
        "gazeTowards": true,
        "gazeCondition": "towards",
        "faceOnLeft": false,
        "impliedDirection": 180,
        "testDirection": 0,
        "avgFps": 168,
        "minFps": 164,
        "maxFps": 1724,
        "totalFrames": 83,
        "frameRates": 168
      },
      {
        "trial_number": 69,
        "trial_index": 408,
        "rt": 392,
        "correct": true,
        "response": "ArrowRight",
        "congruent": false,
        "gazeTowards": true,
        "gazeCondition": "towards",
        "faceOnLeft": false,
        "impliedDirection": 180,
        "testDirection": 0,
        "avgFps": 167,
        "minFps": 129,
        "maxFps": 2500,
        "totalFrames": 65,
        "frameRates": 167
      },
      {
        "trial_number": 70,
        "trial_index": 413,
        "rt": 495,
        "correct": true,
        "response": "ArrowRight",
        "congruent": true,
        "gazeTowards": true,
        "gazeCondition": "towards",
        "faceOnLeft": true,
        "impliedDirection": 0,
        "testDirection": 0,
        "avgFps": 167,
        "minFps": 164,
        "maxFps": 8333,
        "totalFrames": 82,
        "frameRates": 167
      },
      {
        "trial_number": 71,
        "trial_index": 418,
        "rt": 579,
        "correct": true,
        "response": "ArrowRight",
        "congruent": false,
        "gazeTowards": false,
        "gazeCondition": "away",
        "faceOnLeft": false,
        "impliedDirection": 180,
        "testDirection": 0,
        "avgFps": 166,
        "minFps": 124,
        "maxFps": 3125,
        "totalFrames": 96,
        "frameRates": 166
      },
      {
        "trial_number": 72,
        "trial_index": 426,
        "rt": 486,
        "correct": true,
        "response": "ArrowLeft",
        "congruent": true,
        "gazeTowards": true,
        "gazeCondition": "towards",
        "faceOnLeft": false,
        "impliedDirection": 180,
        "testDirection": 180,
        "avgFps": 168,
        "minFps": 164,
        "maxFps": 3846,
        "totalFrames": 81,
        "frameRates": 168
      },
      {
        "trial_number": 73,
        "trial_index": 431,
        "rt": 530,
        "correct": true,
        "response": "ArrowLeft",
        "congruent": false,
        "gazeTowards": false,
        "gazeCondition": "away",
        "faceOnLeft": true,
        "impliedDirection": 0,
        "testDirection": 180,
        "avgFps": 166,
        "minFps": 108,
        "maxFps": 1562,
        "totalFrames": 87,
        "frameRates": 166
      },
      {
        "trial_number": 74,
        "trial_index": 439,
        "rt": 510,
        "correct": true,
        "response": "ArrowLeft",
        "congruent": false,
        "gazeTowards": false,
        "gazeCondition": "away",
        "faceOnLeft": true,
        "impliedDirection": 0,
        "testDirection": 180,
        "avgFps": 168,
        "minFps": 164,
        "maxFps": 3125,
        "totalFrames": 85,
        "frameRates": 168
      },
      {
        "trial_number": 75,
        "trial_index": 447,
        "rt": 466,
        "correct": true,
        "response": "ArrowLeft",
        "congruent": false,
        "gazeTowards": true,
        "gazeCondition": "towards",
        "faceOnLeft": true,
        "impliedDirection": 0,
        "testDirection": 180,
        "avgFps": 167,
        "minFps": 164,
        "maxFps": 758,
        "totalFrames": 77,
        "frameRates": 167
      },
      {
        "trial_number": 76,
        "trial_index": 452,
        "rt": 500,
        "correct": true,
        "response": "ArrowLeft",
        "congruent": true,
        "gazeTowards": true,
        "gazeCondition": "towards",
        "faceOnLeft": false,
        "impliedDirection": 180,
        "testDirection": 180,
        "avgFps": 168,
        "minFps": 164,
        "maxFps": 4167,
        "totalFrames": 83,
        "frameRates": 168
      },
      {
        "trial_number": 77,
        "trial_index": 457,
        "rt": 501,
        "correct": true,
        "response": "ArrowLeft",
        "congruent": true,
        "gazeTowards": false,
        "gazeCondition": "away",
        "faceOnLeft": false,
        "impliedDirection": 180,
        "testDirection": 180,
        "avgFps": 168,
        "minFps": 164,
        "maxFps": 3846,
        "totalFrames": 84,
        "frameRates": 168
      },
      {
        "trial_number": 78,
        "trial_index": 465,
        "rt": 423,
        "correct": true,
        "response": "ArrowRight",
        "congruent": false,
        "gazeTowards": true,
        "gazeCondition": "towards",
        "faceOnLeft": false,
        "impliedDirection": 180,
        "testDirection": 0,
        "avgFps": 168,
        "minFps": 164,
        "maxFps": 5000,
        "totalFrames": 71,
        "frameRates": 168
      },
      {
        "trial_number": 79,
        "trial_index": 470,
        "rt": 412,
        "correct": true,
        "response": "ArrowRight",
        "congruent": true,
        "gazeTowards": true,
        "gazeCondition": "towards",
        "faceOnLeft": true,
        "impliedDirection": 0,
        "testDirection": 0,
        "avgFps": 167,
        "minFps": 164,
        "maxFps": 3333,
        "totalFrames": 68,
        "frameRates": 167
      },
      {
        "trial_number": 80,
        "trial_index": 475,
        "rt": 370,
        "correct": true,
        "response": "ArrowRight",
        "congruent": false,
        "gazeTowards": false,
        "gazeCondition": "away",
        "faceOnLeft": false,
        "impliedDirection": 180,
        "testDirection": 0,
        "avgFps": 168,
        "minFps": 164,
        "maxFps": 3125,
        "totalFrames": 62,
        "frameRates": 168
      },
      {
        "trial_number": 81,
        "trial_index": 480,
        "rt": 463,
        "correct": true,
        "response": "ArrowLeft",
        "congruent": false,
        "gazeTowards": false,
        "gazeCondition": "away",
        "faceOnLeft": true,
        "impliedDirection": 0,
        "testDirection": 180,
        "avgFps": 168,
        "minFps": 164,
        "maxFps": 2500,
        "totalFrames": 77,
        "frameRates": 168
      },
      {
        "trial_number": 82,
        "trial_index": 485,
        "rt": 366,
        "correct": true,
        "response": "ArrowRight",
        "congruent": true,
        "gazeTowards": true,
        "gazeCondition": "towards",
        "faceOnLeft": true,
        "impliedDirection": 0,
        "testDirection": 0,
        "avgFps": 167,
        "minFps": 147,
        "maxFps": 6250,
        "totalFrames": 61,
        "frameRates": 167
      },
      {
        "trial_number": 83,
        "trial_index": 490,
        "rt": 456,
        "correct": true,
        "response": "ArrowLeft",
        "congruent": true,
        "gazeTowards": false,
        "gazeCondition": "away",
        "faceOnLeft": false,
        "impliedDirection": 180,
        "testDirection": 180,
        "avgFps": 168,
        "minFps": 164,
        "maxFps": 5556,
        "totalFrames": 76,
        "frameRates": 168
      },
      {
        "trial_number": 84,
        "trial_index": 495,
        "rt": 458,
        "correct": true,
        "response": "ArrowLeft",
        "congruent": true,
        "gazeTowards": false,
        "gazeCondition": "away",
        "faceOnLeft": false,
        "impliedDirection": 180,
        "testDirection": 180,
        "avgFps": 167,
        "minFps": 164,
        "maxFps": 5556,
        "totalFrames": 76,
        "frameRates": 167
      },
      {
        "trial_number": 85,
        "trial_index": 500,
        "rt": 328,
        "correct": true,
        "response": "ArrowRight",
        "congruent": false,
        "gazeTowards": true,
        "gazeCondition": "towards",
        "faceOnLeft": false,
        "impliedDirection": 180,
        "testDirection": 0,
        "avgFps": 167,
        "minFps": 164,
        "maxFps": 676,
        "totalFrames": 54,
        "frameRates": 167
      },
      {
        "trial_number": 86,
        "trial_index": 505,
        "rt": 503,
        "correct": true,
        "response": "ArrowRight",
        "congruent": true,
        "gazeTowards": true,
        "gazeCondition": "towards",
        "faceOnLeft": true,
        "impliedDirection": 0,
        "testDirection": 0,
        "avgFps": 168,
        "minFps": 164,
        "maxFps": 4545,
        "totalFrames": 84,
        "frameRates": 168
      },
      {
        "trial_number": 87,
        "trial_index": 510,
        "rt": 504,
        "correct": true,
        "response": "ArrowLeft",
        "congruent": true,
        "gazeTowards": true,
        "gazeCondition": "towards",
        "faceOnLeft": false,
        "impliedDirection": 180,
        "testDirection": 180,
        "avgFps": 167,
        "minFps": 164,
        "maxFps": 1613,
        "totalFrames": 84,
        "frameRates": 167
      },
      {
        "trial_number": 88,
        "trial_index": 515,
        "rt": 448,
        "correct": true,
        "response": "ArrowLeft",
        "congruent": false,
        "gazeTowards": true,
        "gazeCondition": "towards",
        "faceOnLeft": true,
        "impliedDirection": 0,
        "testDirection": 180,
        "avgFps": 168,
        "minFps": 164,
        "maxFps": 1515,
        "totalFrames": 75,
        "frameRates": 168
      },
      {
        "trial_number": 89,
        "trial_index": 520,
        "rt": 487,
        "correct": true,
        "response": "ArrowLeft",
        "congruent": true,
        "gazeTowards": false,
        "gazeCondition": "away",
        "faceOnLeft": false,
        "impliedDirection": 180,
        "testDirection": 180,
        "avgFps": 166,
        "minFps": 133,
        "maxFps": 5000,
        "totalFrames": 81,
        "frameRates": 166
      },
      {
        "trial_number": 90,
        "trial_index": 529,
        "rt": 520,
        "correct": true,
        "response": "ArrowLeft",
        "congruent": true,
        "gazeTowards": false,
        "gazeCondition": "away",
        "faceOnLeft": false,
        "impliedDirection": 180,
        "testDirection": 180,
        "avgFps": 167,
        "minFps": 146,
        "maxFps": 5556,
        "totalFrames": 86,
        "frameRates": 167
      },
      {
        "trial_number": 91,
        "trial_index": 534,
        "rt": 452,
        "correct": true,
        "response": "ArrowLeft",
        "congruent": false,
        "gazeTowards": true,
        "gazeCondition": "towards",
        "faceOnLeft": true,
        "impliedDirection": 0,
        "testDirection": 180,
        "avgFps": 167,
        "minFps": 164,
        "maxFps": 3846,
        "totalFrames": 75,
        "frameRates": 167
      },
      {
        "trial_number": 92,
        "trial_index": 539,
        "rt": 462,
        "correct": true,
        "response": "ArrowLeft",
        "congruent": false,
        "gazeTowards": false,
        "gazeCondition": "away",
        "faceOnLeft": true,
        "impliedDirection": 0,
        "testDirection": 180,
        "avgFps": 156,
        "minFps": 33,
        "maxFps": 2273,
        "totalFrames": 71,
        "frameRates": 156
      },
      {
        "trial_number": 93,
        "trial_index": 544,
        "rt": 386,
        "correct": true,
        "response": "ArrowLeft",
        "congruent": false,
        "gazeTowards": true,
        "gazeCondition": "towards",
        "faceOnLeft": true,
        "impliedDirection": 0,
        "testDirection": 180,
        "avgFps": 167,
        "minFps": 164,
        "maxFps": 472,
        "totalFrames": 64,
        "frameRates": 167
      },
      {
        "trial_number": 94,
        "trial_index": 549,
        "rt": 544,
        "correct": true,
        "response": "ArrowLeft",
        "congruent": false,
        "gazeTowards": false,
        "gazeCondition": "away",
        "faceOnLeft": true,
        "impliedDirection": 0,
        "testDirection": 180,
        "avgFps": 166,
        "minFps": 164,
        "maxFps": 641,
        "totalFrames": 90,
        "frameRates": 166
      },
      {
        "trial_number": 95,
        "trial_index": 554,
        "rt": 508,
        "correct": true,
        "response": "ArrowLeft",
        "congruent": true,
        "gazeTowards": false,
        "gazeCondition": "away",
        "faceOnLeft": false,
        "impliedDirection": 180,
        "testDirection": 180,
        "avgFps": 165,
        "minFps": 64,
        "maxFps": 4167,
        "totalFrames": 83,
        "frameRates": 165
      },
      {
        "trial_number": 96,
        "trial_index": 562,
        "rt": 383,
        "correct": true,
        "response": "ArrowLeft",
        "congruent": false,
        "gazeTowards": false,
        "gazeCondition": "away",
        "faceOnLeft": true,
        "impliedDirection": 0,
        "testDirection": 180,
        "avgFps": 168,
        "minFps": 164,
        "maxFps": 2500,
        "totalFrames": 64,
        "frameRates": 168
      },
      {
        "trial_number": 97,
        "trial_index": 567,
        "rt": 416,
        "correct": true,
        "response": "ArrowRight",
        "congruent": true,
        "gazeTowards": true,
        "gazeCondition": "towards",
        "faceOnLeft": true,
        "impliedDirection": 0,
        "testDirection": 0,
        "avgFps": 169,
        "minFps": 164,
        "maxFps": 4167,
        "totalFrames": 70,
        "frameRates": 169
      },
      {
        "trial_number": 98,
        "trial_index": 572,
        "rt": 437,
        "correct": true,
        "response": "ArrowRight",
        "congruent": true,
        "gazeTowards": false,
        "gazeCondition": "away",
        "faceOnLeft": true,
        "impliedDirection": 0,
        "testDirection": 0,
        "avgFps": 165,
        "minFps": 83,
        "maxFps": 4545,
        "totalFrames": 72,
        "frameRates": 165
      },
      {
        "trial_number": 99,
        "trial_index": 577,
        "rt": 510,
        "correct": true,
        "response": "ArrowRight",
        "congruent": false,
        "gazeTowards": true,
        "gazeCondition": "towards",
        "faceOnLeft": false,
        "impliedDirection": 180,
        "testDirection": 0,
        "avgFps": 168,
        "minFps": 164,
        "maxFps": 3846,
        "totalFrames": 85,
        "frameRates": 168
      },
      {
        "trial_number": 100,
        "trial_index": 582,
        "rt": 528,
        "correct": true,
        "response": "ArrowLeft",
        "congruent": false,
        "gazeTowards": true,
        "gazeCondition": "towards",
        "faceOnLeft": true,
        "impliedDirection": 0,
        "testDirection": 180,
        "avgFps": 167,
        "minFps": 164,
        "maxFps": 2174,
        "totalFrames": 88,
        "frameRates": 167
      },
      {
        "trial_number": 101,
        "trial_index": 587,
        "rt": 402,
        "correct": true,
        "response": "ArrowRight",
        "congruent": true,
        "gazeTowards": true,
        "gazeCondition": "towards",
        "faceOnLeft": true,
        "impliedDirection": 0,
        "testDirection": 0,
        "avgFps": 167,
        "minFps": 148,
        "maxFps": 4545,
        "totalFrames": 67,
        "frameRates": 167
      },
      {
        "trial_number": 102,
        "trial_index": 592,
        "rt": 449,
        "correct": true,
        "response": "ArrowLeft",
        "congruent": false,
        "gazeTowards": false,
        "gazeCondition": "away",
        "faceOnLeft": true,
        "impliedDirection": 0,
        "testDirection": 180,
        "avgFps": 163,
        "minFps": 57,
        "maxFps": 3333,
        "totalFrames": 73,
        "frameRates": 163
      },
      {
        "trial_number": 103,
        "trial_index": 597,
        "rt": 381,
        "correct": true,
        "response": "ArrowRight",
        "congruent": true,
        "gazeTowards": false,
        "gazeCondition": "away",
        "faceOnLeft": true,
        "impliedDirection": 0,
        "testDirection": 0,
        "avgFps": 167,
        "minFps": 164,
        "maxFps": 2273,
        "totalFrames": 63,
        "frameRates": 167
      },
      {
        "trial_number": 104,
        "trial_index": 602,
        "rt": 401,
        "correct": true,
        "response": "ArrowLeft",
        "congruent": true,
        "gazeTowards": true,
        "gazeCondition": "towards",
        "faceOnLeft": false,
        "impliedDirection": 180,
        "testDirection": 180,
        "avgFps": 167,
        "minFps": 162,
        "maxFps": 7143,
        "totalFrames": 66,
        "frameRates": 167
      },
      {
        "trial_number": 105,
        "trial_index": 607,
        "rt": 366,
        "correct": true,
        "response": "ArrowRight",
        "congruent": false,
        "gazeTowards": true,
        "gazeCondition": "towards",
        "faceOnLeft": false,
        "impliedDirection": 180,
        "testDirection": 0,
        "avgFps": 169,
        "minFps": 164,
        "maxFps": 3125,
        "totalFrames": 61,
        "frameRates": 169
      },
      {
        "trial_number": 106,
        "trial_index": 612,
        "rt": 351,
        "correct": true,
        "response": "ArrowRight",
        "congruent": false,
        "gazeTowards": true,
        "gazeCondition": "towards",
        "faceOnLeft": false,
        "impliedDirection": 180,
        "testDirection": 0,
        "avgFps": 168,
        "minFps": 164,
        "maxFps": 2500,
        "totalFrames": 59,
        "frameRates": 168
      },
      {
        "trial_number": 107,
        "trial_index": 617,
        "rt": 357,
        "correct": true,
        "response": "ArrowRight",
        "congruent": false,
        "gazeTowards": true,
        "gazeCondition": "towards",
        "faceOnLeft": false,
        "impliedDirection": 180,
        "testDirection": 0,
        "avgFps": 169,
        "minFps": 164,
        "maxFps": 2500,
        "totalFrames": 60,
        "frameRates": 169
      },
      {
        "trial_number": 108,
        "trial_index": 622,
        "rt": 398,
        "correct": true,
        "response": "ArrowRight",
        "congruent": false,
        "gazeTowards": false,
        "gazeCondition": "away",
        "faceOnLeft": false,
        "impliedDirection": 180,
        "testDirection": 0,
        "avgFps": 169,
        "minFps": 164,
        "maxFps": 3571,
        "totalFrames": 67,
        "frameRates": 169
      },
      {
        "trial_number": 109,
        "trial_index": 627,
        "rt": 446,
        "correct": true,
        "response": "ArrowLeft",
        "congruent": false,
        "gazeTowards": false,
        "gazeCondition": "away",
        "faceOnLeft": true,
        "impliedDirection": 0,
        "testDirection": 180,
        "avgFps": 169,
        "minFps": 164,
        "maxFps": 2632,
        "totalFrames": 75,
        "frameRates": 169
      },
      {
        "trial_number": 110,
        "trial_index": 632,
        "rt": 455,
        "correct": true,
        "response": "ArrowLeft",
        "congruent": false,
        "gazeTowards": true,
        "gazeCondition": "towards",
        "faceOnLeft": true,
        "impliedDirection": 0,
        "testDirection": 180,
        "avgFps": 168,
        "minFps": 164,
        "maxFps": 1667,
        "totalFrames": 76,
        "frameRates": 168
      },
      {
        "trial_number": 111,
        "trial_index": 637,
        "rt": 452,
        "correct": true,
        "response": "ArrowLeft",
        "congruent": true,
        "gazeTowards": true,
        "gazeCondition": "towards",
        "faceOnLeft": false,
        "impliedDirection": 180,
        "testDirection": 180,
        "avgFps": 168,
        "minFps": 164,
        "maxFps": 4545,
        "totalFrames": 76,
        "frameRates": 168
      },
      {
        "trial_number": 112,
        "trial_index": 642,
        "rt": 455,
        "correct": true,
        "response": "ArrowLeft",
        "congruent": true,
        "gazeTowards": true,
        "gazeCondition": "towards",
        "faceOnLeft": false,
        "impliedDirection": 180,
        "testDirection": 180,
        "avgFps": 167,
        "minFps": 164,
        "maxFps": 3846,
        "totalFrames": 76,
        "frameRates": 167
      },
      {
        "trial_number": 113,
        "trial_index": 650,
        "rt": 547,
        "correct": true,
        "response": "ArrowLeft",
        "congruent": false,
        "gazeTowards": true,
        "gazeCondition": "towards",
        "faceOnLeft": true,
        "impliedDirection": 0,
        "testDirection": 180,
        "avgFps": 157,
        "minFps": 28,
        "maxFps": 704,
        "totalFrames": 86,
        "frameRates": 157
      },
      {
        "trial_number": 114,
        "trial_index": 655,
        "rt": 524,
        "correct": true,
        "response": "ArrowLeft",
        "congruent": true,
        "gazeTowards": false,
        "gazeCondition": "away",
        "faceOnLeft": false,
        "impliedDirection": 180,
        "testDirection": 180,
        "avgFps": 167,
        "minFps": 149,
        "maxFps": 3125,
        "totalFrames": 87,
        "frameRates": 167
      },
      {
        "trial_number": 115,
        "trial_index": 663,
        "rt": 485,
        "correct": true,
        "response": "ArrowLeft",
        "congruent": false,
        "gazeTowards": false,
        "gazeCondition": "away",
        "faceOnLeft": true,
        "impliedDirection": 0,
        "testDirection": 180,
        "avgFps": 167,
        "minFps": 143,
        "maxFps": 2083,
        "totalFrames": 80,
        "frameRates": 167
      },
      {
        "trial_number": 116,
        "trial_index": 668,
        "rt": 505,
        "correct": true,
        "response": "ArrowRight",
        "congruent": true,
        "gazeTowards": false,
        "gazeCondition": "away",
        "faceOnLeft": true,
        "impliedDirection": 0,
        "testDirection": 0,
        "avgFps": 166,
        "minFps": 164,
        "maxFps": 568,
        "totalFrames": 84,
        "frameRates": 166
      },
      {
        "trial_number": 117,
        "trial_index": 673,
        "rt": 412,
        "correct": true,
        "response": "ArrowRight",
        "congruent": false,
        "gazeTowards": false,
        "gazeCondition": "away",
        "faceOnLeft": false,
        "impliedDirection": 180,
        "testDirection": 0,
        "avgFps": 168,
        "minFps": 164,
        "maxFps": 1282,
        "totalFrames": 69,
        "frameRates": 168
      },
      {
        "trial_number": 118,
        "trial_index": 678,
        "rt": 437,
        "correct": true,
        "response": "ArrowLeft",
        "congruent": false,
        "gazeTowards": true,
        "gazeCondition": "towards",
        "faceOnLeft": true,
        "impliedDirection": 0,
        "testDirection": 180,
        "avgFps": 167,
        "minFps": 164,
        "maxFps": 676,
        "totalFrames": 72,
        "frameRates": 167
      },
      {
        "trial_number": 119,
        "trial_index": 683,
        "rt": 386,
        "correct": true,
        "response": "ArrowRight",
        "congruent": true,
        "gazeTowards": true,
        "gazeCondition": "towards",
        "faceOnLeft": true,
        "impliedDirection": 0,
        "testDirection": 0,
        "avgFps": 169,
        "minFps": 164,
        "maxFps": 3846,
        "totalFrames": 65,
        "frameRates": 169
      }
    ],
    "catch": {
      "total": 12,
      "correct": 12,
      "accuracy": 100,
      "meanRT": 564,
      "trials": [
        {
          "trial_number": 0,
          "trial_index": 53,
          "rt": 779,
          "correct": true,
          "colorTarget": "tree",
          "gazeTowards": false,
          "gazeCondition": "away",
          "faceOnLeft": false
        },
        {
          "trial_number": 1,
          "trial_index": 61,
          "rt": 504,
          "correct": true,
          "colorTarget": "tree",
          "gazeTowards": true,
          "gazeCondition": "towards",
          "faceOnLeft": true
        },
        {
          "trial_number": 2,
          "trial_index": 250,
          "rt": 607,
          "correct": true,
          "colorTarget": "tree",
          "gazeTowards": true,
          "gazeCondition": "towards",
          "faceOnLeft": false
        },
        {
          "trial_number": 3,
          "trial_index": 318,
          "rt": 660,
          "correct": true,
          "colorTarget": "tree",
          "gazeTowards": false,
          "gazeCondition": "away",
          "faceOnLeft": true
        },
        {
          "trial_number": 4,
          "trial_index": 422,
          "rt": 593,
          "correct": true,
          "colorTarget": "tree",
          "gazeTowards": true,
          "gazeCondition": "towards",
          "faceOnLeft": true
        },
        {
          "trial_number": 5,
          "trial_index": 435,
          "rt": 584,
          "correct": true,
          "colorTarget": "face",
          "gazeTowards": false,
          "gazeCondition": "away",
          "faceOnLeft": true
        },
        {
          "trial_number": 6,
          "trial_index": 443,
          "rt": 500,
          "correct": true,
          "colorTarget": "tree",
          "gazeTowards": false,
          "gazeCondition": "away",
          "faceOnLeft": true
        },
        {
          "trial_number": 7,
          "trial_index": 461,
          "rt": 469,
          "correct": true,
          "colorTarget": "face",
          "gazeTowards": false,
          "gazeCondition": "away",
          "faceOnLeft": true
        },
        {
          "trial_number": 8,
          "trial_index": 524,
          "rt": 508,
          "correct": true,
          "colorTarget": "face",
          "gazeTowards": true,
          "gazeCondition": "towards",
          "faceOnLeft": false
        },
        {
          "trial_number": 9,
          "trial_index": 558,
          "rt": 534,
          "correct": true,
          "colorTarget": "face",
          "gazeTowards": false,
          "gazeCondition": "away",
          "faceOnLeft": true
        },
        {
          "trial_number": 10,
          "trial_index": 646,
          "rt": 554,
          "correct": true,
          "colorTarget": "face",
          "gazeTowards": false,
          "gazeCondition": "away",
          "faceOnLeft": true
        },
        {
          "trial_number": 11,
          "trial_index": 659,
          "rt": 474,
          "correct": true,
          "colorTarget": "face",
          "gazeTowards": false,
          "gazeCondition": "away",
          "faceOnLeft": true
        }
      ]
    },
    "practice": {
      "trials": [
        {
          "trial_number": 0,
          "rt": 1555,
          "correct": true,
          "direction": 0
        },
        {
          "trial_number": 1,
          "rt": 959,
          "correct": true,
          "direction": 180
        },
        {
          "trial_number": 2,
          "rt": 944,
          "correct": true,
          "direction": 180
        },
        {
          "trial_number": 3,
          "rt": 947,
          "correct": true,
          "direction": 180
        },
        {
          "trial_number": 4,
          "rt": 776,
          "correct": true,
          "direction": 180
        },
        {
          "trial_number": 5,
          "rt": 674,
          "correct": true,
          "direction": 0
        },
        {
          "trial_number": 6,
          "rt": 634,
          "correct": true,
          "direction": 180
        },
        {
          "trial_number": 7,
          "rt": 667,
          "correct": true,
          "direction": 0
        },
        {
          "trial_number": 8,
          "rt": 605,
          "correct": true,
          "direction": 0
        },
        {
          "trial_number": 9,
          "rt": 667,
          "correct": true,
          "direction": 0
        }
      ],
      "meanRT": 843,
      "accuracy": 100
    }
  }
}