{
  "experiment": "rdk-face-1",
  "UUID": "54781765-ce7a-4b4a-bd78-b832691e4545",
  "data": {
    "session": {
      "experiment_version": "1.8.6",
      "treatment": "faces_towards_away_catch",
      "file_version": "1.8.6",
      "totalTrials": 120,
      "totalTrialsIncludingCatch": 132,
      "conditions": {
        "gazeTowardsCount": 60,
        "gazeAwayCount": 60,
        "gazeTowardsAccuracy": 100,
        "gazeAwayAccuracy": 100
      },
      "session_group": "default",
      "browserData": {
        "os": "Unknown",
        "browser": "Chrome",
        "screenResolution": "1366x768",
        "browserViewport": "1366x768",
        "devicePixelRatio": 1,
        "colorDepth": 24,
        "hardwareConcurrency": 8,
        "deviceMemory": 4,
        "gpuRenderer": "ANGLE (ARM, Mali-G72, OpenGL ES 3.2)",
        "measuredRefreshRateHz": 53
      },
      "attention": {
        "visibilityEvents": []
      },
      "calibration": {
        "monitorWidthCm": 38,
        "viewingDistanceCm": 54,
        "pixelsPerDegree": 50
      },
      "parameters": {
        "coherence": 0.4,
        "apertureDeg": 5,
        "densityDotsPerDeg2": 40,
        "dotDiameterDeg": 0.035,
        "dotSpeedDegPerSec": 3,
        "lifetimeMs": 200,
        "fixationDurationMs": 1500,
        "faceDurationMs": 1500,
        "testDurationMs": 2000,
        "catchResponseMs": 3000
      },
      "prolific": {
        "prolificPid": "678cb09be2da97686a860d32",
        "studyId": "",
        "sessionId": ""
      },
      "timing": {
        "startTime": "2026-03-06T06:58:03.229Z",
        "endTime": "2026-03-06T07:11:56.329Z",
        "totalElapsedTimeMs": 833100
      }
    },
    "trials": [
      {
        "trial_number": 0,
        "trial_index": 49,
        "rt": 1546,
        "correct": true,
        "response": "ArrowLeft",
        "congruent": false,
        "gazeTowards": true,
        "gazeCondition": "towards",
        "faceOnLeft": true,
        "impliedDirection": 0,
        "testDirection": 180,
        "avgFps": 60,
        "minFps": 59,
        "maxFps": 68,
        "totalFrames": 93,
        "frameRates": 60
      },
      {
        "trial_number": 1,
        "trial_index": 54,
        "rt": 1327,
        "correct": true,
        "response": "ArrowLeft",
        "congruent": true,
        "gazeTowards": false,
        "gazeCondition": "away",
        "faceOnLeft": false,
        "impliedDirection": 180,
        "testDirection": 180,
        "avgFps": 60,
        "minFps": 59,
        "maxFps": 68,
        "totalFrames": 79,
        "frameRates": 60
      },
      {
        "trial_number": 2,
        "trial_index": 59,
        "rt": 871,
        "correct": true,
        "response": "ArrowRight",
        "congruent": false,
        "gazeTowards": false,
        "gazeCondition": "away",
        "faceOnLeft": false,
        "impliedDirection": 180,
        "testDirection": 0,
        "avgFps": 60,
        "minFps": 59,
        "maxFps": 68,
        "totalFrames": 52,
        "frameRates": 60
      },
      {
        "trial_number": 3,
        "trial_index": 64,
        "rt": 1200,
        "correct": true,
        "response": "ArrowLeft",
        "congruent": true,
        "gazeTowards": true,
        "gazeCondition": "towards",
        "faceOnLeft": false,
        "impliedDirection": 180,
        "testDirection": 180,
        "avgFps": 61,
        "minFps": 59,
        "maxFps": null,
        "totalFrames": 72,
        "frameRates": 61
      },
      {
        "trial_number": 4,
        "trial_index": 69,
        "rt": 1203,
        "correct": true,
        "response": "ArrowLeft",
        "congruent": false,
        "gazeTowards": false,
        "gazeCondition": "away",
        "faceOnLeft": true,
        "impliedDirection": 0,
        "testDirection": 180,
        "avgFps": 60,
        "minFps": 58,
        "maxFps": 69,
        "totalFrames": 72,
        "frameRates": 60
      },
      {
        "trial_number": 5,
        "trial_index": 74,
        "rt": 1174,
        "correct": true,
        "response": "ArrowLeft",
        "congruent": false,
        "gazeTowards": true,
        "gazeCondition": "towards",
        "faceOnLeft": true,
        "impliedDirection": 0,
        "testDirection": 180,
        "avgFps": 61,
        "minFps": 59,
        "maxFps": null,
        "totalFrames": 71,
        "frameRates": 61
      },
      {
        "trial_number": 6,
        "trial_index": 79,
        "rt": 1343,
        "correct": true,
        "response": "ArrowLeft",
        "congruent": false,
        "gazeTowards": false,
        "gazeCondition": "away",
        "faceOnLeft": true,
        "impliedDirection": 0,
        "testDirection": 180,
        "avgFps": 60,
        "minFps": 59,
        "maxFps": 67,
        "totalFrames": 80,
        "frameRates": 60
      },
      {
        "trial_number": 7,
        "trial_index": 84,
        "rt": 1102,
        "correct": true,
        "response": "ArrowLeft",
        "congruent": false,
        "gazeTowards": true,
        "gazeCondition": "towards",
        "faceOnLeft": true,
        "impliedDirection": 0,
        "testDirection": 180,
        "avgFps": 61,
        "minFps": 59,
        "maxFps": null,
        "totalFrames": 67,
        "frameRates": 61
      },
      {
        "trial_number": 8,
        "trial_index": 89,
        "rt": 1172,
        "correct": true,
        "response": "ArrowLeft",
        "congruent": true,
        "gazeTowards": false,
        "gazeCondition": "away",
        "faceOnLeft": false,
        "impliedDirection": 180,
        "testDirection": 180,
        "avgFps": 60,
        "minFps": 59,
        "maxFps": 68,
        "totalFrames": 71,
        "frameRates": 60
      },
      {
        "trial_number": 9,
        "trial_index": 94,
        "rt": 1023,
        "correct": true,
        "response": "ArrowRight",
        "congruent": false,
        "gazeTowards": true,
        "gazeCondition": "towards",
        "faceOnLeft": false,
        "impliedDirection": 180,
        "testDirection": 0,
        "avgFps": 60,
        "minFps": 59,
        "maxFps": 68,
        "totalFrames": 61,
        "frameRates": 60
      },
      {
        "trial_number": 10,
        "trial_index": 99,
        "rt": 830,
        "correct": true,
        "response": "ArrowRight",
        "congruent": true,
        "gazeTowards": true,
        "gazeCondition": "towards",
        "faceOnLeft": true,
        "impliedDirection": 0,
        "testDirection": 0,
        "avgFps": 60,
        "minFps": 60,
        "maxFps": 68,
        "totalFrames": 50,
        "frameRates": 60
      },
      {
        "trial_number": 11,
        "trial_index": 104,
        "rt": 784,
        "correct": true,
        "response": "ArrowRight",
        "congruent": false,
        "gazeTowards": true,
        "gazeCondition": "towards",
        "faceOnLeft": false,
        "impliedDirection": 180,
        "testDirection": 0,
        "avgFps": 60,
        "minFps": 59,
        "maxFps": 67,
        "totalFrames": 47,
        "frameRates": 60
      },
      {
        "trial_number": 12,
        "trial_index": 109,
        "rt": 950,
        "correct": true,
        "response": "ArrowRight",
        "congruent": true,
        "gazeTowards": false,
        "gazeCondition": "away",
        "faceOnLeft": true,
        "impliedDirection": 0,
        "testDirection": 0,
        "avgFps": 60,
        "minFps": 59,
        "maxFps": 67,
        "totalFrames": 57,
        "frameRates": 60
      },
      {
        "trial_number": 13,
        "trial_index": 117,
        "rt": 1021,
        "correct": true,
        "response": "ArrowLeft",
        "congruent": false,
        "gazeTowards": false,
        "gazeCondition": "away",
        "faceOnLeft": true,
        "impliedDirection": 0,
        "testDirection": 180,
        "avgFps": 60,
        "minFps": 59,
        "maxFps": 68,
        "totalFrames": 62,
        "frameRates": 60
      },
      {
        "trial_number": 14,
        "trial_index": 122,
        "rt": 739,
        "correct": true,
        "response": "ArrowRight",
        "congruent": true,
        "gazeTowards": false,
        "gazeCondition": "away",
        "faceOnLeft": true,
        "impliedDirection": 0,
        "testDirection": 0,
        "avgFps": 60,
        "minFps": 59,
        "maxFps": 68,
        "totalFrames": 45,
        "frameRates": 60
      },
      {
        "trial_number": 15,
        "trial_index": 127,
        "rt": 765,
        "correct": true,
        "response": "ArrowLeft",
        "congruent": false,
        "gazeTowards": false,
        "gazeCondition": "away",
        "faceOnLeft": true,
        "impliedDirection": 0,
        "testDirection": 180,
        "avgFps": 62,
        "minFps": 60,
        "maxFps": null,
        "totalFrames": 46,
        "frameRates": 62
      },
      {
        "trial_number": 16,
        "trial_index": 132,
        "rt": 864,
        "correct": true,
        "response": "ArrowLeft",
        "congruent": true,
        "gazeTowards": true,
        "gazeCondition": "towards",
        "faceOnLeft": false,
        "impliedDirection": 180,
        "testDirection": 180,
        "avgFps": 60,
        "minFps": 59,
        "maxFps": 67,
        "totalFrames": 52,
        "frameRates": 60
      },
      {
        "trial_number": 17,
        "trial_index": 137,
        "rt": 971,
        "correct": true,
        "response": "ArrowLeft",
        "congruent": false,
        "gazeTowards": true,
        "gazeCondition": "towards",
        "faceOnLeft": true,
        "impliedDirection": 0,
        "testDirection": 180,
        "avgFps": 61,
        "minFps": 60,
        "maxFps": null,
        "totalFrames": 59,
        "frameRates": 61
      },
      {
        "trial_number": 18,
        "trial_index": 142,
        "rt": 756,
        "correct": true,
        "response": "ArrowLeft",
        "congruent": false,
        "gazeTowards": false,
        "gazeCondition": "away",
        "faceOnLeft": true,
        "impliedDirection": 0,
        "testDirection": 180,
        "avgFps": 60,
        "minFps": 60,
        "maxFps": 68,
        "totalFrames": 46,
        "frameRates": 60
      },
      {
        "trial_number": 19,
        "trial_index": 147,
        "rt": 987,
        "correct": true,
        "response": "ArrowRight",
        "congruent": true,
        "gazeTowards": true,
        "gazeCondition": "towards",
        "faceOnLeft": true,
        "impliedDirection": 0,
        "testDirection": 0,
        "avgFps": 60,
        "minFps": 59,
        "maxFps": 68,
        "totalFrames": 60,
        "frameRates": 60
      },
      {
        "trial_number": 20,
        "trial_index": 152,
        "rt": 806,
        "correct": true,
        "response": "ArrowRight",
        "congruent": false,
        "gazeTowards": false,
        "gazeCondition": "away",
        "faceOnLeft": false,
        "impliedDirection": 180,
        "testDirection": 0,
        "avgFps": 60,
        "minFps": 60,
        "maxFps": 68,
        "totalFrames": 48,
        "frameRates": 60
      },
      {
        "trial_number": 21,
        "trial_index": 157,
        "rt": 1053,
        "correct": true,
        "response": "ArrowRight",
        "congruent": true,
        "gazeTowards": true,
        "gazeCondition": "towards",
        "faceOnLeft": true,
        "impliedDirection": 0,
        "testDirection": 0,
        "avgFps": 61,
        "minFps": 59,
        "maxFps": null,
        "totalFrames": 64,
        "frameRates": 61
      },
      {
        "trial_number": 22,
        "trial_index": 165,
        "rt": 734,
        "correct": true,
        "response": "ArrowRight",
        "congruent": true,
        "gazeTowards": true,
        "gazeCondition": "towards",
        "faceOnLeft": true,
        "impliedDirection": 0,
        "testDirection": 0,
        "avgFps": 60,
        "minFps": 59,
        "maxFps": 68,
        "totalFrames": 44,
        "frameRates": 60
      },
      {
        "trial_number": 23,
        "trial_index": 170,
        "rt": 709,
        "correct": true,
        "response": "ArrowLeft",
        "congruent": true,
        "gazeTowards": false,
        "gazeCondition": "away",
        "faceOnLeft": false,
        "impliedDirection": 180,
        "testDirection": 180,
        "avgFps": 60,
        "minFps": 60,
        "maxFps": 67,
        "totalFrames": 42,
        "frameRates": 60
      },
      {
        "trial_number": 24,
        "trial_index": 175,
        "rt": 928,
        "correct": true,
        "response": "ArrowRight",
        "congruent": true,
        "gazeTowards": false,
        "gazeCondition": "away",
        "faceOnLeft": true,
        "impliedDirection": 0,
        "testDirection": 0,
        "avgFps": 60,
        "minFps": 60,
        "maxFps": 68,
        "totalFrames": 56,
        "frameRates": 60
      },
      {
        "trial_number": 25,
        "trial_index": 180,
        "rt": 694,
        "correct": true,
        "response": "ArrowLeft",
        "congruent": true,
        "gazeTowards": false,
        "gazeCondition": "away",
        "faceOnLeft": false,
        "impliedDirection": 180,
        "testDirection": 180,
        "avgFps": 60,
        "minFps": 60,
        "maxFps": 68,
        "totalFrames": 42,
        "frameRates": 60
      },
      {
        "trial_number": 26,
        "trial_index": 185,
        "rt": 782,
        "correct": true,
        "response": "ArrowRight",
        "congruent": false,
        "gazeTowards": false,
        "gazeCondition": "away",
        "faceOnLeft": false,
        "impliedDirection": 180,
        "testDirection": 0,
        "avgFps": 60,
        "minFps": 59,
        "maxFps": 68,
        "totalFrames": 47,
        "frameRates": 60
      },
      {
        "trial_number": 27,
        "trial_index": 190,
        "rt": 800,
        "correct": true,
        "response": "ArrowRight",
        "congruent": false,
        "gazeTowards": true,
        "gazeCondition": "towards",
        "faceOnLeft": false,
        "impliedDirection": 180,
        "testDirection": 0,
        "avgFps": 60,
        "minFps": 59,
        "maxFps": 67,
        "totalFrames": 48,
        "frameRates": 60
      },
      {
        "trial_number": 28,
        "trial_index": 195,
        "rt": 893,
        "correct": true,
        "response": "ArrowRight",
        "congruent": false,
        "gazeTowards": true,
        "gazeCondition": "towards",
        "faceOnLeft": false,
        "impliedDirection": 180,
        "testDirection": 0,
        "avgFps": 60,
        "minFps": 59,
        "maxFps": 69,
        "totalFrames": 54,
        "frameRates": 60
      },
      {
        "trial_number": 29,
        "trial_index": 200,
        "rt": 1000,
        "correct": true,
        "response": "ArrowLeft",
        "congruent": false,
        "gazeTowards": true,
        "gazeCondition": "towards",
        "faceOnLeft": true,
        "impliedDirection": 0,
        "testDirection": 180,
        "avgFps": 60,
        "minFps": 59,
        "maxFps": 68,
        "totalFrames": 60,
        "frameRates": 60
      },
      {
        "trial_number": 30,
        "trial_index": 205,
        "rt": 805,
        "correct": true,
        "response": "ArrowRight",
        "congruent": true,
        "gazeTowards": true,
        "gazeCondition": "towards",
        "faceOnLeft": true,
        "impliedDirection": 0,
        "testDirection": 0,
        "avgFps": 60,
        "minFps": 60,
        "maxFps": 68,
        "totalFrames": 48,
        "frameRates": 60
      },
      {
        "trial_number": 31,
        "trial_index": 211,
        "rt": 1255,
        "correct": true,
        "response": "ArrowLeft",
        "congruent": false,
        "gazeTowards": false,
        "gazeCondition": "away",
        "faceOnLeft": true,
        "impliedDirection": 0,
        "testDirection": 180,
        "avgFps": 60,
        "minFps": 59,
        "maxFps": 68,
        "totalFrames": 76,
        "frameRates": 60
      },
      {
        "trial_number": 32,
        "trial_index": 216,
        "rt": 859,
        "correct": true,
        "response": "ArrowLeft",
        "congruent": false,
        "gazeTowards": true,
        "gazeCondition": "towards",
        "faceOnLeft": true,
        "impliedDirection": 0,
        "testDirection": 180,
        "avgFps": 60,
        "minFps": 59,
        "maxFps": 68,
        "totalFrames": 52,
        "frameRates": 60
      },
      {
        "trial_number": 33,
        "trial_index": 224,
        "rt": 801,
        "correct": true,
        "response": "ArrowRight",
        "congruent": true,
        "gazeTowards": false,
        "gazeCondition": "away",
        "faceOnLeft": true,
        "impliedDirection": 0,
        "testDirection": 0,
        "avgFps": 60,
        "minFps": 60,
        "maxFps": 67,
        "totalFrames": 48,
        "frameRates": 60
      },
      {
        "trial_number": 34,
        "trial_index": 229,
        "rt": 736,
        "correct": true,
        "response": "ArrowRight",
        "congruent": true,
        "gazeTowards": true,
        "gazeCondition": "towards",
        "faceOnLeft": true,
        "impliedDirection": 0,
        "testDirection": 0,
        "avgFps": 60,
        "minFps": 59,
        "maxFps": 68,
        "totalFrames": 44,
        "frameRates": 60
      },
      {
        "trial_number": 35,
        "trial_index": 234,
        "rt": 717,
        "correct": true,
        "response": "ArrowLeft",
        "congruent": false,
        "gazeTowards": false,
        "gazeCondition": "away",
        "faceOnLeft": true,
        "impliedDirection": 0,
        "testDirection": 180,
        "avgFps": 60,
        "minFps": 59,
        "maxFps": 68,
        "totalFrames": 43,
        "frameRates": 60
      },
      {
        "trial_number": 36,
        "trial_index": 239,
        "rt": 940,
        "correct": true,
        "response": "ArrowRight",
        "congruent": true,
        "gazeTowards": true,
        "gazeCondition": "towards",
        "faceOnLeft": true,
        "impliedDirection": 0,
        "testDirection": 0,
        "avgFps": 60,
        "minFps": 59,
        "maxFps": 66,
        "totalFrames": 57,
        "frameRates": 60
      },
      {
        "trial_number": 37,
        "trial_index": 244,
        "rt": 871,
        "correct": true,
        "response": "ArrowLeft",
        "congruent": false,
        "gazeTowards": false,
        "gazeCondition": "away",
        "faceOnLeft": true,
        "impliedDirection": 0,
        "testDirection": 180,
        "avgFps": 60,
        "minFps": 58,
        "maxFps": 67,
        "totalFrames": 53,
        "frameRates": 60
      },
      {
        "trial_number": 38,
        "trial_index": 249,
        "rt": 838,
        "correct": true,
        "response": "ArrowLeft",
        "congruent": false,
        "gazeTowards": false,
        "gazeCondition": "away",
        "faceOnLeft": true,
        "impliedDirection": 0,
        "testDirection": 180,
        "avgFps": 60,
        "minFps": 59,
        "maxFps": 68,
        "totalFrames": 50,
        "frameRates": 60
      },
      {
        "trial_number": 39,
        "trial_index": 254,
        "rt": 755,
        "correct": true,
        "response": "ArrowLeft",
        "congruent": false,
        "gazeTowards": true,
        "gazeCondition": "towards",
        "faceOnLeft": true,
        "impliedDirection": 0,
        "testDirection": 180,
        "avgFps": 60,
        "minFps": 59,
        "maxFps": 68,
        "totalFrames": 45,
        "frameRates": 60
      },
      {
        "trial_number": 40,
        "trial_index": 259,
        "rt": 859,
        "correct": true,
        "response": "ArrowLeft",
        "congruent": false,
        "gazeTowards": false,
        "gazeCondition": "away",
        "faceOnLeft": true,
        "impliedDirection": 0,
        "testDirection": 180,
        "avgFps": 60,
        "minFps": 59,
        "maxFps": 69,
        "totalFrames": 52,
        "frameRates": 60
      },
      {
        "trial_number": 41,
        "trial_index": 264,
        "rt": 991,
        "correct": true,
        "response": "ArrowLeft",
        "congruent": false,
        "gazeTowards": false,
        "gazeCondition": "away",
        "faceOnLeft": true,
        "impliedDirection": 0,
        "testDirection": 180,
        "avgFps": 60,
        "minFps": 59,
        "maxFps": 68,
        "totalFrames": 60,
        "frameRates": 60
      },
      {
        "trial_number": 42,
        "trial_index": 272,
        "rt": 1119,
        "correct": true,
        "response": "ArrowLeft",
        "congruent": true,
        "gazeTowards": false,
        "gazeCondition": "away",
        "faceOnLeft": false,
        "impliedDirection": 180,
        "testDirection": 180,
        "avgFps": 60,
        "minFps": 59,
        "maxFps": 68,
        "totalFrames": 67,
        "frameRates": 60
      },
      {
        "trial_number": 43,
        "trial_index": 277,
        "rt": 790,
        "correct": true,
        "response": "ArrowRight",
        "congruent": false,
        "gazeTowards": true,
        "gazeCondition": "towards",
        "faceOnLeft": false,
        "impliedDirection": 180,
        "testDirection": 0,
        "avgFps": 60,
        "minFps": 59,
        "maxFps": 68,
        "totalFrames": 48,
        "frameRates": 60
      },
      {
        "trial_number": 44,
        "trial_index": 282,
        "rt": 734,
        "correct": true,
        "response": "ArrowRight",
        "congruent": false,
        "gazeTowards": true,
        "gazeCondition": "towards",
        "faceOnLeft": false,
        "impliedDirection": 180,
        "testDirection": 0,
        "avgFps": 60,
        "minFps": 59,
        "maxFps": 68,
        "totalFrames": 44,
        "frameRates": 60
      },
      {
        "trial_number": 45,
        "trial_index": 287,
        "rt": 569,
        "correct": true,
        "response": "ArrowLeft",
        "congruent": false,
        "gazeTowards": false,
        "gazeCondition": "away",
        "faceOnLeft": true,
        "impliedDirection": 0,
        "testDirection": 180,
        "avgFps": 60,
        "minFps": 59,
        "maxFps": 68,
        "totalFrames": 34,
        "frameRates": 60
      },
      {
        "trial_number": 46,
        "trial_index": 292,
        "rt": 534,
        "correct": true,
        "response": "ArrowRight",
        "congruent": true,
        "gazeTowards": false,
        "gazeCondition": "away",
        "faceOnLeft": true,
        "impliedDirection": 0,
        "testDirection": 0,
        "avgFps": 60,
        "minFps": 60,
        "maxFps": 68,
        "totalFrames": 32,
        "frameRates": 60
      },
      {
        "trial_number": 47,
        "trial_index": 297,
        "rt": 672,
        "correct": true,
        "response": "ArrowRight",
        "congruent": false,
        "gazeTowards": false,
        "gazeCondition": "away",
        "faceOnLeft": false,
        "impliedDirection": 180,
        "testDirection": 0,
        "avgFps": 60,
        "minFps": 60,
        "maxFps": 68,
        "totalFrames": 41,
        "frameRates": 60
      },
      {
        "trial_number": 48,
        "trial_index": 302,
        "rt": 613,
        "correct": true,
        "response": "ArrowLeft",
        "congruent": true,
        "gazeTowards": false,
        "gazeCondition": "away",
        "faceOnLeft": false,
        "impliedDirection": 180,
        "testDirection": 180,
        "avgFps": 60,
        "minFps": 59,
        "maxFps": 68,
        "totalFrames": 37,
        "frameRates": 60
      },
      {
        "trial_number": 49,
        "trial_index": 307,
        "rt": 712,
        "correct": true,
        "response": "ArrowRight",
        "congruent": true,
        "gazeTowards": false,
        "gazeCondition": "away",
        "faceOnLeft": true,
        "impliedDirection": 0,
        "testDirection": 0,
        "avgFps": 60,
        "minFps": 60,
        "maxFps": 67,
        "totalFrames": 42,
        "frameRates": 60
      },
      {
        "trial_number": 50,
        "trial_index": 312,
        "rt": 1713,
        "correct": true,
        "response": "ArrowRight",
        "congruent": true,
        "gazeTowards": true,
        "gazeCondition": "towards",
        "faceOnLeft": true,
        "impliedDirection": 0,
        "testDirection": 0,
        "avgFps": 60,
        "minFps": 59,
        "maxFps": 68,
        "totalFrames": 103,
        "frameRates": 60
      },
      {
        "trial_number": 51,
        "trial_index": 317,
        "rt": 601,
        "correct": true,
        "response": "ArrowRight",
        "congruent": true,
        "gazeTowards": true,
        "gazeCondition": "towards",
        "faceOnLeft": true,
        "impliedDirection": 0,
        "testDirection": 0,
        "avgFps": 60,
        "minFps": 60,
        "maxFps": 68,
        "totalFrames": 36,
        "frameRates": 60
      },
      {
        "trial_number": 52,
        "trial_index": 322,
        "rt": 628,
        "correct": true,
        "response": "ArrowLeft",
        "congruent": false,
        "gazeTowards": true,
        "gazeCondition": "towards",
        "faceOnLeft": true,
        "impliedDirection": 0,
        "testDirection": 180,
        "avgFps": 60,
        "minFps": 60,
        "maxFps": 67,
        "totalFrames": 38,
        "frameRates": 60
      },
      {
        "trial_number": 53,
        "trial_index": 330,
        "rt": 582,
        "correct": true,
        "response": "ArrowLeft",
        "congruent": true,
        "gazeTowards": false,
        "gazeCondition": "away",
        "faceOnLeft": false,
        "impliedDirection": 180,
        "testDirection": 180,
        "avgFps": 62,
        "minFps": 60,
        "maxFps": null,
        "totalFrames": 35,
        "frameRates": 62
      },
      {
        "trial_number": 54,
        "trial_index": 338,
        "rt": 544,
        "correct": true,
        "response": "ArrowRight",
        "congruent": true,
        "gazeTowards": true,
        "gazeCondition": "towards",
        "faceOnLeft": true,
        "impliedDirection": 0,
        "testDirection": 0,
        "avgFps": 60,
        "minFps": 59,
        "maxFps": 68,
        "totalFrames": 33,
        "frameRates": 60
      },
      {
        "trial_number": 55,
        "trial_index": 343,
        "rt": 614,
        "correct": true,
        "response": "ArrowLeft",
        "congruent": false,
        "gazeTowards": true,
        "gazeCondition": "towards",
        "faceOnLeft": true,
        "impliedDirection": 0,
        "testDirection": 180,
        "avgFps": 60,
        "minFps": 60,
        "maxFps": 68,
        "totalFrames": 37,
        "frameRates": 60
      },
      {
        "trial_number": 56,
        "trial_index": 348,
        "rt": 740,
        "correct": true,
        "response": "ArrowRight",
        "congruent": false,
        "gazeTowards": true,
        "gazeCondition": "towards",
        "faceOnLeft": false,
        "impliedDirection": 180,
        "testDirection": 0,
        "avgFps": 60,
        "minFps": 59,
        "maxFps": 68,
        "totalFrames": 45,
        "frameRates": 60
      },
      {
        "trial_number": 57,
        "trial_index": 353,
        "rt": 622,
        "correct": true,
        "response": "ArrowLeft",
        "congruent": false,
        "gazeTowards": false,
        "gazeCondition": "away",
        "faceOnLeft": true,
        "impliedDirection": 0,
        "testDirection": 180,
        "avgFps": 60,
        "minFps": 59,
        "maxFps": 69,
        "totalFrames": 38,
        "frameRates": 60
      },
      {
        "trial_number": 58,
        "trial_index": 358,
        "rt": 621,
        "correct": true,
        "response": "ArrowLeft",
        "congruent": false,
        "gazeTowards": true,
        "gazeCondition": "towards",
        "faceOnLeft": true,
        "impliedDirection": 0,
        "testDirection": 180,
        "avgFps": 60,
        "minFps": 59,
        "maxFps": 68,
        "totalFrames": 38,
        "frameRates": 60
      },
      {
        "trial_number": 59,
        "trial_index": 363,
        "rt": 577,
        "correct": true,
        "response": "ArrowLeft",
        "congruent": false,
        "gazeTowards": true,
        "gazeCondition": "towards",
        "faceOnLeft": true,
        "impliedDirection": 0,
        "testDirection": 180,
        "avgFps": 60,
        "minFps": 60,
        "maxFps": 68,
        "totalFrames": 35,
        "frameRates": 60
      },
      {
        "trial_number": 60,
        "trial_index": 372,
        "rt": 764,
        "correct": true,
        "response": "ArrowLeft",
        "congruent": true,
        "gazeTowards": true,
        "gazeCondition": "towards",
        "faceOnLeft": false,
        "impliedDirection": 180,
        "testDirection": 180,
        "avgFps": 60,
        "minFps": 60,
        "maxFps": 68,
        "totalFrames": 46,
        "frameRates": 60
      },
      {
        "trial_number": 61,
        "trial_index": 377,
        "rt": 725,
        "correct": true,
        "response": "ArrowRight",
        "congruent": false,
        "gazeTowards": false,
        "gazeCondition": "away",
        "faceOnLeft": false,
        "impliedDirection": 180,
        "testDirection": 0,
        "avgFps": 60,
        "minFps": 59,
        "maxFps": 68,
        "totalFrames": 43,
        "frameRates": 60
      },
      {
        "trial_number": 62,
        "trial_index": 382,
        "rt": 817,
        "correct": true,
        "response": "ArrowLeft",
        "congruent": false,
        "gazeTowards": true,
        "gazeCondition": "towards",
        "faceOnLeft": true,
        "impliedDirection": 0,
        "testDirection": 180,
        "avgFps": 60,
        "minFps": 59,
        "maxFps": 68,
        "totalFrames": 49,
        "frameRates": 60
      },
      {
        "trial_number": 63,
        "trial_index": 387,
        "rt": 597,
        "correct": true,
        "response": "ArrowLeft",
        "congruent": true,
        "gazeTowards": true,
        "gazeCondition": "towards",
        "faceOnLeft": false,
        "impliedDirection": 180,
        "testDirection": 180,
        "avgFps": 60,
        "minFps": 59,
        "maxFps": 68,
        "totalFrames": 36,
        "frameRates": 60
      },
      {
        "trial_number": 64,
        "trial_index": 392,
        "rt": 615,
        "correct": true,
        "response": "ArrowLeft",
        "congruent": false,
        "gazeTowards": false,
        "gazeCondition": "away",
        "faceOnLeft": true,
        "impliedDirection": 0,
        "testDirection": 180,
        "avgFps": 60,
        "minFps": 59,
        "maxFps": 68,
        "totalFrames": 37,
        "frameRates": 60
      },
      {
        "trial_number": 65,
        "trial_index": 397,
        "rt": 582,
        "correct": true,
        "response": "ArrowRight",
        "congruent": true,
        "gazeTowards": true,
        "gazeCondition": "towards",
        "faceOnLeft": true,
        "impliedDirection": 0,
        "testDirection": 0,
        "avgFps": 60,
        "minFps": 59,
        "maxFps": 67,
        "totalFrames": 35,
        "frameRates": 60
      },
      {
        "trial_number": 66,
        "trial_index": 402,
        "rt": 538,
        "correct": true,
        "response": "ArrowLeft",
        "congruent": true,
        "gazeTowards": true,
        "gazeCondition": "towards",
        "faceOnLeft": false,
        "impliedDirection": 180,
        "testDirection": 180,
        "avgFps": 60,
        "minFps": 59,
        "maxFps": 67,
        "totalFrames": 32,
        "frameRates": 60
      },
      {
        "trial_number": 67,
        "trial_index": 407,
        "rt": 607,
        "correct": true,
        "response": "ArrowRight",
        "congruent": true,
        "gazeTowards": false,
        "gazeCondition": "away",
        "faceOnLeft": true,
        "impliedDirection": 0,
        "testDirection": 0,
        "avgFps": 62,
        "minFps": 59,
        "maxFps": null,
        "totalFrames": 37,
        "frameRates": 62
      },
      {
        "trial_number": 68,
        "trial_index": 412,
        "rt": 561,
        "correct": true,
        "response": "ArrowRight",
        "congruent": false,
        "gazeTowards": true,
        "gazeCondition": "towards",
        "faceOnLeft": false,
        "impliedDirection": 180,
        "testDirection": 0,
        "avgFps": 60,
        "minFps": 60,
        "maxFps": 68,
        "totalFrames": 33,
        "frameRates": 60
      },
      {
        "trial_number": 69,
        "trial_index": 417,
        "rt": 682,
        "correct": true,
        "response": "ArrowRight",
        "congruent": false,
        "gazeTowards": true,
        "gazeCondition": "towards",
        "faceOnLeft": false,
        "impliedDirection": 180,
        "testDirection": 0,
        "avgFps": 60,
        "minFps": 59,
        "maxFps": 68,
        "totalFrames": 41,
        "frameRates": 60
      },
      {
        "trial_number": 70,
        "trial_index": 422,
        "rt": 559,
        "correct": true,
        "response": "ArrowLeft",
        "congruent": true,
        "gazeTowards": true,
        "gazeCondition": "towards",
        "faceOnLeft": false,
        "impliedDirection": 180,
        "testDirection": 180,
        "avgFps": 60,
        "minFps": 60,
        "maxFps": 67,
        "totalFrames": 33,
        "frameRates": 60
      },
      {
        "trial_number": 71,
        "trial_index": 427,
        "rt": 578,
        "correct": true,
        "response": "ArrowRight",
        "congruent": false,
        "gazeTowards": true,
        "gazeCondition": "towards",
        "faceOnLeft": false,
        "impliedDirection": 180,
        "testDirection": 0,
        "avgFps": 60,
        "minFps": 59,
        "maxFps": 68,
        "totalFrames": 35,
        "frameRates": 60
      },
      {
        "trial_number": 72,
        "trial_index": 435,
        "rt": 619,
        "correct": true,
        "response": "ArrowLeft",
        "congruent": false,
        "gazeTowards": true,
        "gazeCondition": "towards",
        "faceOnLeft": true,
        "impliedDirection": 0,
        "testDirection": 180,
        "avgFps": 60,
        "minFps": 58,
        "maxFps": 67,
        "totalFrames": 37,
        "frameRates": 60
      },
      {
        "trial_number": 73,
        "trial_index": 440,
        "rt": 540,
        "correct": true,
        "response": "ArrowLeft",
        "congruent": false,
        "gazeTowards": false,
        "gazeCondition": "away",
        "faceOnLeft": true,
        "impliedDirection": 0,
        "testDirection": 180,
        "avgFps": 60,
        "minFps": 60,
        "maxFps": 68,
        "totalFrames": 32,
        "frameRates": 60
      },
      {
        "trial_number": 74,
        "trial_index": 445,
        "rt": 585,
        "correct": true,
        "response": "ArrowRight",
        "congruent": false,
        "gazeTowards": true,
        "gazeCondition": "towards",
        "faceOnLeft": false,
        "impliedDirection": 180,
        "testDirection": 0,
        "avgFps": 60,
        "minFps": 60,
        "maxFps": 68,
        "totalFrames": 36,
        "frameRates": 60
      },
      {
        "trial_number": 75,
        "trial_index": 450,
        "rt": 488,
        "correct": true,
        "response": "ArrowLeft",
        "congruent": true,
        "gazeTowards": false,
        "gazeCondition": "away",
        "faceOnLeft": false,
        "impliedDirection": 180,
        "testDirection": 180,
        "avgFps": 60,
        "minFps": 60,
        "maxFps": 67,
        "totalFrames": 29,
        "frameRates": 60
      },
      {
        "trial_number": 76,
        "trial_index": 455,
        "rt": 536,
        "correct": true,
        "response": "ArrowRight",
        "congruent": true,
        "gazeTowards": false,
        "gazeCondition": "away",
        "faceOnLeft": true,
        "impliedDirection": 0,
        "testDirection": 0,
        "avgFps": 60,
        "minFps": 60,
        "maxFps": 68,
        "totalFrames": 32,
        "frameRates": 60
      },
      {
        "trial_number": 77,
        "trial_index": 460,
        "rt": 683,
        "correct": true,
        "response": "ArrowLeft",
        "congruent": true,
        "gazeTowards": true,
        "gazeCondition": "towards",
        "faceOnLeft": false,
        "impliedDirection": 180,
        "testDirection": 180,
        "avgFps": 60,
        "minFps": 60,
        "maxFps": 67,
        "totalFrames": 41,
        "frameRates": 60
      },
      {
        "trial_number": 78,
        "trial_index": 465,
        "rt": 675,
        "correct": true,
        "response": "ArrowLeft",
        "congruent": true,
        "gazeTowards": true,
        "gazeCondition": "towards",
        "faceOnLeft": false,
        "impliedDirection": 180,
        "testDirection": 180,
        "avgFps": 60,
        "minFps": 59,
        "maxFps": 68,
        "totalFrames": 41,
        "frameRates": 60
      },
      {
        "trial_number": 79,
        "trial_index": 470,
        "rt": 629,
        "correct": true,
        "response": "ArrowRight",
        "congruent": false,
        "gazeTowards": true,
        "gazeCondition": "towards",
        "faceOnLeft": false,
        "impliedDirection": 180,
        "testDirection": 0,
        "avgFps": 60,
        "minFps": 60,
        "maxFps": 68,
        "totalFrames": 38,
        "frameRates": 60
      },
      {
        "trial_number": 80,
        "trial_index": 475,
        "rt": 683,
        "correct": true,
        "response": "ArrowRight",
        "congruent": false,
        "gazeTowards": false,
        "gazeCondition": "away",
        "faceOnLeft": false,
        "impliedDirection": 180,
        "testDirection": 0,
        "avgFps": 60,
        "minFps": 59,
        "maxFps": 68,
        "totalFrames": 41,
        "frameRates": 60
      },
      {
        "trial_number": 81,
        "trial_index": 480,
        "rt": 612,
        "correct": true,
        "response": "ArrowLeft",
        "congruent": true,
        "gazeTowards": false,
        "gazeCondition": "away",
        "faceOnLeft": false,
        "impliedDirection": 180,
        "testDirection": 180,
        "avgFps": 60,
        "minFps": 60,
        "maxFps": 68,
        "totalFrames": 37,
        "frameRates": 60
      },
      {
        "trial_number": 82,
        "trial_index": 485,
        "rt": 610,
        "correct": true,
        "response": "ArrowRight",
        "congruent": true,
        "gazeTowards": true,
        "gazeCondition": "towards",
        "faceOnLeft": true,
        "impliedDirection": 0,
        "testDirection": 0,
        "avgFps": 60,
        "minFps": 59,
        "maxFps": 68,
        "totalFrames": 37,
        "frameRates": 60
      },
      {
        "trial_number": 83,
        "trial_index": 490,
        "rt": 648,
        "correct": true,
        "response": "ArrowRight",
        "congruent": true,
        "gazeTowards": false,
        "gazeCondition": "away",
        "faceOnLeft": true,
        "impliedDirection": 0,
        "testDirection": 0,
        "avgFps": 60,
        "minFps": 60,
        "maxFps": 68,
        "totalFrames": 39,
        "frameRates": 60
      },
      {
        "trial_number": 84,
        "trial_index": 495,
        "rt": 636,
        "correct": true,
        "response": "ArrowRight",
        "congruent": true,
        "gazeTowards": false,
        "gazeCondition": "away",
        "faceOnLeft": true,
        "impliedDirection": 0,
        "testDirection": 0,
        "avgFps": 60,
        "minFps": 59,
        "maxFps": 68,
        "totalFrames": 38,
        "frameRates": 60
      },
      {
        "trial_number": 85,
        "trial_index": 500,
        "rt": 583,
        "correct": true,
        "response": "ArrowLeft",
        "congruent": true,
        "gazeTowards": true,
        "gazeCondition": "towards",
        "faceOnLeft": false,
        "impliedDirection": 180,
        "testDirection": 180,
        "avgFps": 60,
        "minFps": 59,
        "maxFps": 68,
        "totalFrames": 35,
        "frameRates": 60
      },
      {
        "trial_number": 86,
        "trial_index": 508,
        "rt": 606,
        "correct": true,
        "response": "ArrowLeft",
        "congruent": true,
        "gazeTowards": false,
        "gazeCondition": "away",
        "faceOnLeft": false,
        "impliedDirection": 180,
        "testDirection": 180,
        "avgFps": 60,
        "minFps": 59,
        "maxFps": 68,
        "totalFrames": 36,
        "frameRates": 60
      },
      {
        "trial_number": 87,
        "trial_index": 513,
        "rt": 618,
        "correct": true,
        "response": "ArrowRight",
        "congruent": true,
        "gazeTowards": false,
        "gazeCondition": "away",
        "faceOnLeft": true,
        "impliedDirection": 0,
        "testDirection": 0,
        "avgFps": 60,
        "minFps": 59,
        "maxFps": 67,
        "totalFrames": 37,
        "frameRates": 60
      },
      {
        "trial_number": 88,
        "trial_index": 518,
        "rt": 506,
        "correct": true,
        "response": "ArrowRight",
        "congruent": true,
        "gazeTowards": false,
        "gazeCondition": "away",
        "faceOnLeft": true,
        "impliedDirection": 0,
        "testDirection": 0,
        "avgFps": 60,
        "minFps": 60,
        "maxFps": 68,
        "totalFrames": 31,
        "frameRates": 60
      },
      {
        "trial_number": 89,
        "trial_index": 523,
        "rt": 564,
        "correct": true,
        "response": "ArrowRight",
        "congruent": true,
        "gazeTowards": false,
        "gazeCondition": "away",
        "faceOnLeft": true,
        "impliedDirection": 0,
        "testDirection": 0,
        "avgFps": 60,
        "minFps": 59,
        "maxFps": 68,
        "totalFrames": 34,
        "frameRates": 60
      },
      {
        "trial_number": 90,
        "trial_index": 529,
        "rt": 778,
        "correct": true,
        "response": "ArrowLeft",
        "congruent": false,
        "gazeTowards": false,
        "gazeCondition": "away",
        "faceOnLeft": true,
        "impliedDirection": 0,
        "testDirection": 180,
        "avgFps": 60,
        "minFps": 59,
        "maxFps": 68,
        "totalFrames": 47,
        "frameRates": 60
      },
      {
        "trial_number": 91,
        "trial_index": 534,
        "rt": 652,
        "correct": true,
        "response": "ArrowRight",
        "congruent": true,
        "gazeTowards": true,
        "gazeCondition": "towards",
        "faceOnLeft": true,
        "impliedDirection": 0,
        "testDirection": 0,
        "avgFps": 62,
        "minFps": 59,
        "maxFps": null,
        "totalFrames": 40,
        "frameRates": 62
      },
      {
        "trial_number": 92,
        "trial_index": 539,
        "rt": 582,
        "correct": true,
        "response": "ArrowLeft",
        "congruent": false,
        "gazeTowards": true,
        "gazeCondition": "towards",
        "faceOnLeft": true,
        "impliedDirection": 0,
        "testDirection": 180,
        "avgFps": 60,
        "minFps": 60,
        "maxFps": 68,
        "totalFrames": 35,
        "frameRates": 60
      },
      {
        "trial_number": 93,
        "trial_index": 544,
        "rt": 551,
        "correct": true,
        "response": "ArrowLeft",
        "congruent": true,
        "gazeTowards": true,
        "gazeCondition": "towards",
        "faceOnLeft": false,
        "impliedDirection": 180,
        "testDirection": 180,
        "avgFps": 60,
        "minFps": 59,
        "maxFps": 68,
        "totalFrames": 33,
        "frameRates": 60
      },
      {
        "trial_number": 94,
        "trial_index": 552,
        "rt": 477,
        "correct": true,
        "response": "ArrowRight",
        "congruent": true,
        "gazeTowards": false,
        "gazeCondition": "away",
        "faceOnLeft": true,
        "impliedDirection": 0,
        "testDirection": 0,
        "avgFps": 60,
        "minFps": 59,
        "maxFps": 68,
        "totalFrames": 29,
        "frameRates": 60
      },
      {
        "trial_number": 95,
        "trial_index": 557,
        "rt": 587,
        "correct": true,
        "response": "ArrowLeft",
        "congruent": false,
        "gazeTowards": false,
        "gazeCondition": "away",
        "faceOnLeft": true,
        "impliedDirection": 0,
        "testDirection": 180,
        "avgFps": 60,
        "minFps": 60,
        "maxFps": 68,
        "totalFrames": 35,
        "frameRates": 60
      },
      {
        "trial_number": 96,
        "trial_index": 562,
        "rt": 614,
        "correct": true,
        "response": "ArrowRight",
        "congruent": true,
        "gazeTowards": false,
        "gazeCondition": "away",
        "faceOnLeft": true,
        "impliedDirection": 0,
        "testDirection": 0,
        "avgFps": 60,
        "minFps": 59,
        "maxFps": 68,
        "totalFrames": 37,
        "frameRates": 60
      },
      {
        "trial_number": 97,
        "trial_index": 567,
        "rt": 571,
        "correct": true,
        "response": "ArrowLeft",
        "congruent": false,
        "gazeTowards": false,
        "gazeCondition": "away",
        "faceOnLeft": true,
        "impliedDirection": 0,
        "testDirection": 180,
        "avgFps": 60,
        "minFps": 59,
        "maxFps": 68,
        "totalFrames": 34,
        "frameRates": 60
      },
      {
        "trial_number": 98,
        "trial_index": 572,
        "rt": 577,
        "correct": true,
        "response": "ArrowLeft",
        "congruent": true,
        "gazeTowards": true,
        "gazeCondition": "towards",
        "faceOnLeft": false,
        "impliedDirection": 180,
        "testDirection": 180,
        "avgFps": 60,
        "minFps": 59,
        "maxFps": 68,
        "totalFrames": 35,
        "frameRates": 60
      },
      {
        "trial_number": 99,
        "trial_index": 577,
        "rt": 565,
        "correct": true,
        "response": "ArrowLeft",
        "congruent": false,
        "gazeTowards": true,
        "gazeCondition": "towards",
        "faceOnLeft": true,
        "impliedDirection": 0,
        "testDirection": 180,
        "avgFps": 60,
        "minFps": 59,
        "maxFps": 68,
        "totalFrames": 34,
        "frameRates": 60
      },
      {
        "trial_number": 100,
        "trial_index": 582,
        "rt": 857,
        "correct": true,
        "response": "ArrowRight",
        "congruent": true,
        "gazeTowards": false,
        "gazeCondition": "away",
        "faceOnLeft": true,
        "impliedDirection": 0,
        "testDirection": 0,
        "avgFps": 60,
        "minFps": 59,
        "maxFps": 67,
        "totalFrames": 51,
        "frameRates": 60
      },
      {
        "trial_number": 101,
        "trial_index": 587,
        "rt": 579,
        "correct": true,
        "response": "ArrowRight",
        "congruent": false,
        "gazeTowards": true,
        "gazeCondition": "towards",
        "faceOnLeft": false,
        "impliedDirection": 180,
        "testDirection": 0,
        "avgFps": 60,
        "minFps": 59,
        "maxFps": 68,
        "totalFrames": 35,
        "frameRates": 60
      },
      {
        "trial_number": 102,
        "trial_index": 592,
        "rt": 541,
        "correct": true,
        "response": "ArrowRight",
        "congruent": true,
        "gazeTowards": false,
        "gazeCondition": "away",
        "faceOnLeft": true,
        "impliedDirection": 0,
        "testDirection": 0,
        "avgFps": 60,
        "minFps": 60,
        "maxFps": 68,
        "totalFrames": 33,
        "frameRates": 60
      },
      {
        "trial_number": 103,
        "trial_index": 597,
        "rt": 635,
        "correct": true,
        "response": "ArrowLeft",
        "congruent": true,
        "gazeTowards": false,
        "gazeCondition": "away",
        "faceOnLeft": false,
        "impliedDirection": 180,
        "testDirection": 180,
        "avgFps": 60,
        "minFps": 59,
        "maxFps": 68,
        "totalFrames": 38,
        "frameRates": 60
      },
      {
        "trial_number": 104,
        "trial_index": 608,
        "rt": 582,
        "correct": true,
        "response": "ArrowLeft",
        "congruent": true,
        "gazeTowards": true,
        "gazeCondition": "towards",
        "faceOnLeft": false,
        "impliedDirection": 180,
        "testDirection": 180,
        "avgFps": 60,
        "minFps": 59,
        "maxFps": 68,
        "totalFrames": 35,
        "frameRates": 60
      },
      {
        "trial_number": 105,
        "trial_index": 613,
        "rt": 496,
        "correct": true,
        "response": "ArrowRight",
        "congruent": false,
        "gazeTowards": false,
        "gazeCondition": "away",
        "faceOnLeft": false,
        "impliedDirection": 180,
        "testDirection": 0,
        "avgFps": 60,
        "minFps": 60,
        "maxFps": 68,
        "totalFrames": 30,
        "frameRates": 60
      },
      {
        "trial_number": 106,
        "trial_index": 618,
        "rt": 584,
        "correct": true,
        "response": "ArrowLeft",
        "congruent": false,
        "gazeTowards": false,
        "gazeCondition": "away",
        "faceOnLeft": true,
        "impliedDirection": 0,
        "testDirection": 180,
        "avgFps": 60,
        "minFps": 60,
        "maxFps": 69,
        "totalFrames": 35,
        "frameRates": 60
      },
      {
        "trial_number": 107,
        "trial_index": 623,
        "rt": 531,
        "correct": true,
        "response": "ArrowLeft",
        "congruent": false,
        "gazeTowards": false,
        "gazeCondition": "away",
        "faceOnLeft": true,
        "impliedDirection": 0,
        "testDirection": 180,
        "avgFps": 60,
        "minFps": 60,
        "maxFps": 68,
        "totalFrames": 32,
        "frameRates": 60
      },
      {
        "trial_number": 108,
        "trial_index": 628,
        "rt": 511,
        "correct": true,
        "response": "ArrowRight",
        "congruent": true,
        "gazeTowards": true,
        "gazeCondition": "towards",
        "faceOnLeft": true,
        "impliedDirection": 0,
        "testDirection": 0,
        "avgFps": 60,
        "minFps": 60,
        "maxFps": 68,
        "totalFrames": 30,
        "frameRates": 60
      },
      {
        "trial_number": 109,
        "trial_index": 633,
        "rt": 519,
        "correct": true,
        "response": "ArrowLeft",
        "congruent": true,
        "gazeTowards": true,
        "gazeCondition": "towards",
        "faceOnLeft": false,
        "impliedDirection": 180,
        "testDirection": 180,
        "avgFps": 60,
        "minFps": 59,
        "maxFps": 68,
        "totalFrames": 32,
        "frameRates": 60
      },
      {
        "trial_number": 110,
        "trial_index": 638,
        "rt": 631,
        "correct": true,
        "response": "ArrowRight",
        "congruent": true,
        "gazeTowards": false,
        "gazeCondition": "away",
        "faceOnLeft": true,
        "impliedDirection": 0,
        "testDirection": 0,
        "avgFps": 60,
        "minFps": 59,
        "maxFps": 69,
        "totalFrames": 38,
        "frameRates": 60
      },
      {
        "trial_number": 111,
        "trial_index": 643,
        "rt": 567,
        "correct": true,
        "response": "ArrowLeft",
        "congruent": false,
        "gazeTowards": false,
        "gazeCondition": "away",
        "faceOnLeft": true,
        "impliedDirection": 0,
        "testDirection": 180,
        "avgFps": 60,
        "minFps": 60,
        "maxFps": 68,
        "totalFrames": 34,
        "frameRates": 60
      },
      {
        "trial_number": 112,
        "trial_index": 648,
        "rt": 522,
        "correct": true,
        "response": "ArrowLeft",
        "congruent": false,
        "gazeTowards": true,
        "gazeCondition": "towards",
        "faceOnLeft": true,
        "impliedDirection": 0,
        "testDirection": 180,
        "avgFps": 60,
        "minFps": 59,
        "maxFps": 68,
        "totalFrames": 31,
        "frameRates": 60
      },
      {
        "trial_number": 113,
        "trial_index": 653,
        "rt": 479,
        "correct": true,
        "response": "ArrowLeft",
        "congruent": true,
        "gazeTowards": false,
        "gazeCondition": "away",
        "faceOnLeft": false,
        "impliedDirection": 180,
        "testDirection": 180,
        "avgFps": 60,
        "minFps": 59,
        "maxFps": 67,
        "totalFrames": 29,
        "frameRates": 60
      },
      {
        "trial_number": 114,
        "trial_index": 658,
        "rt": 678,
        "correct": true,
        "response": "ArrowLeft",
        "congruent": false,
        "gazeTowards": true,
        "gazeCondition": "towards",
        "faceOnLeft": true,
        "impliedDirection": 0,
        "testDirection": 180,
        "avgFps": 60,
        "minFps": 59,
        "maxFps": 68,
        "totalFrames": 41,
        "frameRates": 60
      },
      {
        "trial_number": 115,
        "trial_index": 663,
        "rt": 449,
        "correct": true,
        "response": "ArrowRight",
        "congruent": true,
        "gazeTowards": true,
        "gazeCondition": "towards",
        "faceOnLeft": true,
        "impliedDirection": 0,
        "testDirection": 0,
        "avgFps": 61,
        "minFps": 58,
        "maxFps": 69,
        "totalFrames": 27,
        "frameRates": 61
      },
      {
        "trial_number": 116,
        "trial_index": 668,
        "rt": 508,
        "correct": true,
        "response": "ArrowRight",
        "congruent": false,
        "gazeTowards": false,
        "gazeCondition": "away",
        "faceOnLeft": false,
        "impliedDirection": 180,
        "testDirection": 0,
        "avgFps": 60,
        "minFps": 59,
        "maxFps": 68,
        "totalFrames": 30,
        "frameRates": 60
      },
      {
        "trial_number": 117,
        "trial_index": 673,
        "rt": 582,
        "correct": true,
        "response": "ArrowRight",
        "congruent": false,
        "gazeTowards": false,
        "gazeCondition": "away",
        "faceOnLeft": false,
        "impliedDirection": 180,
        "testDirection": 0,
        "avgFps": 60,
        "minFps": 60,
        "maxFps": 68,
        "totalFrames": 35,
        "frameRates": 60
      },
      {
        "trial_number": 118,
        "trial_index": 678,
        "rt": 714,
        "correct": true,
        "response": "ArrowLeft",
        "congruent": true,
        "gazeTowards": true,
        "gazeCondition": "towards",
        "faceOnLeft": false,
        "impliedDirection": 180,
        "testDirection": 180,
        "avgFps": 60,
        "minFps": 60,
        "maxFps": 67,
        "totalFrames": 43,
        "frameRates": 60
      },
      {
        "trial_number": 119,
        "trial_index": 683,
        "rt": 699,
        "correct": true,
        "response": "ArrowRight",
        "congruent": true,
        "gazeTowards": true,
        "gazeCondition": "towards",
        "faceOnLeft": true,
        "impliedDirection": 0,
        "testDirection": 0,
        "avgFps": 60,
        "minFps": 60,
        "maxFps": 68,
        "totalFrames": 42,
        "frameRates": 60
      }
    ],
    "catch": {
      "total": 12,
      "correct": 12,
      "accuracy": 100,
      "meanRT": 662,
      "trials": [
        {
          "trial_number": 0,
          "trial_index": 113,
          "rt": 753,
          "correct": true,
          "colorTarget": "tree",
          "gazeTowards": false,
          "gazeCondition": "away",
          "faceOnLeft": true
        },
        {
          "trial_number": 1,
          "trial_index": 161,
          "rt": 496,
          "correct": true,
          "colorTarget": "tree",
          "gazeTowards": false,
          "gazeCondition": "away",
          "faceOnLeft": true
        },
        {
          "trial_number": 2,
          "trial_index": 220,
          "rt": 931,
          "correct": true,
          "colorTarget": "tree",
          "gazeTowards": true,
          "gazeCondition": "towards",
          "faceOnLeft": true
        },
        {
          "trial_number": 3,
          "trial_index": 268,
          "rt": 750,
          "correct": true,
          "colorTarget": "face",
          "gazeTowards": true,
          "gazeCondition": "towards",
          "faceOnLeft": false
        },
        {
          "trial_number": 4,
          "trial_index": 326,
          "rt": 697,
          "correct": true,
          "colorTarget": "tree",
          "gazeTowards": true,
          "gazeCondition": "towards",
          "faceOnLeft": true
        },
        {
          "trial_number": 5,
          "trial_index": 334,
          "rt": 466,
          "correct": true,
          "colorTarget": "tree",
          "gazeTowards": false,
          "gazeCondition": "away",
          "faceOnLeft": false
        },
        {
          "trial_number": 6,
          "trial_index": 368,
          "rt": 555,
          "correct": true,
          "colorTarget": "tree",
          "gazeTowards": false,
          "gazeCondition": "away",
          "faceOnLeft": true
        },
        {
          "trial_number": 7,
          "trial_index": 431,
          "rt": 713,
          "correct": true,
          "colorTarget": "face",
          "gazeTowards": false,
          "gazeCondition": "away",
          "faceOnLeft": true
        },
        {
          "trial_number": 8,
          "trial_index": 504,
          "rt": 520,
          "correct": true,
          "colorTarget": "face",
          "gazeTowards": true,
          "gazeCondition": "towards",
          "faceOnLeft": false
        },
        {
          "trial_number": 9,
          "trial_index": 548,
          "rt": 834,
          "correct": true,
          "colorTarget": "face",
          "gazeTowards": false,
          "gazeCondition": "away",
          "faceOnLeft": true
        },
        {
          "trial_number": 10,
          "trial_index": 601,
          "rt": 604,
          "correct": true,
          "colorTarget": "face",
          "gazeTowards": true,
          "gazeCondition": "towards",
          "faceOnLeft": false
        },
        {
          "trial_number": 11,
          "trial_index": 604,
          "rt": 623,
          "correct": true,
          "colorTarget": "face",
          "gazeTowards": false,
          "gazeCondition": "away",
          "faceOnLeft": false
        }
      ]
    },
    "practice": {
      "trials": [
        {
          "trial_number": 0,
          "rt": null,
          "correct": false,
          "direction": 180
        },
        {
          "trial_number": 1,
          "rt": 961,
          "correct": true,
          "direction": 0
        },
        {
          "trial_number": 2,
          "rt": 999,
          "correct": true,
          "direction": 180
        },
        {
          "trial_number": 3,
          "rt": 889,
          "correct": true,
          "direction": 0
        },
        {
          "trial_number": 4,
          "rt": 1149,
          "correct": true,
          "direction": 0
        },
        {
          "trial_number": 5,
          "rt": 683,
          "correct": true,
          "direction": 0
        },
        {
          "trial_number": 6,
          "rt": 1231,
          "correct": true,
          "direction": 0
        },
        {
          "trial_number": 7,
          "rt": 947,
          "correct": true,
          "direction": 180
        },
        {
          "trial_number": 8,
          "rt": 1375,
          "correct": true,
          "direction": 0
        },
        {
          "trial_number": 9,
          "rt": 1012,
          "correct": true,
          "direction": 180
        }
      ],
      "meanRT": 1027,
      "accuracy": 90
    }
  }
}