{
  "experiment": "rdk-face-1",
  "UUID": "c619580c-1749-4d36-9fb3-f85b07f3bd72",
  "data": {
    "session": {
      "experiment_version": "1.8.6",
      "treatment": "faces_towards_away_catch",
      "file_version": "1.8.6",
      "totalTrials": 120,
      "totalTrialsIncludingCatch": 132,
      "conditions": {
        "gazeTowardsCount": 60,
        "gazeAwayCount": 60,
        "gazeTowardsAccuracy": 88,
        "gazeAwayAccuracy": 78
      },
      "session_group": "default",
      "browserData": {
        "os": "Windows",
        "browser": "Chrome",
        "screenResolution": "1536x864",
        "browserViewport": "1536x864",
        "devicePixelRatio": 2.5,
        "colorDepth": 32,
        "hardwareConcurrency": 8,
        "deviceMemory": 8,
        "gpuRenderer": "ANGLE (Intel, Intel(R) UHD Graphics (0x00009B41) Direct3D11 vs_5_0 ps_5_0, D3D11)",
        "measuredRefreshRateHz": 57
      },
      "attention": {
        "visibilityEvents": [
          {
            "event": "blur",
            "state": "blurred",
            "timestamp": 1772781359413
          },
          {
            "event": "focus",
            "state": "focused",
            "timestamp": 1772781360974
          }
        ]
      },
      "calibration": {
        "monitorWidthCm": 38,
        "viewingDistanceCm": 54,
        "pixelsPerDegree": 50
      },
      "parameters": {
        "coherence": 0.4,
        "apertureDeg": 5,
        "densityDotsPerDeg2": 40,
        "dotDiameterDeg": 0.035,
        "dotSpeedDegPerSec": 3,
        "lifetimeMs": 200,
        "fixationDurationMs": 1500,
        "faceDurationMs": 1500,
        "testDurationMs": 2000,
        "catchResponseMs": 3000
      },
      "prolific": {
        "prolificPid": "5b012b19293d310001023590",
        "studyId": "",
        "sessionId": ""
      },
      "timing": {
        "startTime": "2026-03-06T06:57:41.499Z",
        "endTime": "2026-03-06T07:20:32.949Z",
        "totalElapsedTimeMs": 1371450
      }
    },
    "trials": [
      {
        "trial_number": 0,
        "trial_index": 90,
        "rt": 1519,
        "correct": true,
        "response": "ArrowLeft",
        "congruent": false,
        "gazeTowards": true,
        "gazeCondition": "towards",
        "faceOnLeft": true,
        "impliedDirection": 0,
        "testDirection": 180,
        "avgFps": 60,
        "minFps": 59,
        "maxFps": 61,
        "totalFrames": 91,
        "frameRates": 60
      },
      {
        "trial_number": 1,
        "trial_index": 95,
        "rt": 1277,
        "correct": false,
        "response": "ArrowRight",
        "congruent": false,
        "gazeTowards": false,
        "gazeCondition": "away",
        "faceOnLeft": true,
        "impliedDirection": 0,
        "testDirection": 180,
        "avgFps": 60,
        "minFps": 56,
        "maxFps": 61,
        "totalFrames": 77,
        "frameRates": 60
      },
      {
        "trial_number": 2,
        "trial_index": 100,
        "rt": 1417,
        "correct": false,
        "response": "ArrowRight",
        "congruent": false,
        "gazeTowards": false,
        "gazeCondition": "away",
        "faceOnLeft": true,
        "impliedDirection": 0,
        "testDirection": 180,
        "avgFps": 60,
        "minFps": 52,
        "maxFps": 65,
        "totalFrames": 84,
        "frameRates": 60
      },
      {
        "trial_number": 3,
        "trial_index": 105,
        "rt": 1538,
        "correct": true,
        "response": "ArrowLeft",
        "congruent": false,
        "gazeTowards": true,
        "gazeCondition": "towards",
        "faceOnLeft": true,
        "impliedDirection": 0,
        "testDirection": 180,
        "avgFps": 60,
        "minFps": 59,
        "maxFps": 61,
        "totalFrames": 92,
        "frameRates": 60
      },
      {
        "trial_number": 4,
        "trial_index": 110,
        "rt": 1303,
        "correct": true,
        "response": "ArrowRight",
        "congruent": false,
        "gazeTowards": true,
        "gazeCondition": "towards",
        "faceOnLeft": false,
        "impliedDirection": 180,
        "testDirection": 0,
        "avgFps": 60,
        "minFps": 59,
        "maxFps": 61,
        "totalFrames": 78,
        "frameRates": 60
      },
      {
        "trial_number": 5,
        "trial_index": 115,
        "rt": 1193,
        "correct": true,
        "response": "ArrowRight",
        "congruent": false,
        "gazeTowards": true,
        "gazeCondition": "towards",
        "faceOnLeft": false,
        "impliedDirection": 180,
        "testDirection": 0,
        "avgFps": 60,
        "minFps": 59,
        "maxFps": 61,
        "totalFrames": 71,
        "frameRates": 60
      },
      {
        "trial_number": 6,
        "trial_index": 120,
        "rt": 1234,
        "correct": true,
        "response": "ArrowLeft",
        "congruent": false,
        "gazeTowards": false,
        "gazeCondition": "away",
        "faceOnLeft": true,
        "impliedDirection": 0,
        "testDirection": 180,
        "avgFps": 60,
        "minFps": 59,
        "maxFps": 61,
        "totalFrames": 74,
        "frameRates": 60
      },
      {
        "trial_number": 7,
        "trial_index": 125,
        "rt": 1559,
        "correct": true,
        "response": "ArrowRight",
        "congruent": true,
        "gazeTowards": true,
        "gazeCondition": "towards",
        "faceOnLeft": true,
        "impliedDirection": 0,
        "testDirection": 0,
        "avgFps": 60,
        "minFps": 59,
        "maxFps": 61,
        "totalFrames": 94,
        "frameRates": 60
      },
      {
        "trial_number": 8,
        "trial_index": 130,
        "rt": 1837,
        "correct": true,
        "response": "ArrowRight",
        "congruent": true,
        "gazeTowards": true,
        "gazeCondition": "towards",
        "faceOnLeft": true,
        "impliedDirection": 0,
        "testDirection": 0,
        "avgFps": 60,
        "minFps": 59,
        "maxFps": 61,
        "totalFrames": 110,
        "frameRates": 60
      },
      {
        "trial_number": 9,
        "trial_index": 135,
        "rt": 1506,
        "correct": true,
        "response": "ArrowRight",
        "congruent": true,
        "gazeTowards": true,
        "gazeCondition": "towards",
        "faceOnLeft": true,
        "impliedDirection": 0,
        "testDirection": 0,
        "avgFps": 60,
        "minFps": 59,
        "maxFps": 61,
        "totalFrames": 91,
        "frameRates": 60
      },
      {
        "trial_number": 10,
        "trial_index": 140,
        "rt": 1526,
        "correct": false,
        "response": "ArrowLeft",
        "congruent": true,
        "gazeTowards": true,
        "gazeCondition": "towards",
        "faceOnLeft": true,
        "impliedDirection": 0,
        "testDirection": 0,
        "avgFps": 60,
        "minFps": 59,
        "maxFps": 61,
        "totalFrames": 91,
        "frameRates": 60
      },
      {
        "trial_number": 11,
        "trial_index": 145,
        "rt": 1386,
        "correct": true,
        "response": "ArrowRight",
        "congruent": false,
        "gazeTowards": true,
        "gazeCondition": "towards",
        "faceOnLeft": false,
        "impliedDirection": 180,
        "testDirection": 0,
        "avgFps": 60,
        "minFps": 59,
        "maxFps": 128,
        "totalFrames": 83,
        "frameRates": 60
      },
      {
        "trial_number": 12,
        "trial_index": 150,
        "rt": 1359,
        "correct": true,
        "response": "ArrowRight",
        "congruent": true,
        "gazeTowards": true,
        "gazeCondition": "towards",
        "faceOnLeft": true,
        "impliedDirection": 0,
        "testDirection": 0,
        "avgFps": 60,
        "minFps": 59,
        "maxFps": 122,
        "totalFrames": 82,
        "frameRates": 60
      },
      {
        "trial_number": 13,
        "trial_index": 155,
        "rt": 1631,
        "correct": true,
        "response": "ArrowRight",
        "congruent": false,
        "gazeTowards": true,
        "gazeCondition": "towards",
        "faceOnLeft": false,
        "impliedDirection": 180,
        "testDirection": 0,
        "avgFps": 60,
        "minFps": 59,
        "maxFps": 61,
        "totalFrames": 98,
        "frameRates": 60
      },
      {
        "trial_number": 14,
        "trial_index": 160,
        "rt": 1867,
        "correct": true,
        "response": "ArrowRight",
        "congruent": false,
        "gazeTowards": true,
        "gazeCondition": "towards",
        "faceOnLeft": false,
        "impliedDirection": 180,
        "testDirection": 0,
        "avgFps": 60,
        "minFps": 59,
        "maxFps": 61,
        "totalFrames": 112,
        "frameRates": 60
      },
      {
        "trial_number": 15,
        "trial_index": 165,
        "rt": 1500,
        "correct": true,
        "response": "ArrowRight",
        "congruent": true,
        "gazeTowards": false,
        "gazeCondition": "away",
        "faceOnLeft": true,
        "impliedDirection": 0,
        "testDirection": 0,
        "avgFps": 60,
        "minFps": 59,
        "maxFps": 61,
        "totalFrames": 90,
        "frameRates": 60
      },
      {
        "trial_number": 16,
        "trial_index": 173,
        "rt": null,
        "correct": false,
        "response": null,
        "congruent": false,
        "gazeTowards": false,
        "gazeCondition": "away",
        "faceOnLeft": true,
        "impliedDirection": 0,
        "testDirection": 180,
        "avgFps": 60,
        "minFps": 59,
        "maxFps": 61,
        "totalFrames": 121,
        "frameRates": 60
      },
      {
        "trial_number": 17,
        "trial_index": 178,
        "rt": 877,
        "correct": true,
        "response": "ArrowRight",
        "congruent": false,
        "gazeTowards": true,
        "gazeCondition": "towards",
        "faceOnLeft": false,
        "impliedDirection": 180,
        "testDirection": 0,
        "avgFps": 60,
        "minFps": 59,
        "maxFps": 61,
        "totalFrames": 52,
        "frameRates": 60
      },
      {
        "trial_number": 18,
        "trial_index": 183,
        "rt": 923,
        "correct": true,
        "response": "ArrowLeft",
        "congruent": true,
        "gazeTowards": false,
        "gazeCondition": "away",
        "faceOnLeft": false,
        "impliedDirection": 180,
        "testDirection": 180,
        "avgFps": 60,
        "minFps": 59,
        "maxFps": 61,
        "totalFrames": 55,
        "frameRates": 60
      },
      {
        "trial_number": 19,
        "trial_index": 191,
        "rt": 1274,
        "correct": true,
        "response": "ArrowLeft",
        "congruent": true,
        "gazeTowards": false,
        "gazeCondition": "away",
        "faceOnLeft": false,
        "impliedDirection": 180,
        "testDirection": 180,
        "avgFps": 61,
        "minFps": 59,
        "maxFps": 195,
        "totalFrames": 77,
        "frameRates": 61
      },
      {
        "trial_number": 20,
        "trial_index": 199,
        "rt": 1771,
        "correct": true,
        "response": "ArrowLeft",
        "congruent": true,
        "gazeTowards": true,
        "gazeCondition": "towards",
        "faceOnLeft": false,
        "impliedDirection": 180,
        "testDirection": 180,
        "avgFps": 60,
        "minFps": 59,
        "maxFps": 116,
        "totalFrames": 106,
        "frameRates": 60
      },
      {
        "trial_number": 21,
        "trial_index": 204,
        "rt": 979,
        "correct": true,
        "response": "ArrowLeft",
        "congruent": false,
        "gazeTowards": true,
        "gazeCondition": "towards",
        "faceOnLeft": true,
        "impliedDirection": 0,
        "testDirection": 180,
        "avgFps": 60,
        "minFps": 59,
        "maxFps": 61,
        "totalFrames": 58,
        "frameRates": 60
      },
      {
        "trial_number": 22,
        "trial_index": 209,
        "rt": 946,
        "correct": true,
        "response": "ArrowRight",
        "congruent": true,
        "gazeTowards": false,
        "gazeCondition": "away",
        "faceOnLeft": true,
        "impliedDirection": 0,
        "testDirection": 0,
        "avgFps": 60,
        "minFps": 60,
        "maxFps": 61,
        "totalFrames": 57,
        "frameRates": 60
      },
      {
        "trial_number": 23,
        "trial_index": 214,
        "rt": 1267,
        "correct": true,
        "response": "ArrowRight",
        "congruent": false,
        "gazeTowards": false,
        "gazeCondition": "away",
        "faceOnLeft": false,
        "impliedDirection": 180,
        "testDirection": 0,
        "avgFps": 60,
        "minFps": 59,
        "maxFps": 61,
        "totalFrames": 76,
        "frameRates": 60
      },
      {
        "trial_number": 24,
        "trial_index": 219,
        "rt": 1497,
        "correct": true,
        "response": "ArrowLeft",
        "congruent": true,
        "gazeTowards": true,
        "gazeCondition": "towards",
        "faceOnLeft": false,
        "impliedDirection": 180,
        "testDirection": 180,
        "avgFps": 60,
        "minFps": 59,
        "maxFps": 61,
        "totalFrames": 90,
        "frameRates": 60
      },
      {
        "trial_number": 25,
        "trial_index": 224,
        "rt": 1481,
        "correct": true,
        "response": "ArrowRight",
        "congruent": true,
        "gazeTowards": false,
        "gazeCondition": "away",
        "faceOnLeft": true,
        "impliedDirection": 0,
        "testDirection": 0,
        "avgFps": 60,
        "minFps": 60,
        "maxFps": 61,
        "totalFrames": 89,
        "frameRates": 60
      },
      {
        "trial_number": 26,
        "trial_index": 229,
        "rt": 1192,
        "correct": true,
        "response": "ArrowRight",
        "congruent": true,
        "gazeTowards": false,
        "gazeCondition": "away",
        "faceOnLeft": true,
        "impliedDirection": 0,
        "testDirection": 0,
        "avgFps": 61,
        "minFps": 59,
        "maxFps": null,
        "totalFrames": 72,
        "frameRates": 61
      },
      {
        "trial_number": 27,
        "trial_index": 234,
        "rt": 1440,
        "correct": true,
        "response": "ArrowLeft",
        "congruent": false,
        "gazeTowards": true,
        "gazeCondition": "towards",
        "faceOnLeft": true,
        "impliedDirection": 0,
        "testDirection": 180,
        "avgFps": 60,
        "minFps": 59,
        "maxFps": 61,
        "totalFrames": 86,
        "frameRates": 60
      },
      {
        "trial_number": 28,
        "trial_index": 239,
        "rt": 1101,
        "correct": false,
        "response": "ArrowRight",
        "congruent": false,
        "gazeTowards": false,
        "gazeCondition": "away",
        "faceOnLeft": true,
        "impliedDirection": 0,
        "testDirection": 180,
        "avgFps": 61,
        "minFps": 59,
        "maxFps": null,
        "totalFrames": 66,
        "frameRates": 61
      },
      {
        "trial_number": 29,
        "trial_index": 244,
        "rt": 1404,
        "correct": true,
        "response": "ArrowRight",
        "congruent": false,
        "gazeTowards": false,
        "gazeCondition": "away",
        "faceOnLeft": false,
        "impliedDirection": 180,
        "testDirection": 0,
        "avgFps": 60,
        "minFps": 59,
        "maxFps": 61,
        "totalFrames": 84,
        "frameRates": 60
      },
      {
        "trial_number": 30,
        "trial_index": 250,
        "rt": 965,
        "correct": true,
        "response": "ArrowRight",
        "congruent": false,
        "gazeTowards": true,
        "gazeCondition": "towards",
        "faceOnLeft": false,
        "impliedDirection": 180,
        "testDirection": 0,
        "avgFps": 60,
        "minFps": 59,
        "maxFps": 96,
        "totalFrames": 58,
        "frameRates": 60
      },
      {
        "trial_number": 31,
        "trial_index": 258,
        "rt": 1205,
        "correct": false,
        "response": "ArrowLeft",
        "congruent": true,
        "gazeTowards": true,
        "gazeCondition": "towards",
        "faceOnLeft": true,
        "impliedDirection": 0,
        "testDirection": 0,
        "avgFps": 60,
        "minFps": 59,
        "maxFps": 61,
        "totalFrames": 72,
        "frameRates": 60
      },
      {
        "trial_number": 32,
        "trial_index": 263,
        "rt": 1172,
        "correct": true,
        "response": "ArrowRight",
        "congruent": false,
        "gazeTowards": true,
        "gazeCondition": "towards",
        "faceOnLeft": false,
        "impliedDirection": 180,
        "testDirection": 0,
        "avgFps": 61,
        "minFps": 59,
        "maxFps": null,
        "totalFrames": 71,
        "frameRates": 61
      },
      {
        "trial_number": 33,
        "trial_index": 268,
        "rt": 1682,
        "correct": true,
        "response": "ArrowLeft",
        "congruent": false,
        "gazeTowards": false,
        "gazeCondition": "away",
        "faceOnLeft": true,
        "impliedDirection": 0,
        "testDirection": 180,
        "avgFps": 60,
        "minFps": 59,
        "maxFps": 167,
        "totalFrames": 101,
        "frameRates": 60
      },
      {
        "trial_number": 34,
        "trial_index": 273,
        "rt": 1514,
        "correct": true,
        "response": "ArrowLeft",
        "congruent": true,
        "gazeTowards": false,
        "gazeCondition": "away",
        "faceOnLeft": false,
        "impliedDirection": 180,
        "testDirection": 180,
        "avgFps": 60,
        "minFps": 59,
        "maxFps": 86,
        "totalFrames": 91,
        "frameRates": 60
      },
      {
        "trial_number": 35,
        "trial_index": 278,
        "rt": null,
        "correct": false,
        "response": null,
        "congruent": true,
        "gazeTowards": true,
        "gazeCondition": "towards",
        "faceOnLeft": false,
        "impliedDirection": 180,
        "testDirection": 180,
        "avgFps": 60,
        "minFps": 54,
        "maxFps": 61,
        "totalFrames": 120,
        "frameRates": 60
      },
      {
        "trial_number": 36,
        "trial_index": 283,
        "rt": 992,
        "correct": true,
        "response": "ArrowRight",
        "congruent": false,
        "gazeTowards": true,
        "gazeCondition": "towards",
        "faceOnLeft": false,
        "impliedDirection": 180,
        "testDirection": 0,
        "avgFps": 61,
        "minFps": 60,
        "maxFps": 154,
        "totalFrames": 60,
        "frameRates": 61
      },
      {
        "trial_number": 37,
        "trial_index": 288,
        "rt": 1442,
        "correct": true,
        "response": "ArrowRight",
        "congruent": false,
        "gazeTowards": true,
        "gazeCondition": "towards",
        "faceOnLeft": false,
        "impliedDirection": 180,
        "testDirection": 0,
        "avgFps": 60,
        "minFps": 59,
        "maxFps": 147,
        "totalFrames": 87,
        "frameRates": 60
      },
      {
        "trial_number": 38,
        "trial_index": 293,
        "rt": 1579,
        "correct": true,
        "response": "ArrowRight",
        "congruent": true,
        "gazeTowards": false,
        "gazeCondition": "away",
        "faceOnLeft": true,
        "impliedDirection": 0,
        "testDirection": 0,
        "avgFps": 60,
        "minFps": 59,
        "maxFps": 210,
        "totalFrames": 95,
        "frameRates": 60
      },
      {
        "trial_number": 39,
        "trial_index": 298,
        "rt": 1886,
        "correct": true,
        "response": "ArrowRight",
        "congruent": true,
        "gazeTowards": true,
        "gazeCondition": "towards",
        "faceOnLeft": true,
        "impliedDirection": 0,
        "testDirection": 0,
        "avgFps": 60,
        "minFps": 59,
        "maxFps": 149,
        "totalFrames": 113,
        "frameRates": 60
      },
      {
        "trial_number": 40,
        "trial_index": 303,
        "rt": 1906,
        "correct": true,
        "response": "ArrowLeft",
        "congruent": false,
        "gazeTowards": false,
        "gazeCondition": "away",
        "faceOnLeft": true,
        "impliedDirection": 0,
        "testDirection": 180,
        "avgFps": 60,
        "minFps": 56,
        "maxFps": 114,
        "totalFrames": 114,
        "frameRates": 60
      },
      {
        "trial_number": 41,
        "trial_index": 308,
        "rt": null,
        "correct": false,
        "response": null,
        "congruent": false,
        "gazeTowards": true,
        "gazeCondition": "towards",
        "faceOnLeft": true,
        "impliedDirection": 0,
        "testDirection": 180,
        "avgFps": 60,
        "minFps": 59,
        "maxFps": 143,
        "totalFrames": 121,
        "frameRates": 60
      },
      {
        "trial_number": 42,
        "trial_index": 313,
        "rt": 1421,
        "correct": true,
        "response": "ArrowLeft",
        "congruent": true,
        "gazeTowards": true,
        "gazeCondition": "towards",
        "faceOnLeft": false,
        "impliedDirection": 180,
        "testDirection": 180,
        "avgFps": 60,
        "minFps": 59,
        "maxFps": 108,
        "totalFrames": 85,
        "frameRates": 60
      },
      {
        "trial_number": 43,
        "trial_index": 318,
        "rt": 1428,
        "correct": true,
        "response": "ArrowRight",
        "congruent": false,
        "gazeTowards": false,
        "gazeCondition": "away",
        "faceOnLeft": false,
        "impliedDirection": 180,
        "testDirection": 0,
        "avgFps": 60,
        "minFps": 59,
        "maxFps": 82,
        "totalFrames": 86,
        "frameRates": 60
      },
      {
        "trial_number": 44,
        "trial_index": 326,
        "rt": 935,
        "correct": true,
        "response": "ArrowRight",
        "congruent": true,
        "gazeTowards": false,
        "gazeCondition": "away",
        "faceOnLeft": true,
        "impliedDirection": 0,
        "testDirection": 0,
        "avgFps": 60,
        "minFps": 59,
        "maxFps": 73,
        "totalFrames": 56,
        "frameRates": 60
      },
      {
        "trial_number": 45,
        "trial_index": 331,
        "rt": 968,
        "correct": true,
        "response": "ArrowRight",
        "congruent": true,
        "gazeTowards": false,
        "gazeCondition": "away",
        "faceOnLeft": true,
        "impliedDirection": 0,
        "testDirection": 0,
        "avgFps": 61,
        "minFps": 59,
        "maxFps": 125,
        "totalFrames": 58,
        "frameRates": 61
      },
      {
        "trial_number": 46,
        "trial_index": 336,
        "rt": 966,
        "correct": true,
        "response": "ArrowLeft",
        "congruent": false,
        "gazeTowards": false,
        "gazeCondition": "away",
        "faceOnLeft": true,
        "impliedDirection": 0,
        "testDirection": 180,
        "avgFps": 60,
        "minFps": 59,
        "maxFps": 100,
        "totalFrames": 58,
        "frameRates": 60
      },
      {
        "trial_number": 47,
        "trial_index": 341,
        "rt": 1375,
        "correct": true,
        "response": "ArrowLeft",
        "congruent": true,
        "gazeTowards": true,
        "gazeCondition": "towards",
        "faceOnLeft": false,
        "impliedDirection": 180,
        "testDirection": 180,
        "avgFps": 60,
        "minFps": 59,
        "maxFps": 71,
        "totalFrames": 83,
        "frameRates": 60
      },
      {
        "trial_number": 48,
        "trial_index": 346,
        "rt": 1048,
        "correct": true,
        "response": "ArrowRight",
        "congruent": true,
        "gazeTowards": false,
        "gazeCondition": "away",
        "faceOnLeft": true,
        "impliedDirection": 0,
        "testDirection": 0,
        "avgFps": 60,
        "minFps": 59,
        "maxFps": 126,
        "totalFrames": 63,
        "frameRates": 60
      },
      {
        "trial_number": 49,
        "trial_index": 351,
        "rt": 983,
        "correct": true,
        "response": "ArrowRight",
        "congruent": true,
        "gazeTowards": true,
        "gazeCondition": "towards",
        "faceOnLeft": true,
        "impliedDirection": 0,
        "testDirection": 0,
        "avgFps": 61,
        "minFps": 59,
        "maxFps": 137,
        "totalFrames": 59,
        "frameRates": 61
      },
      {
        "trial_number": 50,
        "trial_index": 359,
        "rt": 1834,
        "correct": true,
        "response": "ArrowRight",
        "congruent": true,
        "gazeTowards": false,
        "gazeCondition": "away",
        "faceOnLeft": true,
        "impliedDirection": 0,
        "testDirection": 0,
        "avgFps": 60,
        "minFps": 59,
        "maxFps": 69,
        "totalFrames": 110,
        "frameRates": 60
      },
      {
        "trial_number": 51,
        "trial_index": 364,
        "rt": 1422,
        "correct": true,
        "response": "ArrowLeft",
        "congruent": false,
        "gazeTowards": true,
        "gazeCondition": "towards",
        "faceOnLeft": true,
        "impliedDirection": 0,
        "testDirection": 180,
        "avgFps": 60,
        "minFps": 59,
        "maxFps": 93,
        "totalFrames": 85,
        "frameRates": 60
      },
      {
        "trial_number": 52,
        "trial_index": 369,
        "rt": 1307,
        "correct": true,
        "response": "ArrowRight",
        "congruent": false,
        "gazeTowards": false,
        "gazeCondition": "away",
        "faceOnLeft": false,
        "impliedDirection": 180,
        "testDirection": 0,
        "avgFps": 60,
        "minFps": 56,
        "maxFps": 88,
        "totalFrames": 79,
        "frameRates": 60
      },
      {
        "trial_number": 53,
        "trial_index": 374,
        "rt": 941,
        "correct": true,
        "response": "ArrowRight",
        "congruent": true,
        "gazeTowards": false,
        "gazeCondition": "away",
        "faceOnLeft": true,
        "impliedDirection": 0,
        "testDirection": 0,
        "avgFps": 61,
        "minFps": 59,
        "maxFps": 152,
        "totalFrames": 57,
        "frameRates": 61
      },
      {
        "trial_number": 54,
        "trial_index": 379,
        "rt": null,
        "correct": false,
        "response": null,
        "congruent": false,
        "gazeTowards": true,
        "gazeCondition": "towards",
        "faceOnLeft": true,
        "impliedDirection": 0,
        "testDirection": 180,
        "avgFps": 60,
        "minFps": 59,
        "maxFps": 218,
        "totalFrames": 121,
        "frameRates": 60
      },
      {
        "trial_number": 55,
        "trial_index": 384,
        "rt": 1158,
        "correct": true,
        "response": "ArrowLeft",
        "congruent": true,
        "gazeTowards": true,
        "gazeCondition": "towards",
        "faceOnLeft": false,
        "impliedDirection": 180,
        "testDirection": 180,
        "avgFps": 60,
        "minFps": 59,
        "maxFps": 73,
        "totalFrames": 70,
        "frameRates": 60
      },
      {
        "trial_number": 56,
        "trial_index": 389,
        "rt": 1405,
        "correct": false,
        "response": "ArrowRight",
        "congruent": false,
        "gazeTowards": true,
        "gazeCondition": "towards",
        "faceOnLeft": true,
        "impliedDirection": 0,
        "testDirection": 180,
        "avgFps": 60,
        "minFps": 59,
        "maxFps": 84,
        "totalFrames": 84,
        "frameRates": 60
      },
      {
        "trial_number": 57,
        "trial_index": 394,
        "rt": 1668,
        "correct": true,
        "response": "ArrowLeft",
        "congruent": false,
        "gazeTowards": false,
        "gazeCondition": "away",
        "faceOnLeft": true,
        "impliedDirection": 0,
        "testDirection": 180,
        "avgFps": 60,
        "minFps": 59,
        "maxFps": 91,
        "totalFrames": 100,
        "frameRates": 60
      },
      {
        "trial_number": 58,
        "trial_index": 399,
        "rt": 959,
        "correct": true,
        "response": "ArrowLeft",
        "congruent": false,
        "gazeTowards": true,
        "gazeCondition": "towards",
        "faceOnLeft": true,
        "impliedDirection": 0,
        "testDirection": 180,
        "avgFps": 61,
        "minFps": 59,
        "maxFps": 133,
        "totalFrames": 58,
        "frameRates": 61
      },
      {
        "trial_number": 59,
        "trial_index": 404,
        "rt": 892,
        "correct": true,
        "response": "ArrowRight",
        "congruent": false,
        "gazeTowards": true,
        "gazeCondition": "towards",
        "faceOnLeft": false,
        "impliedDirection": 180,
        "testDirection": 0,
        "avgFps": 60,
        "minFps": 59,
        "maxFps": 61,
        "totalFrames": 54,
        "frameRates": 60
      },
      {
        "trial_number": 60,
        "trial_index": 413,
        "rt": 1275,
        "correct": true,
        "response": "ArrowRight",
        "congruent": true,
        "gazeTowards": false,
        "gazeCondition": "away",
        "faceOnLeft": true,
        "impliedDirection": 0,
        "testDirection": 0,
        "avgFps": 60,
        "minFps": 59,
        "maxFps": 135,
        "totalFrames": 77,
        "frameRates": 60
      },
      {
        "trial_number": 61,
        "trial_index": 418,
        "rt": 1465,
        "correct": true,
        "response": "ArrowRight",
        "congruent": false,
        "gazeTowards": false,
        "gazeCondition": "away",
        "faceOnLeft": false,
        "impliedDirection": 180,
        "testDirection": 0,
        "avgFps": 61,
        "minFps": 59,
        "maxFps": 436,
        "totalFrames": 88,
        "frameRates": 61
      },
      {
        "trial_number": 62,
        "trial_index": 423,
        "rt": 1128,
        "correct": true,
        "response": "ArrowRight",
        "congruent": true,
        "gazeTowards": true,
        "gazeCondition": "towards",
        "faceOnLeft": true,
        "impliedDirection": 0,
        "testDirection": 0,
        "avgFps": 60,
        "minFps": 59,
        "maxFps": 118,
        "totalFrames": 68,
        "frameRates": 60
      },
      {
        "trial_number": 63,
        "trial_index": 428,
        "rt": 1540,
        "correct": true,
        "response": "ArrowLeft",
        "congruent": true,
        "gazeTowards": true,
        "gazeCondition": "towards",
        "faceOnLeft": false,
        "impliedDirection": 180,
        "testDirection": 180,
        "avgFps": 60,
        "minFps": 59,
        "maxFps": 156,
        "totalFrames": 93,
        "frameRates": 60
      },
      {
        "trial_number": 64,
        "trial_index": 433,
        "rt": 924,
        "correct": true,
        "response": "ArrowRight",
        "congruent": true,
        "gazeTowards": false,
        "gazeCondition": "away",
        "faceOnLeft": true,
        "impliedDirection": 0,
        "testDirection": 0,
        "avgFps": 60,
        "minFps": 59,
        "maxFps": 102,
        "totalFrames": 56,
        "frameRates": 60
      },
      {
        "trial_number": 65,
        "trial_index": 438,
        "rt": 851,
        "correct": true,
        "response": "ArrowRight",
        "congruent": false,
        "gazeTowards": true,
        "gazeCondition": "towards",
        "faceOnLeft": false,
        "impliedDirection": 180,
        "testDirection": 0,
        "avgFps": 61,
        "minFps": 59,
        "maxFps": 119,
        "totalFrames": 51,
        "frameRates": 61
      },
      {
        "trial_number": 66,
        "trial_index": 443,
        "rt": 1593,
        "correct": true,
        "response": "ArrowLeft",
        "congruent": false,
        "gazeTowards": true,
        "gazeCondition": "towards",
        "faceOnLeft": true,
        "impliedDirection": 0,
        "testDirection": 180,
        "avgFps": 60,
        "minFps": 59,
        "maxFps": 81,
        "totalFrames": 96,
        "frameRates": 60
      },
      {
        "trial_number": 67,
        "trial_index": 448,
        "rt": 957,
        "correct": false,
        "response": "ArrowRight",
        "congruent": false,
        "gazeTowards": false,
        "gazeCondition": "away",
        "faceOnLeft": true,
        "impliedDirection": 0,
        "testDirection": 180,
        "avgFps": 61,
        "minFps": 59,
        "maxFps": 152,
        "totalFrames": 58,
        "frameRates": 61
      },
      {
        "trial_number": 68,
        "trial_index": 453,
        "rt": 1285,
        "correct": true,
        "response": "ArrowLeft",
        "congruent": false,
        "gazeTowards": false,
        "gazeCondition": "away",
        "faceOnLeft": true,
        "impliedDirection": 0,
        "testDirection": 180,
        "avgFps": 61,
        "minFps": 59,
        "maxFps": 250,
        "totalFrames": 77,
        "frameRates": 61
      },
      {
        "trial_number": 69,
        "trial_index": 458,
        "rt": 1375,
        "correct": false,
        "response": "ArrowRight",
        "congruent": true,
        "gazeTowards": false,
        "gazeCondition": "away",
        "faceOnLeft": false,
        "impliedDirection": 180,
        "testDirection": 180,
        "avgFps": 60,
        "minFps": 59,
        "maxFps": 69,
        "totalFrames": 83,
        "frameRates": 60
      },
      {
        "trial_number": 70,
        "trial_index": 463,
        "rt": 975,
        "correct": true,
        "response": "ArrowRight",
        "congruent": true,
        "gazeTowards": true,
        "gazeCondition": "towards",
        "faceOnLeft": true,
        "impliedDirection": 0,
        "testDirection": 0,
        "avgFps": 61,
        "minFps": 59,
        "maxFps": 132,
        "totalFrames": 59,
        "frameRates": 61
      },
      {
        "trial_number": 71,
        "trial_index": 468,
        "rt": 1070,
        "correct": true,
        "response": "ArrowRight",
        "congruent": false,
        "gazeTowards": false,
        "gazeCondition": "away",
        "faceOnLeft": false,
        "impliedDirection": 180,
        "testDirection": 0,
        "avgFps": 60,
        "minFps": 59,
        "maxFps": 72,
        "totalFrames": 64,
        "frameRates": 60
      },
      {
        "trial_number": 72,
        "trial_index": 473,
        "rt": 1174,
        "correct": true,
        "response": "ArrowRight",
        "congruent": false,
        "gazeTowards": false,
        "gazeCondition": "away",
        "faceOnLeft": false,
        "impliedDirection": 180,
        "testDirection": 0,
        "avgFps": 60,
        "minFps": 59,
        "maxFps": 108,
        "totalFrames": 71,
        "frameRates": 60
      },
      {
        "trial_number": 73,
        "trial_index": 478,
        "rt": 1879,
        "correct": false,
        "response": "ArrowRight",
        "congruent": false,
        "gazeTowards": false,
        "gazeCondition": "away",
        "faceOnLeft": true,
        "impliedDirection": 0,
        "testDirection": 180,
        "avgFps": 60,
        "minFps": 59,
        "maxFps": 76,
        "totalFrames": 113,
        "frameRates": 60
      },
      {
        "trial_number": 74,
        "trial_index": 483,
        "rt": 1468,
        "correct": true,
        "response": "ArrowLeft",
        "congruent": true,
        "gazeTowards": true,
        "gazeCondition": "towards",
        "faceOnLeft": false,
        "impliedDirection": 180,
        "testDirection": 180,
        "avgFps": 60,
        "minFps": 59,
        "maxFps": 92,
        "totalFrames": 88,
        "frameRates": 60
      },
      {
        "trial_number": 75,
        "trial_index": 488,
        "rt": 1241,
        "correct": true,
        "response": "ArrowRight",
        "congruent": true,
        "gazeTowards": true,
        "gazeCondition": "towards",
        "faceOnLeft": true,
        "impliedDirection": 0,
        "testDirection": 0,
        "avgFps": 60,
        "minFps": 59,
        "maxFps": 105,
        "totalFrames": 75,
        "frameRates": 60
      },
      {
        "trial_number": 76,
        "trial_index": 493,
        "rt": 1744,
        "correct": false,
        "response": "ArrowRight",
        "congruent": true,
        "gazeTowards": true,
        "gazeCondition": "towards",
        "faceOnLeft": false,
        "impliedDirection": 180,
        "testDirection": 180,
        "avgFps": 60,
        "minFps": 59,
        "maxFps": 72,
        "totalFrames": 105,
        "frameRates": 60
      },
      {
        "trial_number": 77,
        "trial_index": 501,
        "rt": 798,
        "correct": true,
        "response": "ArrowRight",
        "congruent": true,
        "gazeTowards": true,
        "gazeCondition": "towards",
        "faceOnLeft": true,
        "impliedDirection": 0,
        "testDirection": 0,
        "avgFps": 61,
        "minFps": 59,
        "maxFps": 112,
        "totalFrames": 48,
        "frameRates": 61
      },
      {
        "trial_number": 78,
        "trial_index": 506,
        "rt": 1609,
        "correct": false,
        "response": "ArrowRight",
        "congruent": true,
        "gazeTowards": false,
        "gazeCondition": "away",
        "faceOnLeft": false,
        "impliedDirection": 180,
        "testDirection": 180,
        "avgFps": 60,
        "minFps": 59,
        "maxFps": 87,
        "totalFrames": 97,
        "frameRates": 60
      },
      {
        "trial_number": 79,
        "trial_index": 514,
        "rt": 988,
        "correct": true,
        "response": "ArrowRight",
        "congruent": false,
        "gazeTowards": false,
        "gazeCondition": "away",
        "faceOnLeft": false,
        "impliedDirection": 180,
        "testDirection": 0,
        "avgFps": 60,
        "minFps": 59,
        "maxFps": 74,
        "totalFrames": 59,
        "frameRates": 60
      },
      {
        "trial_number": 80,
        "trial_index": 519,
        "rt": 1321,
        "correct": true,
        "response": "ArrowRight",
        "congruent": true,
        "gazeTowards": false,
        "gazeCondition": "away",
        "faceOnLeft": true,
        "impliedDirection": 0,
        "testDirection": 0,
        "avgFps": 61,
        "minFps": 59,
        "maxFps": 182,
        "totalFrames": 79,
        "frameRates": 61
      },
      {
        "trial_number": 81,
        "trial_index": 524,
        "rt": 1318,
        "correct": true,
        "response": "ArrowRight",
        "congruent": true,
        "gazeTowards": false,
        "gazeCondition": "away",
        "faceOnLeft": true,
        "impliedDirection": 0,
        "testDirection": 0,
        "avgFps": 60,
        "minFps": 59,
        "maxFps": 109,
        "totalFrames": 79,
        "frameRates": 60
      },
      {
        "trial_number": 82,
        "trial_index": 529,
        "rt": 1426,
        "correct": true,
        "response": "ArrowRight",
        "congruent": false,
        "gazeTowards": true,
        "gazeCondition": "towards",
        "faceOnLeft": false,
        "impliedDirection": 180,
        "testDirection": 0,
        "avgFps": 60,
        "minFps": 59,
        "maxFps": 167,
        "totalFrames": 86,
        "frameRates": 60
      },
      {
        "trial_number": 83,
        "trial_index": 534,
        "rt": 1552,
        "correct": true,
        "response": "ArrowLeft",
        "congruent": true,
        "gazeTowards": false,
        "gazeCondition": "away",
        "faceOnLeft": false,
        "impliedDirection": 180,
        "testDirection": 180,
        "avgFps": 60,
        "minFps": 59,
        "maxFps": 112,
        "totalFrames": 93,
        "frameRates": 60
      },
      {
        "trial_number": 84,
        "trial_index": 539,
        "rt": 1292,
        "correct": true,
        "response": "ArrowRight",
        "congruent": false,
        "gazeTowards": false,
        "gazeCondition": "away",
        "faceOnLeft": false,
        "impliedDirection": 180,
        "testDirection": 0,
        "avgFps": 60,
        "minFps": 59,
        "maxFps": 73,
        "totalFrames": 78,
        "frameRates": 60
      },
      {
        "trial_number": 85,
        "trial_index": 544,
        "rt": 1511,
        "correct": true,
        "response": "ArrowLeft",
        "congruent": false,
        "gazeTowards": true,
        "gazeCondition": "towards",
        "faceOnLeft": true,
        "impliedDirection": 0,
        "testDirection": 180,
        "avgFps": 60,
        "minFps": 40,
        "maxFps": 61,
        "totalFrames": 90,
        "frameRates": 60
      },
      {
        "trial_number": 86,
        "trial_index": 549,
        "rt": 895,
        "correct": true,
        "response": "ArrowRight",
        "congruent": true,
        "gazeTowards": false,
        "gazeCondition": "away",
        "faceOnLeft": true,
        "impliedDirection": 0,
        "testDirection": 0,
        "avgFps": 61,
        "minFps": 59,
        "maxFps": 141,
        "totalFrames": 54,
        "frameRates": 61
      },
      {
        "trial_number": 87,
        "trial_index": 554,
        "rt": 1648,
        "correct": true,
        "response": "ArrowRight",
        "congruent": true,
        "gazeTowards": true,
        "gazeCondition": "towards",
        "faceOnLeft": true,
        "impliedDirection": 0,
        "testDirection": 0,
        "avgFps": 60,
        "minFps": 59,
        "maxFps": 61,
        "totalFrames": 98,
        "frameRates": 60
      },
      {
        "trial_number": 88,
        "trial_index": 559,
        "rt": 1131,
        "correct": true,
        "response": "ArrowLeft",
        "congruent": true,
        "gazeTowards": true,
        "gazeCondition": "towards",
        "faceOnLeft": false,
        "impliedDirection": 180,
        "testDirection": 180,
        "avgFps": 61,
        "minFps": 59,
        "maxFps": 221,
        "totalFrames": 68,
        "frameRates": 61
      },
      {
        "trial_number": 89,
        "trial_index": 564,
        "rt": 1254,
        "correct": true,
        "response": "ArrowRight",
        "congruent": true,
        "gazeTowards": false,
        "gazeCondition": "away",
        "faceOnLeft": true,
        "impliedDirection": 0,
        "testDirection": 0,
        "avgFps": 60,
        "minFps": 59,
        "maxFps": 119,
        "totalFrames": 75,
        "frameRates": 60
      },
      {
        "trial_number": 90,
        "trial_index": 570,
        "rt": 907,
        "correct": true,
        "response": "ArrowRight",
        "congruent": true,
        "gazeTowards": false,
        "gazeCondition": "away",
        "faceOnLeft": true,
        "impliedDirection": 0,
        "testDirection": 0,
        "avgFps": 60,
        "minFps": 59,
        "maxFps": 81,
        "totalFrames": 55,
        "frameRates": 60
      },
      {
        "trial_number": 91,
        "trial_index": 575,
        "rt": 892,
        "correct": true,
        "response": "ArrowRight",
        "congruent": true,
        "gazeTowards": true,
        "gazeCondition": "towards",
        "faceOnLeft": true,
        "impliedDirection": 0,
        "testDirection": 0,
        "avgFps": 61,
        "minFps": 59,
        "maxFps": 115,
        "totalFrames": 54,
        "frameRates": 61
      },
      {
        "trial_number": 92,
        "trial_index": 580,
        "rt": 946,
        "correct": true,
        "response": "ArrowRight",
        "congruent": false,
        "gazeTowards": false,
        "gazeCondition": "away",
        "faceOnLeft": false,
        "impliedDirection": 180,
        "testDirection": 0,
        "avgFps": 60,
        "minFps": 54,
        "maxFps": 68,
        "totalFrames": 57,
        "frameRates": 60
      },
      {
        "trial_number": 93,
        "trial_index": 585,
        "rt": 1467,
        "correct": true,
        "response": "ArrowLeft",
        "congruent": false,
        "gazeTowards": false,
        "gazeCondition": "away",
        "faceOnLeft": true,
        "impliedDirection": 0,
        "testDirection": 180,
        "avgFps": 60,
        "minFps": 59,
        "maxFps": 152,
        "totalFrames": 88,
        "frameRates": 60
      },
      {
        "trial_number": 94,
        "trial_index": 590,
        "rt": 947,
        "correct": true,
        "response": "ArrowRight",
        "congruent": false,
        "gazeTowards": false,
        "gazeCondition": "away",
        "faceOnLeft": false,
        "impliedDirection": 180,
        "testDirection": 0,
        "avgFps": 60,
        "minFps": 58,
        "maxFps": 61,
        "totalFrames": 57,
        "frameRates": 60
      },
      {
        "trial_number": 95,
        "trial_index": 595,
        "rt": 1334,
        "correct": false,
        "response": "ArrowRight",
        "congruent": false,
        "gazeTowards": false,
        "gazeCondition": "away",
        "faceOnLeft": true,
        "impliedDirection": 0,
        "testDirection": 180,
        "avgFps": 60,
        "minFps": 59,
        "maxFps": 128,
        "totalFrames": 80,
        "frameRates": 60
      },
      {
        "trial_number": 96,
        "trial_index": 600,
        "rt": 1837,
        "correct": false,
        "response": "ArrowRight",
        "congruent": true,
        "gazeTowards": false,
        "gazeCondition": "away",
        "faceOnLeft": false,
        "impliedDirection": 180,
        "testDirection": 180,
        "avgFps": 60,
        "minFps": 59,
        "maxFps": 75,
        "totalFrames": 110,
        "frameRates": 60
      },
      {
        "trial_number": 97,
        "trial_index": 605,
        "rt": 994,
        "correct": true,
        "response": "ArrowRight",
        "congruent": false,
        "gazeTowards": true,
        "gazeCondition": "towards",
        "faceOnLeft": false,
        "impliedDirection": 180,
        "testDirection": 0,
        "avgFps": 60,
        "minFps": 59,
        "maxFps": 102,
        "totalFrames": 60,
        "frameRates": 60
      },
      {
        "trial_number": 98,
        "trial_index": 613,
        "rt": 934,
        "correct": true,
        "response": "ArrowLeft",
        "congruent": false,
        "gazeTowards": true,
        "gazeCondition": "towards",
        "faceOnLeft": true,
        "impliedDirection": 0,
        "testDirection": 180,
        "avgFps": 61,
        "minFps": 59,
        "maxFps": 114,
        "totalFrames": 56,
        "frameRates": 61
      },
      {
        "trial_number": 99,
        "trial_index": 618,
        "rt": 1387,
        "correct": true,
        "response": "ArrowRight",
        "congruent": false,
        "gazeTowards": false,
        "gazeCondition": "away",
        "faceOnLeft": false,
        "impliedDirection": 180,
        "testDirection": 0,
        "avgFps": 60,
        "minFps": 59,
        "maxFps": 75,
        "totalFrames": 83,
        "frameRates": 60
      },
      {
        "trial_number": 100,
        "trial_index": 623,
        "rt": 1417,
        "correct": true,
        "response": "ArrowRight",
        "congruent": false,
        "gazeTowards": true,
        "gazeCondition": "towards",
        "faceOnLeft": false,
        "impliedDirection": 180,
        "testDirection": 0,
        "avgFps": 60,
        "minFps": 59,
        "maxFps": 106,
        "totalFrames": 85,
        "frameRates": 60
      },
      {
        "trial_number": 101,
        "trial_index": 628,
        "rt": 1313,
        "correct": true,
        "response": "ArrowRight",
        "congruent": false,
        "gazeTowards": true,
        "gazeCondition": "towards",
        "faceOnLeft": false,
        "impliedDirection": 180,
        "testDirection": 0,
        "avgFps": 60,
        "minFps": 59,
        "maxFps": 146,
        "totalFrames": 79,
        "frameRates": 60
      },
      {
        "trial_number": 102,
        "trial_index": 633,
        "rt": 1601,
        "correct": false,
        "response": "ArrowRight",
        "congruent": true,
        "gazeTowards": false,
        "gazeCondition": "away",
        "faceOnLeft": false,
        "impliedDirection": 180,
        "testDirection": 180,
        "avgFps": 60,
        "minFps": 59,
        "maxFps": 85,
        "totalFrames": 96,
        "frameRates": 60
      },
      {
        "trial_number": 103,
        "trial_index": 641,
        "rt": 1240,
        "correct": true,
        "response": "ArrowLeft",
        "congruent": true,
        "gazeTowards": true,
        "gazeCondition": "towards",
        "faceOnLeft": false,
        "impliedDirection": 180,
        "testDirection": 180,
        "avgFps": 60,
        "minFps": 59,
        "maxFps": 67,
        "totalFrames": 75,
        "frameRates": 60
      },
      {
        "trial_number": 104,
        "trial_index": 646,
        "rt": 1957,
        "correct": false,
        "response": "ArrowRight",
        "congruent": false,
        "gazeTowards": false,
        "gazeCondition": "away",
        "faceOnLeft": true,
        "impliedDirection": 0,
        "testDirection": 180,
        "avgFps": 60,
        "minFps": 59,
        "maxFps": 85,
        "totalFrames": 118,
        "frameRates": 60
      },
      {
        "trial_number": 105,
        "trial_index": 651,
        "rt": 1658,
        "correct": true,
        "response": "ArrowRight",
        "congruent": false,
        "gazeTowards": false,
        "gazeCondition": "away",
        "faceOnLeft": false,
        "impliedDirection": 180,
        "testDirection": 0,
        "avgFps": 60,
        "minFps": 59,
        "maxFps": 127,
        "totalFrames": 100,
        "frameRates": 60
      },
      {
        "trial_number": 106,
        "trial_index": 656,
        "rt": 1755,
        "correct": true,
        "response": "ArrowLeft",
        "congruent": false,
        "gazeTowards": true,
        "gazeCondition": "towards",
        "faceOnLeft": true,
        "impliedDirection": 0,
        "testDirection": 180,
        "avgFps": 60,
        "minFps": 59,
        "maxFps": 89,
        "totalFrames": 105,
        "frameRates": 60
      },
      {
        "trial_number": 107,
        "trial_index": 661,
        "rt": 1181,
        "correct": true,
        "response": "ArrowLeft",
        "congruent": true,
        "gazeTowards": true,
        "gazeCondition": "towards",
        "faceOnLeft": false,
        "impliedDirection": 180,
        "testDirection": 180,
        "avgFps": 60,
        "minFps": 59,
        "maxFps": 66,
        "totalFrames": 71,
        "frameRates": 60
      },
      {
        "trial_number": 108,
        "trial_index": 666,
        "rt": 1276,
        "correct": true,
        "response": "ArrowRight",
        "congruent": false,
        "gazeTowards": false,
        "gazeCondition": "away",
        "faceOnLeft": false,
        "impliedDirection": 180,
        "testDirection": 0,
        "avgFps": 60,
        "minFps": 59,
        "maxFps": 156,
        "totalFrames": 77,
        "frameRates": 60
      },
      {
        "trial_number": 109,
        "trial_index": 671,
        "rt": 1069,
        "correct": true,
        "response": "ArrowRight",
        "congruent": true,
        "gazeTowards": false,
        "gazeCondition": "away",
        "faceOnLeft": true,
        "impliedDirection": 0,
        "testDirection": 0,
        "avgFps": 60,
        "minFps": 59,
        "maxFps": 115,
        "totalFrames": 64,
        "frameRates": 60
      },
      {
        "trial_number": 110,
        "trial_index": 676,
        "rt": 1410,
        "correct": true,
        "response": "ArrowLeft",
        "congruent": true,
        "gazeTowards": false,
        "gazeCondition": "away",
        "faceOnLeft": false,
        "impliedDirection": 180,
        "testDirection": 180,
        "avgFps": 60,
        "minFps": 58,
        "maxFps": 131,
        "totalFrames": 85,
        "frameRates": 60
      },
      {
        "trial_number": 111,
        "trial_index": 681,
        "rt": 832,
        "correct": true,
        "response": "ArrowRight",
        "congruent": true,
        "gazeTowards": true,
        "gazeCondition": "towards",
        "faceOnLeft": true,
        "impliedDirection": 0,
        "testDirection": 0,
        "avgFps": 60,
        "minFps": 59,
        "maxFps": 67,
        "totalFrames": 50,
        "frameRates": 60
      },
      {
        "trial_number": 112,
        "trial_index": 686,
        "rt": 1314,
        "correct": true,
        "response": "ArrowRight",
        "congruent": false,
        "gazeTowards": false,
        "gazeCondition": "away",
        "faceOnLeft": false,
        "impliedDirection": 180,
        "testDirection": 0,
        "avgFps": 60,
        "minFps": 59,
        "maxFps": 127,
        "totalFrames": 79,
        "frameRates": 60
      },
      {
        "trial_number": 113,
        "trial_index": 691,
        "rt": 1423,
        "correct": true,
        "response": "ArrowRight",
        "congruent": true,
        "gazeTowards": true,
        "gazeCondition": "towards",
        "faceOnLeft": true,
        "impliedDirection": 0,
        "testDirection": 0,
        "avgFps": 60,
        "minFps": 59,
        "maxFps": 61,
        "totalFrames": 86,
        "frameRates": 60
      },
      {
        "trial_number": 114,
        "trial_index": 699,
        "rt": 1235,
        "correct": true,
        "response": "ArrowLeft",
        "congruent": false,
        "gazeTowards": true,
        "gazeCondition": "towards",
        "faceOnLeft": true,
        "impliedDirection": 0,
        "testDirection": 180,
        "avgFps": 60,
        "minFps": 59,
        "maxFps": 92,
        "totalFrames": 74,
        "frameRates": 60
      },
      {
        "trial_number": 115,
        "trial_index": 704,
        "rt": 948,
        "correct": true,
        "response": "ArrowRight",
        "congruent": true,
        "gazeTowards": false,
        "gazeCondition": "away",
        "faceOnLeft": true,
        "impliedDirection": 0,
        "testDirection": 0,
        "avgFps": 60,
        "minFps": 59,
        "maxFps": 106,
        "totalFrames": 57,
        "frameRates": 60
      },
      {
        "trial_number": 116,
        "trial_index": 709,
        "rt": 1913,
        "correct": true,
        "response": "ArrowLeft",
        "congruent": true,
        "gazeTowards": true,
        "gazeCondition": "towards",
        "faceOnLeft": false,
        "impliedDirection": 180,
        "testDirection": 180,
        "avgFps": 60,
        "minFps": 59,
        "maxFps": 72,
        "totalFrames": 115,
        "frameRates": 60
      },
      {
        "trial_number": 117,
        "trial_index": 714,
        "rt": 1909,
        "correct": true,
        "response": "ArrowLeft",
        "congruent": true,
        "gazeTowards": false,
        "gazeCondition": "away",
        "faceOnLeft": false,
        "impliedDirection": 180,
        "testDirection": 180,
        "avgFps": 60,
        "minFps": 59,
        "maxFps": 132,
        "totalFrames": 115,
        "frameRates": 60
      },
      {
        "trial_number": 118,
        "trial_index": 719,
        "rt": 1422,
        "correct": false,
        "response": "ArrowRight",
        "congruent": true,
        "gazeTowards": false,
        "gazeCondition": "away",
        "faceOnLeft": false,
        "impliedDirection": 180,
        "testDirection": 180,
        "avgFps": 60,
        "minFps": 59,
        "maxFps": 176,
        "totalFrames": 85,
        "frameRates": 60
      },
      {
        "trial_number": 119,
        "trial_index": 724,
        "rt": 1399,
        "correct": true,
        "response": "ArrowRight",
        "congruent": true,
        "gazeTowards": true,
        "gazeCondition": "towards",
        "faceOnLeft": true,
        "impliedDirection": 0,
        "testDirection": 0,
        "avgFps": 60,
        "minFps": 59,
        "maxFps": 130,
        "totalFrames": 84,
        "frameRates": 60
      }
    ],
    "catch": {
      "total": 12,
      "correct": 12,
      "accuracy": 100,
      "meanRT": 691,
      "trials": [
        {
          "trial_number": 0,
          "trial_index": 169,
          "rt": 1022,
          "correct": true,
          "colorTarget": "tree",
          "gazeTowards": true,
          "gazeCondition": "towards",
          "faceOnLeft": true
        },
        {
          "trial_number": 1,
          "trial_index": 187,
          "rt": 1049,
          "correct": true,
          "colorTarget": "face",
          "gazeTowards": false,
          "gazeCondition": "away",
          "faceOnLeft": true
        },
        {
          "trial_number": 2,
          "trial_index": 195,
          "rt": 579,
          "correct": true,
          "colorTarget": "tree",
          "gazeTowards": false,
          "gazeCondition": "away",
          "faceOnLeft": false
        },
        {
          "trial_number": 3,
          "trial_index": 254,
          "rt": 580,
          "correct": true,
          "colorTarget": "face",
          "gazeTowards": true,
          "gazeCondition": "towards",
          "faceOnLeft": true
        },
        {
          "trial_number": 4,
          "trial_index": 322,
          "rt": 679,
          "correct": true,
          "colorTarget": "tree",
          "gazeTowards": true,
          "gazeCondition": "towards",
          "faceOnLeft": false
        },
        {
          "trial_number": 5,
          "trial_index": 355,
          "rt": 639,
          "correct": true,
          "colorTarget": "tree",
          "gazeTowards": true,
          "gazeCondition": "towards",
          "faceOnLeft": false
        },
        {
          "trial_number": 6,
          "trial_index": 409,
          "rt": 628,
          "correct": true,
          "colorTarget": "face",
          "gazeTowards": true,
          "gazeCondition": "towards",
          "faceOnLeft": false
        },
        {
          "trial_number": 7,
          "trial_index": 497,
          "rt": 632,
          "correct": true,
          "colorTarget": "tree",
          "gazeTowards": false,
          "gazeCondition": "away",
          "faceOnLeft": true
        },
        {
          "trial_number": 8,
          "trial_index": 510,
          "rt": 601,
          "correct": true,
          "colorTarget": "face",
          "gazeTowards": false,
          "gazeCondition": "away",
          "faceOnLeft": false
        },
        {
          "trial_number": 9,
          "trial_index": 609,
          "rt": 656,
          "correct": true,
          "colorTarget": "face",
          "gazeTowards": false,
          "gazeCondition": "away",
          "faceOnLeft": false
        },
        {
          "trial_number": 10,
          "trial_index": 637,
          "rt": 642,
          "correct": true,
          "colorTarget": "tree",
          "gazeTowards": true,
          "gazeCondition": "towards",
          "faceOnLeft": false
        },
        {
          "trial_number": 11,
          "trial_index": 695,
          "rt": 584,
          "correct": true,
          "colorTarget": "face",
          "gazeTowards": true,
          "gazeCondition": "towards",
          "faceOnLeft": true
        }
      ]
    },
    "practice": {
      "trials": [
        {
          "trial_number": 0,
          "rt": null,
          "correct": false,
          "direction": 0
        },
        {
          "trial_number": 1,
          "rt": 1035,
          "correct": false,
          "direction": 180
        },
        {
          "trial_number": 2,
          "rt": 1684,
          "correct": false,
          "direction": 180
        },
        {
          "trial_number": 3,
          "rt": 1437,
          "correct": true,
          "direction": 180
        },
        {
          "trial_number": 4,
          "rt": 1761,
          "correct": true,
          "direction": 180
        },
        {
          "trial_number": 5,
          "rt": 1924,
          "correct": false,
          "direction": 180
        },
        {
          "trial_number": 6,
          "rt": null,
          "correct": false,
          "direction": 0
        },
        {
          "trial_number": 7,
          "rt": 1623,
          "correct": true,
          "direction": 0
        },
        {
          "trial_number": 8,
          "rt": 1620,
          "correct": true,
          "direction": 180
        },
        {
          "trial_number": 9,
          "rt": 1346,
          "correct": true,
          "direction": 0
        },
        {
          "trial_number": 10,
          "rt": 1368,
          "correct": true,
          "direction": 0
        },
        {
          "trial_number": 11,
          "rt": 1206,
          "correct": true,
          "direction": 180
        },
        {
          "trial_number": 12,
          "rt": 1302,
          "correct": true,
          "direction": 180
        },
        {
          "trial_number": 13,
          "rt": 1204,
          "correct": true,
          "direction": 180
        },
        {
          "trial_number": 14,
          "rt": 1466,
          "correct": false,
          "direction": 180
        },
        {
          "trial_number": 15,
          "rt": 1300,
          "correct": true,
          "direction": 180
        },
        {
          "trial_number": 16,
          "rt": 1043,
          "correct": true,
          "direction": 0
        },
        {
          "trial_number": 17,
          "rt": 937,
          "correct": true,
          "direction": 0
        },
        {
          "trial_number": 18,
          "rt": 1385,
          "correct": true,
          "direction": 180
        },
        {
          "trial_number": 19,
          "rt": 1336,
          "correct": true,
          "direction": 0
        }
      ],
      "meanRT": 1388,
      "accuracy": 70
    }
  }
}