{
  "experiment": "rdk-face-1",
  "UUID": "3eaebd7c-07bf-4ea9-a88d-6d88b587121c",
  "data": {
    "session": {
      "experiment_version": "1.8.6",
      "treatment": "faces_towards_away_catch",
      "file_version": "1.8.6",
      "totalTrials": 120,
      "totalTrialsIncludingCatch": 132,
      "conditions": {
        "gazeTowardsCount": 60,
        "gazeAwayCount": 60,
        "gazeTowardsAccuracy": 100,
        "gazeAwayAccuracy": 100
      },
      "session_group": "default",
      "browserData": {
        "os": "Windows",
        "browser": "Chrome",
        "screenResolution": "1536x864",
        "browserViewport": "1536x864",
        "devicePixelRatio": 1.25,
        "colorDepth": 32,
        "hardwareConcurrency": 8,
        "deviceMemory": 8,
        "gpuRenderer": "ANGLE (Intel, Intel(R) UHD Graphics 630 (0x00003E9B) Direct3D11 vs_5_0 ps_5_0, D3D11)",
        "measuredRefreshRateHz": 47
      },
      "attention": {
        "visibilityEvents": [
          {
            "event": "blur",
            "state": "blurred",
            "timestamp": 1772767307547
          },
          {
            "event": "visibilitychange",
            "state": "hidden",
            "timestamp": 1772767307550
          },
          {
            "event": "visibilitychange",
            "state": "visible",
            "timestamp": 1772767308694
          },
          {
            "event": "focus",
            "state": "focused",
            "timestamp": 1772767308699
          },
          {
            "event": "blur",
            "state": "blurred",
            "timestamp": 1772767434977
          },
          {
            "event": "focus",
            "state": "focused",
            "timestamp": 1772767519518
          },
          {
            "event": "blur",
            "state": "blurred",
            "timestamp": 1772768132387
          },
          {
            "event": "focus",
            "state": "focused",
            "timestamp": 1772768133678
          },
          {
            "event": "blur",
            "state": "blurred",
            "timestamp": 1772768432517
          },
          {
            "event": "focus",
            "state": "focused",
            "timestamp": 1772768457749
          }
        ]
      },
      "calibration": {
        "monitorWidthCm": 38,
        "viewingDistanceCm": 54,
        "pixelsPerDegree": 50
      },
      "parameters": {
        "coherence": 0.4,
        "apertureDeg": 5,
        "densityDotsPerDeg2": 40,
        "dotDiameterDeg": 0.035,
        "dotSpeedDegPerSec": 3,
        "lifetimeMs": 200,
        "fixationDurationMs": 1500,
        "faceDurationMs": 1500,
        "testDurationMs": 2000,
        "catchResponseMs": 3000
      },
      "prolific": {
        "prolificPid": "6673c06ef972fa4885e8ec49",
        "studyId": "",
        "sessionId": ""
      },
      "timing": {
        "startTime": "2026-03-06T03:21:44.783Z",
        "endTime": "2026-03-06T03:45:35.618Z",
        "totalElapsedTimeMs": 1430835
      }
    },
    "trials": [
      {
        "trial_number": 0,
        "trial_index": 90,
        "rt": 973,
        "correct": true,
        "response": "ArrowRight",
        "congruent": true,
        "gazeTowards": false,
        "gazeCondition": "away",
        "faceOnLeft": true,
        "impliedDirection": 0,
        "testDirection": 0,
        "avgFps": 60,
        "minFps": 59,
        "maxFps": 61,
        "totalFrames": 58,
        "frameRates": 60
      },
      {
        "trial_number": 1,
        "trial_index": 98,
        "rt": 804,
        "correct": true,
        "response": "ArrowLeft",
        "congruent": false,
        "gazeTowards": false,
        "gazeCondition": "away",
        "faceOnLeft": true,
        "impliedDirection": 0,
        "testDirection": 180,
        "avgFps": 60,
        "minFps": 59,
        "maxFps": 62,
        "totalFrames": 48,
        "frameRates": 60
      },
      {
        "trial_number": 2,
        "trial_index": 103,
        "rt": 945,
        "correct": true,
        "response": "ArrowRight",
        "congruent": true,
        "gazeTowards": false,
        "gazeCondition": "away",
        "faceOnLeft": true,
        "impliedDirection": 0,
        "testDirection": 0,
        "avgFps": 60,
        "minFps": 59,
        "maxFps": 61,
        "totalFrames": 56,
        "frameRates": 60
      },
      {
        "trial_number": 3,
        "trial_index": 108,
        "rt": 794,
        "correct": true,
        "response": "ArrowRight",
        "congruent": true,
        "gazeTowards": false,
        "gazeCondition": "away",
        "faceOnLeft": true,
        "impliedDirection": 0,
        "testDirection": 0,
        "avgFps": 60,
        "minFps": 60,
        "maxFps": 65,
        "totalFrames": 48,
        "frameRates": 60
      },
      {
        "trial_number": 4,
        "trial_index": 113,
        "rt": 1025,
        "correct": true,
        "response": "ArrowRight",
        "congruent": false,
        "gazeTowards": true,
        "gazeCondition": "towards",
        "faceOnLeft": false,
        "impliedDirection": 180,
        "testDirection": 0,
        "avgFps": 60,
        "minFps": 59,
        "maxFps": 62,
        "totalFrames": 61,
        "frameRates": 60
      },
      {
        "trial_number": 5,
        "trial_index": 118,
        "rt": 906,
        "correct": true,
        "response": "ArrowLeft",
        "congruent": true,
        "gazeTowards": false,
        "gazeCondition": "away",
        "faceOnLeft": false,
        "impliedDirection": 180,
        "testDirection": 180,
        "avgFps": 60,
        "minFps": 60,
        "maxFps": 62,
        "totalFrames": 54,
        "frameRates": 60
      },
      {
        "trial_number": 6,
        "trial_index": 123,
        "rt": 993,
        "correct": true,
        "response": "ArrowRight",
        "congruent": false,
        "gazeTowards": false,
        "gazeCondition": "away",
        "faceOnLeft": false,
        "impliedDirection": 180,
        "testDirection": 0,
        "avgFps": 60,
        "minFps": 59,
        "maxFps": 64,
        "totalFrames": 60,
        "frameRates": 60
      },
      {
        "trial_number": 7,
        "trial_index": 128,
        "rt": 890,
        "correct": true,
        "response": "ArrowRight",
        "congruent": true,
        "gazeTowards": true,
        "gazeCondition": "towards",
        "faceOnLeft": true,
        "impliedDirection": 0,
        "testDirection": 0,
        "avgFps": 60,
        "minFps": 60,
        "maxFps": 66,
        "totalFrames": 54,
        "frameRates": 60
      },
      {
        "trial_number": 8,
        "trial_index": 133,
        "rt": 1134,
        "correct": true,
        "response": "ArrowLeft",
        "congruent": true,
        "gazeTowards": true,
        "gazeCondition": "towards",
        "faceOnLeft": false,
        "impliedDirection": 180,
        "testDirection": 180,
        "avgFps": 60,
        "minFps": 59,
        "maxFps": 65,
        "totalFrames": 68,
        "frameRates": 60
      },
      {
        "trial_number": 9,
        "trial_index": 138,
        "rt": 738,
        "correct": true,
        "response": "ArrowRight",
        "congruent": false,
        "gazeTowards": true,
        "gazeCondition": "towards",
        "faceOnLeft": false,
        "impliedDirection": 180,
        "testDirection": 0,
        "avgFps": 60,
        "minFps": 60,
        "maxFps": 65,
        "totalFrames": 44,
        "frameRates": 60
      },
      {
        "trial_number": 10,
        "trial_index": 146,
        "rt": 744,
        "correct": true,
        "response": "ArrowLeft",
        "congruent": false,
        "gazeTowards": false,
        "gazeCondition": "away",
        "faceOnLeft": true,
        "impliedDirection": 0,
        "testDirection": 180,
        "avgFps": 60,
        "minFps": 59,
        "maxFps": 67,
        "totalFrames": 45,
        "frameRates": 60
      },
      {
        "trial_number": 11,
        "trial_index": 151,
        "rt": 818,
        "correct": true,
        "response": "ArrowRight",
        "congruent": false,
        "gazeTowards": true,
        "gazeCondition": "towards",
        "faceOnLeft": false,
        "impliedDirection": 180,
        "testDirection": 0,
        "avgFps": 60,
        "minFps": 59,
        "maxFps": 66,
        "totalFrames": 49,
        "frameRates": 60
      },
      {
        "trial_number": 12,
        "trial_index": 159,
        "rt": 691,
        "correct": true,
        "response": "ArrowRight",
        "congruent": false,
        "gazeTowards": true,
        "gazeCondition": "towards",
        "faceOnLeft": false,
        "impliedDirection": 180,
        "testDirection": 0,
        "avgFps": 60,
        "minFps": 60,
        "maxFps": 65,
        "totalFrames": 41,
        "frameRates": 60
      },
      {
        "trial_number": 13,
        "trial_index": 164,
        "rt": 885,
        "correct": true,
        "response": "ArrowRight",
        "congruent": false,
        "gazeTowards": false,
        "gazeCondition": "away",
        "faceOnLeft": false,
        "impliedDirection": 180,
        "testDirection": 0,
        "avgFps": 60,
        "minFps": 59,
        "maxFps": 66,
        "totalFrames": 53,
        "frameRates": 60
      },
      {
        "trial_number": 14,
        "trial_index": 169,
        "rt": 1003,
        "correct": true,
        "response": "ArrowRight",
        "congruent": true,
        "gazeTowards": true,
        "gazeCondition": "towards",
        "faceOnLeft": true,
        "impliedDirection": 0,
        "testDirection": 0,
        "avgFps": 60,
        "minFps": 59,
        "maxFps": 66,
        "totalFrames": 60,
        "frameRates": 60
      },
      {
        "trial_number": 15,
        "trial_index": 174,
        "rt": 798,
        "correct": true,
        "response": "ArrowRight",
        "congruent": false,
        "gazeTowards": false,
        "gazeCondition": "away",
        "faceOnLeft": false,
        "impliedDirection": 180,
        "testDirection": 0,
        "avgFps": 60,
        "minFps": 59,
        "maxFps": 66,
        "totalFrames": 48,
        "frameRates": 60
      },
      {
        "trial_number": 16,
        "trial_index": 179,
        "rt": 748,
        "correct": true,
        "response": "ArrowRight",
        "congruent": false,
        "gazeTowards": false,
        "gazeCondition": "away",
        "faceOnLeft": false,
        "impliedDirection": 180,
        "testDirection": 0,
        "avgFps": 60,
        "minFps": 59,
        "maxFps": 61,
        "totalFrames": 45,
        "frameRates": 60
      },
      {
        "trial_number": 17,
        "trial_index": 184,
        "rt": 685,
        "correct": true,
        "response": "ArrowRight",
        "congruent": false,
        "gazeTowards": false,
        "gazeCondition": "away",
        "faceOnLeft": false,
        "impliedDirection": 180,
        "testDirection": 0,
        "avgFps": 60,
        "minFps": 60,
        "maxFps": 65,
        "totalFrames": 41,
        "frameRates": 60
      },
      {
        "trial_number": 18,
        "trial_index": 189,
        "rt": 700,
        "correct": true,
        "response": "ArrowLeft",
        "congruent": false,
        "gazeTowards": false,
        "gazeCondition": "away",
        "faceOnLeft": true,
        "impliedDirection": 0,
        "testDirection": 180,
        "avgFps": 60,
        "minFps": 60,
        "maxFps": 62,
        "totalFrames": 42,
        "frameRates": 60
      },
      {
        "trial_number": 19,
        "trial_index": 194,
        "rt": 697,
        "correct": true,
        "response": "ArrowRight",
        "congruent": false,
        "gazeTowards": true,
        "gazeCondition": "towards",
        "faceOnLeft": false,
        "impliedDirection": 180,
        "testDirection": 0,
        "avgFps": 60,
        "minFps": 60,
        "maxFps": 65,
        "totalFrames": 42,
        "frameRates": 60
      },
      {
        "trial_number": 20,
        "trial_index": 199,
        "rt": 788,
        "correct": true,
        "response": "ArrowLeft",
        "congruent": false,
        "gazeTowards": true,
        "gazeCondition": "towards",
        "faceOnLeft": true,
        "impliedDirection": 0,
        "testDirection": 180,
        "avgFps": 60,
        "minFps": 59,
        "maxFps": 61,
        "totalFrames": 46,
        "frameRates": 60
      },
      {
        "trial_number": 21,
        "trial_index": 204,
        "rt": 720,
        "correct": true,
        "response": "ArrowLeft",
        "congruent": false,
        "gazeTowards": true,
        "gazeCondition": "towards",
        "faceOnLeft": true,
        "impliedDirection": 0,
        "testDirection": 180,
        "avgFps": 60,
        "minFps": 60,
        "maxFps": 65,
        "totalFrames": 43,
        "frameRates": 60
      },
      {
        "trial_number": 22,
        "trial_index": 209,
        "rt": 873,
        "correct": true,
        "response": "ArrowLeft",
        "congruent": true,
        "gazeTowards": false,
        "gazeCondition": "away",
        "faceOnLeft": false,
        "impliedDirection": 180,
        "testDirection": 180,
        "avgFps": 60,
        "minFps": 59,
        "maxFps": 65,
        "totalFrames": 53,
        "frameRates": 60
      },
      {
        "trial_number": 23,
        "trial_index": 214,
        "rt": 659,
        "correct": true,
        "response": "ArrowRight",
        "congruent": false,
        "gazeTowards": true,
        "gazeCondition": "towards",
        "faceOnLeft": false,
        "impliedDirection": 180,
        "testDirection": 0,
        "avgFps": 60,
        "minFps": 60,
        "maxFps": 66,
        "totalFrames": 40,
        "frameRates": 60
      },
      {
        "trial_number": 24,
        "trial_index": 219,
        "rt": 1079,
        "correct": true,
        "response": "ArrowLeft",
        "congruent": false,
        "gazeTowards": false,
        "gazeCondition": "away",
        "faceOnLeft": true,
        "impliedDirection": 0,
        "testDirection": 180,
        "avgFps": 60,
        "minFps": 60,
        "maxFps": 66,
        "totalFrames": 65,
        "frameRates": 60
      },
      {
        "trial_number": 25,
        "trial_index": 224,
        "rt": 762,
        "correct": true,
        "response": "ArrowRight",
        "congruent": true,
        "gazeTowards": true,
        "gazeCondition": "towards",
        "faceOnLeft": true,
        "impliedDirection": 0,
        "testDirection": 0,
        "avgFps": 60,
        "minFps": 59,
        "maxFps": 66,
        "totalFrames": 46,
        "frameRates": 60
      },
      {
        "trial_number": 26,
        "trial_index": 229,
        "rt": 1454,
        "correct": true,
        "response": "ArrowRight",
        "congruent": false,
        "gazeTowards": true,
        "gazeCondition": "towards",
        "faceOnLeft": false,
        "impliedDirection": 180,
        "testDirection": 0,
        "avgFps": 60,
        "minFps": 59,
        "maxFps": 65,
        "totalFrames": 88,
        "frameRates": 60
      },
      {
        "trial_number": 27,
        "trial_index": 234,
        "rt": 845,
        "correct": true,
        "response": "ArrowLeft",
        "congruent": true,
        "gazeTowards": true,
        "gazeCondition": "towards",
        "faceOnLeft": false,
        "impliedDirection": 180,
        "testDirection": 180,
        "avgFps": 60,
        "minFps": 59,
        "maxFps": 66,
        "totalFrames": 51,
        "frameRates": 60
      },
      {
        "trial_number": 28,
        "trial_index": 239,
        "rt": 1121,
        "correct": true,
        "response": "ArrowRight",
        "congruent": true,
        "gazeTowards": false,
        "gazeCondition": "away",
        "faceOnLeft": true,
        "impliedDirection": 0,
        "testDirection": 0,
        "avgFps": 60,
        "minFps": 59,
        "maxFps": 67,
        "totalFrames": 68,
        "frameRates": 60
      },
      {
        "trial_number": 29,
        "trial_index": 244,
        "rt": 804,
        "correct": true,
        "response": "ArrowRight",
        "congruent": true,
        "gazeTowards": false,
        "gazeCondition": "away",
        "faceOnLeft": true,
        "impliedDirection": 0,
        "testDirection": 0,
        "avgFps": 60,
        "minFps": 59,
        "maxFps": 65,
        "totalFrames": 48,
        "frameRates": 60
      },
      {
        "trial_number": 30,
        "trial_index": 250,
        "rt": 796,
        "correct": true,
        "response": "ArrowLeft",
        "congruent": false,
        "gazeTowards": false,
        "gazeCondition": "away",
        "faceOnLeft": true,
        "impliedDirection": 0,
        "testDirection": 180,
        "avgFps": 60,
        "minFps": 59,
        "maxFps": 62,
        "totalFrames": 48,
        "frameRates": 60
      },
      {
        "trial_number": 31,
        "trial_index": 258,
        "rt": 755,
        "correct": true,
        "response": "ArrowRight",
        "congruent": false,
        "gazeTowards": true,
        "gazeCondition": "towards",
        "faceOnLeft": false,
        "impliedDirection": 180,
        "testDirection": 0,
        "avgFps": 60,
        "minFps": 60,
        "maxFps": 66,
        "totalFrames": 45,
        "frameRates": 60
      },
      {
        "trial_number": 32,
        "trial_index": 263,
        "rt": 736,
        "correct": true,
        "response": "ArrowRight",
        "congruent": false,
        "gazeTowards": true,
        "gazeCondition": "towards",
        "faceOnLeft": false,
        "impliedDirection": 180,
        "testDirection": 0,
        "avgFps": 60,
        "minFps": 59,
        "maxFps": 66,
        "totalFrames": 44,
        "frameRates": 60
      },
      {
        "trial_number": 33,
        "trial_index": 268,
        "rt": 747,
        "correct": true,
        "response": "ArrowRight",
        "congruent": false,
        "gazeTowards": true,
        "gazeCondition": "towards",
        "faceOnLeft": false,
        "impliedDirection": 180,
        "testDirection": 0,
        "avgFps": 60,
        "minFps": 59,
        "maxFps": 61,
        "totalFrames": 44,
        "frameRates": 60
      },
      {
        "trial_number": 34,
        "trial_index": 273,
        "rt": 1038,
        "correct": true,
        "response": "ArrowRight",
        "congruent": true,
        "gazeTowards": true,
        "gazeCondition": "towards",
        "faceOnLeft": true,
        "impliedDirection": 0,
        "testDirection": 0,
        "avgFps": 60,
        "minFps": 59,
        "maxFps": 62,
        "totalFrames": 62,
        "frameRates": 60
      },
      {
        "trial_number": 35,
        "trial_index": 278,
        "rt": 1081,
        "correct": true,
        "response": "ArrowLeft",
        "congruent": true,
        "gazeTowards": false,
        "gazeCondition": "away",
        "faceOnLeft": false,
        "impliedDirection": 180,
        "testDirection": 180,
        "avgFps": 60,
        "minFps": 59,
        "maxFps": 65,
        "totalFrames": 65,
        "frameRates": 60
      },
      {
        "trial_number": 36,
        "trial_index": 283,
        "rt": 872,
        "correct": true,
        "response": "ArrowLeft",
        "congruent": false,
        "gazeTowards": false,
        "gazeCondition": "away",
        "faceOnLeft": true,
        "impliedDirection": 0,
        "testDirection": 180,
        "avgFps": 60,
        "minFps": 59,
        "maxFps": 66,
        "totalFrames": 53,
        "frameRates": 60
      },
      {
        "trial_number": 37,
        "trial_index": 288,
        "rt": 808,
        "correct": true,
        "response": "ArrowLeft",
        "congruent": false,
        "gazeTowards": false,
        "gazeCondition": "away",
        "faceOnLeft": true,
        "impliedDirection": 0,
        "testDirection": 180,
        "avgFps": 60,
        "minFps": 60,
        "maxFps": 66,
        "totalFrames": 48,
        "frameRates": 60
      },
      {
        "trial_number": 38,
        "trial_index": 296,
        "rt": 799,
        "correct": true,
        "response": "ArrowLeft",
        "congruent": true,
        "gazeTowards": false,
        "gazeCondition": "away",
        "faceOnLeft": false,
        "impliedDirection": 180,
        "testDirection": 180,
        "avgFps": 60,
        "minFps": 59,
        "maxFps": 63,
        "totalFrames": 48,
        "frameRates": 60
      },
      {
        "trial_number": 39,
        "trial_index": 301,
        "rt": 766,
        "correct": true,
        "response": "ArrowRight",
        "congruent": true,
        "gazeTowards": false,
        "gazeCondition": "away",
        "faceOnLeft": true,
        "impliedDirection": 0,
        "testDirection": 0,
        "avgFps": 60,
        "minFps": 59,
        "maxFps": 65,
        "totalFrames": 46,
        "frameRates": 60
      },
      {
        "trial_number": 40,
        "trial_index": 306,
        "rt": 870,
        "correct": true,
        "response": "ArrowLeft",
        "congruent": false,
        "gazeTowards": false,
        "gazeCondition": "away",
        "faceOnLeft": true,
        "impliedDirection": 0,
        "testDirection": 180,
        "avgFps": 60,
        "minFps": 60,
        "maxFps": 63,
        "totalFrames": 52,
        "frameRates": 60
      },
      {
        "trial_number": 41,
        "trial_index": 311,
        "rt": 859,
        "correct": true,
        "response": "ArrowLeft",
        "congruent": false,
        "gazeTowards": false,
        "gazeCondition": "away",
        "faceOnLeft": true,
        "impliedDirection": 0,
        "testDirection": 180,
        "avgFps": 60,
        "minFps": 58,
        "maxFps": 65,
        "totalFrames": 52,
        "frameRates": 60
      },
      {
        "trial_number": 42,
        "trial_index": 316,
        "rt": 819,
        "correct": true,
        "response": "ArrowLeft",
        "congruent": true,
        "gazeTowards": true,
        "gazeCondition": "towards",
        "faceOnLeft": false,
        "impliedDirection": 180,
        "testDirection": 180,
        "avgFps": 60,
        "minFps": 59,
        "maxFps": 62,
        "totalFrames": 49,
        "frameRates": 60
      },
      {
        "trial_number": 43,
        "trial_index": 321,
        "rt": 709,
        "correct": true,
        "response": "ArrowLeft",
        "congruent": false,
        "gazeTowards": true,
        "gazeCondition": "towards",
        "faceOnLeft": true,
        "impliedDirection": 0,
        "testDirection": 180,
        "avgFps": 60,
        "minFps": 59,
        "maxFps": 62,
        "totalFrames": 43,
        "frameRates": 60
      },
      {
        "trial_number": 44,
        "trial_index": 326,
        "rt": 705,
        "correct": true,
        "response": "ArrowLeft",
        "congruent": true,
        "gazeTowards": true,
        "gazeCondition": "towards",
        "faceOnLeft": false,
        "impliedDirection": 180,
        "testDirection": 180,
        "avgFps": 60,
        "minFps": 60,
        "maxFps": 65,
        "totalFrames": 42,
        "frameRates": 60
      },
      {
        "trial_number": 45,
        "trial_index": 331,
        "rt": 813,
        "correct": true,
        "response": "ArrowRight",
        "congruent": false,
        "gazeTowards": true,
        "gazeCondition": "towards",
        "faceOnLeft": false,
        "impliedDirection": 180,
        "testDirection": 0,
        "avgFps": 60,
        "minFps": 58,
        "maxFps": 65,
        "totalFrames": 49,
        "frameRates": 60
      },
      {
        "trial_number": 46,
        "trial_index": 336,
        "rt": 1905,
        "correct": true,
        "response": "ArrowLeft",
        "congruent": false,
        "gazeTowards": false,
        "gazeCondition": "away",
        "faceOnLeft": true,
        "impliedDirection": 0,
        "testDirection": 180,
        "avgFps": 60,
        "minFps": 60,
        "maxFps": 65,
        "totalFrames": 115,
        "frameRates": 60
      },
      {
        "trial_number": 47,
        "trial_index": 341,
        "rt": 1366,
        "correct": true,
        "response": "ArrowRight",
        "congruent": false,
        "gazeTowards": true,
        "gazeCondition": "towards",
        "faceOnLeft": false,
        "impliedDirection": 180,
        "testDirection": 0,
        "avgFps": 60,
        "minFps": 59,
        "maxFps": 62,
        "totalFrames": 82,
        "frameRates": 60
      },
      {
        "trial_number": 48,
        "trial_index": 346,
        "rt": 1481,
        "correct": true,
        "response": "ArrowLeft",
        "congruent": false,
        "gazeTowards": true,
        "gazeCondition": "towards",
        "faceOnLeft": true,
        "impliedDirection": 0,
        "testDirection": 180,
        "avgFps": 59,
        "minFps": 30,
        "maxFps": 65,
        "totalFrames": 88,
        "frameRates": 59
      },
      {
        "trial_number": 49,
        "trial_index": 351,
        "rt": 849,
        "correct": true,
        "response": "ArrowLeft",
        "congruent": true,
        "gazeTowards": false,
        "gazeCondition": "away",
        "faceOnLeft": false,
        "impliedDirection": 180,
        "testDirection": 180,
        "avgFps": 60,
        "minFps": 60,
        "maxFps": 66,
        "totalFrames": 51,
        "frameRates": 60
      },
      {
        "trial_number": 50,
        "trial_index": 359,
        "rt": 978,
        "correct": true,
        "response": "ArrowRight",
        "congruent": true,
        "gazeTowards": false,
        "gazeCondition": "away",
        "faceOnLeft": true,
        "impliedDirection": 0,
        "testDirection": 0,
        "avgFps": 60,
        "minFps": 59,
        "maxFps": 64,
        "totalFrames": 59,
        "frameRates": 60
      },
      {
        "trial_number": 51,
        "trial_index": 364,
        "rt": 1150,
        "correct": true,
        "response": "ArrowRight",
        "congruent": false,
        "gazeTowards": true,
        "gazeCondition": "towards",
        "faceOnLeft": false,
        "impliedDirection": 180,
        "testDirection": 0,
        "avgFps": 60,
        "minFps": 59,
        "maxFps": 65,
        "totalFrames": 69,
        "frameRates": 60
      },
      {
        "trial_number": 52,
        "trial_index": 369,
        "rt": 958,
        "correct": true,
        "response": "ArrowLeft",
        "congruent": false,
        "gazeTowards": true,
        "gazeCondition": "towards",
        "faceOnLeft": true,
        "impliedDirection": 0,
        "testDirection": 180,
        "avgFps": 60,
        "minFps": 59,
        "maxFps": 66,
        "totalFrames": 58,
        "frameRates": 60
      },
      {
        "trial_number": 53,
        "trial_index": 374,
        "rt": 791,
        "correct": true,
        "response": "ArrowLeft",
        "congruent": true,
        "gazeTowards": false,
        "gazeCondition": "away",
        "faceOnLeft": false,
        "impliedDirection": 180,
        "testDirection": 180,
        "avgFps": 60,
        "minFps": 60,
        "maxFps": 66,
        "totalFrames": 48,
        "frameRates": 60
      },
      {
        "trial_number": 54,
        "trial_index": 379,
        "rt": 889,
        "correct": true,
        "response": "ArrowRight",
        "congruent": true,
        "gazeTowards": true,
        "gazeCondition": "towards",
        "faceOnLeft": true,
        "impliedDirection": 0,
        "testDirection": 0,
        "avgFps": 60,
        "minFps": 60,
        "maxFps": 65,
        "totalFrames": 53,
        "frameRates": 60
      },
      {
        "trial_number": 55,
        "trial_index": 384,
        "rt": 906,
        "correct": true,
        "response": "ArrowRight",
        "congruent": true,
        "gazeTowards": true,
        "gazeCondition": "towards",
        "faceOnLeft": true,
        "impliedDirection": 0,
        "testDirection": 0,
        "avgFps": 60,
        "minFps": 59,
        "maxFps": 62,
        "totalFrames": 54,
        "frameRates": 60
      },
      {
        "trial_number": 56,
        "trial_index": 389,
        "rt": 808,
        "correct": true,
        "response": "ArrowLeft",
        "congruent": false,
        "gazeTowards": false,
        "gazeCondition": "away",
        "faceOnLeft": true,
        "impliedDirection": 0,
        "testDirection": 180,
        "avgFps": 60,
        "minFps": 60,
        "maxFps": 65,
        "totalFrames": 49,
        "frameRates": 60
      },
      {
        "trial_number": 57,
        "trial_index": 394,
        "rt": 793,
        "correct": true,
        "response": "ArrowRight",
        "congruent": true,
        "gazeTowards": true,
        "gazeCondition": "towards",
        "faceOnLeft": true,
        "impliedDirection": 0,
        "testDirection": 0,
        "avgFps": 60,
        "minFps": 60,
        "maxFps": 65,
        "totalFrames": 48,
        "frameRates": 60
      },
      {
        "trial_number": 58,
        "trial_index": 399,
        "rt": 1131,
        "correct": true,
        "response": "ArrowRight",
        "congruent": true,
        "gazeTowards": true,
        "gazeCondition": "towards",
        "faceOnLeft": true,
        "impliedDirection": 0,
        "testDirection": 0,
        "avgFps": 60,
        "minFps": 59,
        "maxFps": 65,
        "totalFrames": 68,
        "frameRates": 60
      },
      {
        "trial_number": 59,
        "trial_index": 404,
        "rt": 939,
        "correct": true,
        "response": "ArrowLeft",
        "congruent": true,
        "gazeTowards": false,
        "gazeCondition": "away",
        "faceOnLeft": false,
        "impliedDirection": 180,
        "testDirection": 180,
        "avgFps": 60,
        "minFps": 59,
        "maxFps": 67,
        "totalFrames": 56,
        "frameRates": 60
      },
      {
        "trial_number": 60,
        "trial_index": 410,
        "rt": 799,
        "correct": true,
        "response": "ArrowRight",
        "congruent": true,
        "gazeTowards": true,
        "gazeCondition": "towards",
        "faceOnLeft": true,
        "impliedDirection": 0,
        "testDirection": 0,
        "avgFps": 60,
        "minFps": 57,
        "maxFps": 63,
        "totalFrames": 48,
        "frameRates": 60
      },
      {
        "trial_number": 61,
        "trial_index": 415,
        "rt": 773,
        "correct": true,
        "response": "ArrowRight",
        "congruent": false,
        "gazeTowards": true,
        "gazeCondition": "towards",
        "faceOnLeft": false,
        "impliedDirection": 180,
        "testDirection": 0,
        "avgFps": 60,
        "minFps": 60,
        "maxFps": 65,
        "totalFrames": 46,
        "frameRates": 60
      },
      {
        "trial_number": 62,
        "trial_index": 423,
        "rt": 892,
        "correct": true,
        "response": "ArrowRight",
        "congruent": true,
        "gazeTowards": false,
        "gazeCondition": "away",
        "faceOnLeft": true,
        "impliedDirection": 0,
        "testDirection": 0,
        "avgFps": 60,
        "minFps": 59,
        "maxFps": 61,
        "totalFrames": 53,
        "frameRates": 60
      },
      {
        "trial_number": 63,
        "trial_index": 428,
        "rt": 724,
        "correct": true,
        "response": "ArrowRight",
        "congruent": false,
        "gazeTowards": true,
        "gazeCondition": "towards",
        "faceOnLeft": false,
        "impliedDirection": 180,
        "testDirection": 0,
        "avgFps": 60,
        "minFps": 59,
        "maxFps": 65,
        "totalFrames": 43,
        "frameRates": 60
      },
      {
        "trial_number": 64,
        "trial_index": 433,
        "rt": 665,
        "correct": true,
        "response": "ArrowLeft",
        "congruent": true,
        "gazeTowards": false,
        "gazeCondition": "away",
        "faceOnLeft": false,
        "impliedDirection": 180,
        "testDirection": 180,
        "avgFps": 60,
        "minFps": 59,
        "maxFps": 66,
        "totalFrames": 40,
        "frameRates": 60
      },
      {
        "trial_number": 65,
        "trial_index": 438,
        "rt": 694,
        "correct": true,
        "response": "ArrowRight",
        "congruent": true,
        "gazeTowards": true,
        "gazeCondition": "towards",
        "faceOnLeft": true,
        "impliedDirection": 0,
        "testDirection": 0,
        "avgFps": 60,
        "minFps": 60,
        "maxFps": 66,
        "totalFrames": 42,
        "frameRates": 60
      },
      {
        "trial_number": 66,
        "trial_index": 443,
        "rt": 786,
        "correct": true,
        "response": "ArrowRight",
        "congruent": true,
        "gazeTowards": false,
        "gazeCondition": "away",
        "faceOnLeft": true,
        "impliedDirection": 0,
        "testDirection": 0,
        "avgFps": 60,
        "minFps": 59,
        "maxFps": 65,
        "totalFrames": 47,
        "frameRates": 60
      },
      {
        "trial_number": 67,
        "trial_index": 448,
        "rt": 577,
        "correct": true,
        "response": "ArrowLeft",
        "congruent": true,
        "gazeTowards": false,
        "gazeCondition": "away",
        "faceOnLeft": false,
        "impliedDirection": 180,
        "testDirection": 180,
        "avgFps": 60,
        "minFps": 59,
        "maxFps": 65,
        "totalFrames": 35,
        "frameRates": 60
      },
      {
        "trial_number": 68,
        "trial_index": 453,
        "rt": 647,
        "correct": true,
        "response": "ArrowRight",
        "congruent": false,
        "gazeTowards": false,
        "gazeCondition": "away",
        "faceOnLeft": false,
        "impliedDirection": 180,
        "testDirection": 0,
        "avgFps": 60,
        "minFps": 60,
        "maxFps": 62,
        "totalFrames": 39,
        "frameRates": 60
      },
      {
        "trial_number": 69,
        "trial_index": 458,
        "rt": 633,
        "correct": true,
        "response": "ArrowLeft",
        "congruent": false,
        "gazeTowards": false,
        "gazeCondition": "away",
        "faceOnLeft": true,
        "impliedDirection": 0,
        "testDirection": 180,
        "avgFps": 60,
        "minFps": 60,
        "maxFps": 63,
        "totalFrames": 38,
        "frameRates": 60
      },
      {
        "trial_number": 70,
        "trial_index": 463,
        "rt": 513,
        "correct": true,
        "response": "ArrowRight",
        "congruent": false,
        "gazeTowards": false,
        "gazeCondition": "away",
        "faceOnLeft": false,
        "impliedDirection": 180,
        "testDirection": 0,
        "avgFps": 60,
        "minFps": 60,
        "maxFps": 65,
        "totalFrames": 31,
        "frameRates": 60
      },
      {
        "trial_number": 71,
        "trial_index": 471,
        "rt": 658,
        "correct": true,
        "response": "ArrowRight",
        "congruent": true,
        "gazeTowards": true,
        "gazeCondition": "towards",
        "faceOnLeft": true,
        "impliedDirection": 0,
        "testDirection": 0,
        "avgFps": 60,
        "minFps": 60,
        "maxFps": 69,
        "totalFrames": 40,
        "frameRates": 60
      },
      {
        "trial_number": 72,
        "trial_index": 476,
        "rt": 632,
        "correct": true,
        "response": "ArrowRight",
        "congruent": false,
        "gazeTowards": true,
        "gazeCondition": "towards",
        "faceOnLeft": false,
        "impliedDirection": 180,
        "testDirection": 0,
        "avgFps": 60,
        "minFps": 58,
        "maxFps": 64,
        "totalFrames": 38,
        "frameRates": 60
      },
      {
        "trial_number": 73,
        "trial_index": 481,
        "rt": 602,
        "correct": true,
        "response": "ArrowRight",
        "congruent": true,
        "gazeTowards": true,
        "gazeCondition": "towards",
        "faceOnLeft": true,
        "impliedDirection": 0,
        "testDirection": 0,
        "avgFps": 60,
        "minFps": 59,
        "maxFps": 65,
        "totalFrames": 36,
        "frameRates": 60
      },
      {
        "trial_number": 74,
        "trial_index": 486,
        "rt": 641,
        "correct": true,
        "response": "ArrowLeft",
        "congruent": true,
        "gazeTowards": true,
        "gazeCondition": "towards",
        "faceOnLeft": false,
        "impliedDirection": 180,
        "testDirection": 180,
        "avgFps": 60,
        "minFps": 59,
        "maxFps": 61,
        "totalFrames": 37,
        "frameRates": 60
      },
      {
        "trial_number": 75,
        "trial_index": 491,
        "rt": 709,
        "correct": true,
        "response": "ArrowRight",
        "congruent": false,
        "gazeTowards": false,
        "gazeCondition": "away",
        "faceOnLeft": false,
        "impliedDirection": 180,
        "testDirection": 0,
        "avgFps": 60,
        "minFps": 60,
        "maxFps": 65,
        "totalFrames": 42,
        "frameRates": 60
      },
      {
        "trial_number": 76,
        "trial_index": 496,
        "rt": 770,
        "correct": true,
        "response": "ArrowLeft",
        "congruent": true,
        "gazeTowards": true,
        "gazeCondition": "towards",
        "faceOnLeft": false,
        "impliedDirection": 180,
        "testDirection": 180,
        "avgFps": 60,
        "minFps": 59,
        "maxFps": 66,
        "totalFrames": 46,
        "frameRates": 60
      },
      {
        "trial_number": 77,
        "trial_index": 504,
        "rt": 935,
        "correct": true,
        "response": "ArrowLeft",
        "congruent": true,
        "gazeTowards": true,
        "gazeCondition": "towards",
        "faceOnLeft": false,
        "impliedDirection": 180,
        "testDirection": 180,
        "avgFps": 60,
        "minFps": 60,
        "maxFps": 70,
        "totalFrames": 57,
        "frameRates": 60
      },
      {
        "trial_number": 78,
        "trial_index": 509,
        "rt": 738,
        "correct": true,
        "response": "ArrowLeft",
        "congruent": true,
        "gazeTowards": false,
        "gazeCondition": "away",
        "faceOnLeft": false,
        "impliedDirection": 180,
        "testDirection": 180,
        "avgFps": 60,
        "minFps": 60,
        "maxFps": 61,
        "totalFrames": 43,
        "frameRates": 60
      },
      {
        "trial_number": 79,
        "trial_index": 514,
        "rt": 861,
        "correct": true,
        "response": "ArrowRight",
        "congruent": true,
        "gazeTowards": true,
        "gazeCondition": "towards",
        "faceOnLeft": true,
        "impliedDirection": 0,
        "testDirection": 0,
        "avgFps": 60,
        "minFps": 59,
        "maxFps": 66,
        "totalFrames": 52,
        "frameRates": 60
      },
      {
        "trial_number": 80,
        "trial_index": 519,
        "rt": 715,
        "correct": true,
        "response": "ArrowRight",
        "congruent": true,
        "gazeTowards": true,
        "gazeCondition": "towards",
        "faceOnLeft": true,
        "impliedDirection": 0,
        "testDirection": 0,
        "avgFps": 60,
        "minFps": 59,
        "maxFps": 64,
        "totalFrames": 43,
        "frameRates": 60
      },
      {
        "trial_number": 81,
        "trial_index": 524,
        "rt": 674,
        "correct": true,
        "response": "ArrowRight",
        "congruent": true,
        "gazeTowards": true,
        "gazeCondition": "towards",
        "faceOnLeft": true,
        "impliedDirection": 0,
        "testDirection": 0,
        "avgFps": 60,
        "minFps": 59,
        "maxFps": 63,
        "totalFrames": 40,
        "frameRates": 60
      },
      {
        "trial_number": 82,
        "trial_index": 529,
        "rt": 841,
        "correct": true,
        "response": "ArrowRight",
        "congruent": false,
        "gazeTowards": false,
        "gazeCondition": "away",
        "faceOnLeft": false,
        "impliedDirection": 180,
        "testDirection": 0,
        "avgFps": 60,
        "minFps": 57,
        "maxFps": 65,
        "totalFrames": 51,
        "frameRates": 60
      },
      {
        "trial_number": 83,
        "trial_index": 534,
        "rt": 654,
        "correct": true,
        "response": "ArrowLeft",
        "congruent": false,
        "gazeTowards": false,
        "gazeCondition": "away",
        "faceOnLeft": true,
        "impliedDirection": 0,
        "testDirection": 180,
        "avgFps": 60,
        "minFps": 59,
        "maxFps": 65,
        "totalFrames": 40,
        "frameRates": 60
      },
      {
        "trial_number": 84,
        "trial_index": 539,
        "rt": 682,
        "correct": true,
        "response": "ArrowLeft",
        "congruent": true,
        "gazeTowards": false,
        "gazeCondition": "away",
        "faceOnLeft": false,
        "impliedDirection": 180,
        "testDirection": 180,
        "avgFps": 60,
        "minFps": 59,
        "maxFps": 65,
        "totalFrames": 41,
        "frameRates": 60
      },
      {
        "trial_number": 85,
        "trial_index": 544,
        "rt": 833,
        "correct": true,
        "response": "ArrowLeft",
        "congruent": false,
        "gazeTowards": true,
        "gazeCondition": "towards",
        "faceOnLeft": true,
        "impliedDirection": 0,
        "testDirection": 180,
        "avgFps": 60,
        "minFps": 60,
        "maxFps": 65,
        "totalFrames": 50,
        "frameRates": 60
      },
      {
        "trial_number": 86,
        "trial_index": 549,
        "rt": 716,
        "correct": true,
        "response": "ArrowRight",
        "congruent": false,
        "gazeTowards": false,
        "gazeCondition": "away",
        "faceOnLeft": false,
        "impliedDirection": 180,
        "testDirection": 0,
        "avgFps": 60,
        "minFps": 60,
        "maxFps": 66,
        "totalFrames": 43,
        "frameRates": 60
      },
      {
        "trial_number": 87,
        "trial_index": 554,
        "rt": 742,
        "correct": true,
        "response": "ArrowRight",
        "congruent": false,
        "gazeTowards": true,
        "gazeCondition": "towards",
        "faceOnLeft": false,
        "impliedDirection": 180,
        "testDirection": 0,
        "avgFps": 60,
        "minFps": 59,
        "maxFps": 66,
        "totalFrames": 45,
        "frameRates": 60
      },
      {
        "trial_number": 88,
        "trial_index": 559,
        "rt": 762,
        "correct": true,
        "response": "ArrowLeft",
        "congruent": true,
        "gazeTowards": false,
        "gazeCondition": "away",
        "faceOnLeft": false,
        "impliedDirection": 180,
        "testDirection": 180,
        "avgFps": 60,
        "minFps": 60,
        "maxFps": 66,
        "totalFrames": 46,
        "frameRates": 60
      },
      {
        "trial_number": 89,
        "trial_index": 564,
        "rt": 648,
        "correct": true,
        "response": "ArrowLeft",
        "congruent": true,
        "gazeTowards": true,
        "gazeCondition": "towards",
        "faceOnLeft": false,
        "impliedDirection": 180,
        "testDirection": 180,
        "avgFps": 60,
        "minFps": 60,
        "maxFps": 65,
        "totalFrames": 39,
        "frameRates": 60
      },
      {
        "trial_number": 90,
        "trial_index": 570,
        "rt": 813,
        "correct": true,
        "response": "ArrowLeft",
        "congruent": true,
        "gazeTowards": false,
        "gazeCondition": "away",
        "faceOnLeft": false,
        "impliedDirection": 180,
        "testDirection": 180,
        "avgFps": 60,
        "minFps": 58,
        "maxFps": 63,
        "totalFrames": 49,
        "frameRates": 60
      },
      {
        "trial_number": 91,
        "trial_index": 575,
        "rt": 778,
        "correct": true,
        "response": "ArrowLeft",
        "congruent": true,
        "gazeTowards": true,
        "gazeCondition": "towards",
        "faceOnLeft": false,
        "impliedDirection": 180,
        "testDirection": 180,
        "avgFps": 60,
        "minFps": 59,
        "maxFps": 66,
        "totalFrames": 47,
        "frameRates": 60
      },
      {
        "trial_number": 92,
        "trial_index": 583,
        "rt": 869,
        "correct": true,
        "response": "ArrowRight",
        "congruent": true,
        "gazeTowards": false,
        "gazeCondition": "away",
        "faceOnLeft": true,
        "impliedDirection": 0,
        "testDirection": 0,
        "avgFps": 60,
        "minFps": 59,
        "maxFps": 60,
        "totalFrames": 52,
        "frameRates": 60
      },
      {
        "trial_number": 93,
        "trial_index": 588,
        "rt": 685,
        "correct": true,
        "response": "ArrowLeft",
        "congruent": true,
        "gazeTowards": true,
        "gazeCondition": "towards",
        "faceOnLeft": false,
        "impliedDirection": 180,
        "testDirection": 180,
        "avgFps": 59,
        "minFps": 30,
        "maxFps": 65,
        "totalFrames": 41,
        "frameRates": 59
      },
      {
        "trial_number": 94,
        "trial_index": 596,
        "rt": 665,
        "correct": true,
        "response": "ArrowRight",
        "congruent": true,
        "gazeTowards": false,
        "gazeCondition": "away",
        "faceOnLeft": true,
        "impliedDirection": 0,
        "testDirection": 0,
        "avgFps": 60,
        "minFps": 59,
        "maxFps": 71,
        "totalFrames": 40,
        "frameRates": 60
      },
      {
        "trial_number": 95,
        "trial_index": 601,
        "rt": 791,
        "correct": true,
        "response": "ArrowLeft",
        "congruent": false,
        "gazeTowards": false,
        "gazeCondition": "away",
        "faceOnLeft": true,
        "impliedDirection": 0,
        "testDirection": 180,
        "avgFps": 60,
        "minFps": 60,
        "maxFps": 65,
        "totalFrames": 47,
        "frameRates": 60
      },
      {
        "trial_number": 96,
        "trial_index": 606,
        "rt": 603,
        "correct": true,
        "response": "ArrowLeft",
        "congruent": false,
        "gazeTowards": false,
        "gazeCondition": "away",
        "faceOnLeft": true,
        "impliedDirection": 0,
        "testDirection": 180,
        "avgFps": 60,
        "minFps": 60,
        "maxFps": 64,
        "totalFrames": 36,
        "frameRates": 60
      },
      {
        "trial_number": 97,
        "trial_index": 611,
        "rt": 715,
        "correct": true,
        "response": "ArrowLeft",
        "congruent": false,
        "gazeTowards": false,
        "gazeCondition": "away",
        "faceOnLeft": true,
        "impliedDirection": 0,
        "testDirection": 180,
        "avgFps": 60,
        "minFps": 59,
        "maxFps": 65,
        "totalFrames": 42,
        "frameRates": 60
      },
      {
        "trial_number": 98,
        "trial_index": 616,
        "rt": 813,
        "correct": true,
        "response": "ArrowLeft",
        "congruent": true,
        "gazeTowards": true,
        "gazeCondition": "towards",
        "faceOnLeft": false,
        "impliedDirection": 180,
        "testDirection": 180,
        "avgFps": 60,
        "minFps": 60,
        "maxFps": 65,
        "totalFrames": 49,
        "frameRates": 60
      },
      {
        "trial_number": 99,
        "trial_index": 621,
        "rt": 766,
        "correct": true,
        "response": "ArrowRight",
        "congruent": false,
        "gazeTowards": false,
        "gazeCondition": "away",
        "faceOnLeft": false,
        "impliedDirection": 180,
        "testDirection": 0,
        "avgFps": 59,
        "minFps": 31,
        "maxFps": 62,
        "totalFrames": 45,
        "frameRates": 59
      },
      {
        "trial_number": 100,
        "trial_index": 626,
        "rt": 736,
        "correct": true,
        "response": "ArrowRight",
        "congruent": true,
        "gazeTowards": false,
        "gazeCondition": "away",
        "faceOnLeft": true,
        "impliedDirection": 0,
        "testDirection": 0,
        "avgFps": 60,
        "minFps": 60,
        "maxFps": 64,
        "totalFrames": 44,
        "frameRates": 60
      },
      {
        "trial_number": 101,
        "trial_index": 631,
        "rt": 648,
        "correct": true,
        "response": "ArrowRight",
        "congruent": false,
        "gazeTowards": true,
        "gazeCondition": "towards",
        "faceOnLeft": false,
        "impliedDirection": 180,
        "testDirection": 0,
        "avgFps": 60,
        "minFps": 59,
        "maxFps": 66,
        "totalFrames": 39,
        "frameRates": 60
      },
      {
        "trial_number": 102,
        "trial_index": 636,
        "rt": 590,
        "correct": true,
        "response": "ArrowLeft",
        "congruent": false,
        "gazeTowards": true,
        "gazeCondition": "towards",
        "faceOnLeft": true,
        "impliedDirection": 0,
        "testDirection": 180,
        "avgFps": 60,
        "minFps": 59,
        "maxFps": 65,
        "totalFrames": 35,
        "frameRates": 60
      },
      {
        "trial_number": 103,
        "trial_index": 644,
        "rt": 708,
        "correct": true,
        "response": "ArrowLeft",
        "congruent": false,
        "gazeTowards": false,
        "gazeCondition": "away",
        "faceOnLeft": true,
        "impliedDirection": 0,
        "testDirection": 180,
        "avgFps": 60,
        "minFps": 59,
        "maxFps": 66,
        "totalFrames": 43,
        "frameRates": 60
      },
      {
        "trial_number": 104,
        "trial_index": 649,
        "rt": 659,
        "correct": true,
        "response": "ArrowLeft",
        "congruent": false,
        "gazeTowards": true,
        "gazeCondition": "towards",
        "faceOnLeft": true,
        "impliedDirection": 0,
        "testDirection": 180,
        "avgFps": 59,
        "minFps": 31,
        "maxFps": 61,
        "totalFrames": 39,
        "frameRates": 59
      },
      {
        "trial_number": 105,
        "trial_index": 654,
        "rt": 877,
        "correct": true,
        "response": "ArrowRight",
        "congruent": true,
        "gazeTowards": true,
        "gazeCondition": "towards",
        "faceOnLeft": true,
        "impliedDirection": 0,
        "testDirection": 0,
        "avgFps": 60,
        "minFps": 60,
        "maxFps": 66,
        "totalFrames": 52,
        "frameRates": 60
      },
      {
        "trial_number": 106,
        "trial_index": 659,
        "rt": 624,
        "correct": true,
        "response": "ArrowLeft",
        "congruent": true,
        "gazeTowards": false,
        "gazeCondition": "away",
        "faceOnLeft": false,
        "impliedDirection": 180,
        "testDirection": 180,
        "avgFps": 60,
        "minFps": 60,
        "maxFps": 62,
        "totalFrames": 37,
        "frameRates": 60
      },
      {
        "trial_number": 107,
        "trial_index": 664,
        "rt": 644,
        "correct": true,
        "response": "ArrowRight",
        "congruent": true,
        "gazeTowards": false,
        "gazeCondition": "away",
        "faceOnLeft": true,
        "impliedDirection": 0,
        "testDirection": 0,
        "avgFps": 60,
        "minFps": 60,
        "maxFps": 62,
        "totalFrames": 39,
        "frameRates": 60
      },
      {
        "trial_number": 108,
        "trial_index": 669,
        "rt": 668,
        "correct": true,
        "response": "ArrowLeft",
        "congruent": false,
        "gazeTowards": true,
        "gazeCondition": "towards",
        "faceOnLeft": true,
        "impliedDirection": 0,
        "testDirection": 180,
        "avgFps": 59,
        "minFps": 31,
        "maxFps": 62,
        "totalFrames": 40,
        "frameRates": 59
      },
      {
        "trial_number": 109,
        "trial_index": 674,
        "rt": 757,
        "correct": true,
        "response": "ArrowLeft",
        "congruent": true,
        "gazeTowards": false,
        "gazeCondition": "away",
        "faceOnLeft": false,
        "impliedDirection": 180,
        "testDirection": 180,
        "avgFps": 60,
        "minFps": 59,
        "maxFps": 66,
        "totalFrames": 46,
        "frameRates": 60
      },
      {
        "trial_number": 110,
        "trial_index": 679,
        "rt": 645,
        "correct": true,
        "response": "ArrowLeft",
        "congruent": true,
        "gazeTowards": true,
        "gazeCondition": "towards",
        "faceOnLeft": false,
        "impliedDirection": 180,
        "testDirection": 180,
        "avgFps": 60,
        "minFps": 60,
        "maxFps": 66,
        "totalFrames": 39,
        "frameRates": 60
      },
      {
        "trial_number": 111,
        "trial_index": 684,
        "rt": 880,
        "correct": true,
        "response": "ArrowLeft",
        "congruent": false,
        "gazeTowards": true,
        "gazeCondition": "towards",
        "faceOnLeft": true,
        "impliedDirection": 0,
        "testDirection": 180,
        "avgFps": 60,
        "minFps": 59,
        "maxFps": 66,
        "totalFrames": 53,
        "frameRates": 60
      },
      {
        "trial_number": 112,
        "trial_index": 689,
        "rt": 649,
        "correct": true,
        "response": "ArrowLeft",
        "congruent": true,
        "gazeTowards": false,
        "gazeCondition": "away",
        "faceOnLeft": false,
        "impliedDirection": 180,
        "testDirection": 180,
        "avgFps": 60,
        "minFps": 59,
        "maxFps": 66,
        "totalFrames": 39,
        "frameRates": 60
      },
      {
        "trial_number": 113,
        "trial_index": 694,
        "rt": 827,
        "correct": true,
        "response": "ArrowRight",
        "congruent": true,
        "gazeTowards": true,
        "gazeCondition": "towards",
        "faceOnLeft": true,
        "impliedDirection": 0,
        "testDirection": 0,
        "avgFps": 60,
        "minFps": 60,
        "maxFps": 66,
        "totalFrames": 50,
        "frameRates": 60
      },
      {
        "trial_number": 114,
        "trial_index": 699,
        "rt": 873,
        "correct": true,
        "response": "ArrowRight",
        "congruent": true,
        "gazeTowards": false,
        "gazeCondition": "away",
        "faceOnLeft": true,
        "impliedDirection": 0,
        "testDirection": 0,
        "avgFps": 60,
        "minFps": 59,
        "maxFps": 66,
        "totalFrames": 53,
        "frameRates": 60
      },
      {
        "trial_number": 115,
        "trial_index": 704,
        "rt": 668,
        "correct": true,
        "response": "ArrowLeft",
        "congruent": false,
        "gazeTowards": true,
        "gazeCondition": "towards",
        "faceOnLeft": true,
        "impliedDirection": 0,
        "testDirection": 180,
        "avgFps": 60,
        "minFps": 59,
        "maxFps": 65,
        "totalFrames": 40,
        "frameRates": 60
      },
      {
        "trial_number": 116,
        "trial_index": 709,
        "rt": 841,
        "correct": true,
        "response": "ArrowLeft",
        "congruent": false,
        "gazeTowards": false,
        "gazeCondition": "away",
        "faceOnLeft": true,
        "impliedDirection": 0,
        "testDirection": 180,
        "avgFps": 60,
        "minFps": 60,
        "maxFps": 65,
        "totalFrames": 51,
        "frameRates": 60
      },
      {
        "trial_number": 117,
        "trial_index": 714,
        "rt": 847,
        "correct": true,
        "response": "ArrowLeft",
        "congruent": false,
        "gazeTowards": false,
        "gazeCondition": "away",
        "faceOnLeft": true,
        "impliedDirection": 0,
        "testDirection": 180,
        "avgFps": 60,
        "minFps": 59,
        "maxFps": 65,
        "totalFrames": 51,
        "frameRates": 60
      },
      {
        "trial_number": 118,
        "trial_index": 719,
        "rt": 1249,
        "correct": true,
        "response": "ArrowLeft",
        "congruent": false,
        "gazeTowards": true,
        "gazeCondition": "towards",
        "faceOnLeft": true,
        "impliedDirection": 0,
        "testDirection": 180,
        "avgFps": 60,
        "minFps": 59,
        "maxFps": 66,
        "totalFrames": 75,
        "frameRates": 60
      },
      {
        "trial_number": 119,
        "trial_index": 724,
        "rt": 828,
        "correct": true,
        "response": "ArrowRight",
        "congruent": true,
        "gazeTowards": true,
        "gazeCondition": "towards",
        "faceOnLeft": true,
        "impliedDirection": 0,
        "testDirection": 0,
        "avgFps": 60,
        "minFps": 60,
        "maxFps": 66,
        "totalFrames": 49,
        "frameRates": 60
      }
    ],
    "catch": {
      "total": 12,
      "correct": 12,
      "accuracy": 100,
      "meanRT": 737,
      "trials": [
        {
          "trial_number": 0,
          "trial_index": 94,
          "rt": 529,
          "correct": true,
          "colorTarget": "tree",
          "gazeTowards": true,
          "gazeCondition": "towards",
          "faceOnLeft": false
        },
        {
          "trial_number": 1,
          "trial_index": 142,
          "rt": 707,
          "correct": true,
          "colorTarget": "face",
          "gazeTowards": true,
          "gazeCondition": "towards",
          "faceOnLeft": true
        },
        {
          "trial_number": 2,
          "trial_index": 155,
          "rt": 551,
          "correct": true,
          "colorTarget": "tree",
          "gazeTowards": true,
          "gazeCondition": "towards",
          "faceOnLeft": false
        },
        {
          "trial_number": 3,
          "trial_index": 254,
          "rt": 558,
          "correct": true,
          "colorTarget": "face",
          "gazeTowards": false,
          "gazeCondition": "away",
          "faceOnLeft": false
        },
        {
          "trial_number": 4,
          "trial_index": 292,
          "rt": 556,
          "correct": true,
          "colorTarget": "face",
          "gazeTowards": true,
          "gazeCondition": "towards",
          "faceOnLeft": false
        },
        {
          "trial_number": 5,
          "trial_index": 355,
          "rt": 645,
          "correct": true,
          "colorTarget": "tree",
          "gazeTowards": false,
          "gazeCondition": "away",
          "faceOnLeft": false
        },
        {
          "trial_number": 6,
          "trial_index": 419,
          "rt": 837,
          "correct": true,
          "colorTarget": "tree",
          "gazeTowards": true,
          "gazeCondition": "towards",
          "faceOnLeft": true
        },
        {
          "trial_number": 7,
          "trial_index": 467,
          "rt": 587,
          "correct": true,
          "colorTarget": "tree",
          "gazeTowards": false,
          "gazeCondition": "away",
          "faceOnLeft": false
        },
        {
          "trial_number": 8,
          "trial_index": 500,
          "rt": 802,
          "correct": true,
          "colorTarget": "face",
          "gazeTowards": true,
          "gazeCondition": "towards",
          "faceOnLeft": false
        },
        {
          "trial_number": 9,
          "trial_index": 579,
          "rt": 1560,
          "correct": true,
          "colorTarget": "tree",
          "gazeTowards": true,
          "gazeCondition": "towards",
          "faceOnLeft": true
        },
        {
          "trial_number": 10,
          "trial_index": 592,
          "rt": 707,
          "correct": true,
          "colorTarget": "face",
          "gazeTowards": false,
          "gazeCondition": "away",
          "faceOnLeft": true
        },
        {
          "trial_number": 11,
          "trial_index": 640,
          "rt": 809,
          "correct": true,
          "colorTarget": "face",
          "gazeTowards": false,
          "gazeCondition": "away",
          "faceOnLeft": false
        }
      ]
    },
    "practice": {
      "trials": [
        {
          "trial_number": 0,
          "rt": null,
          "correct": false,
          "direction": 180
        },
        {
          "trial_number": 1,
          "rt": 1259,
          "correct": false,
          "direction": 0
        },
        {
          "trial_number": 2,
          "rt": 973,
          "correct": true,
          "direction": 0
        },
        {
          "trial_number": 3,
          "rt": 1197,
          "correct": false,
          "direction": 0
        },
        {
          "trial_number": 4,
          "rt": 835,
          "correct": true,
          "direction": 180
        },
        {
          "trial_number": 5,
          "rt": 1268,
          "correct": false,
          "direction": 0
        },
        {
          "trial_number": 6,
          "rt": 1078,
          "correct": false,
          "direction": 180
        },
        {
          "trial_number": 7,
          "rt": 1176,
          "correct": false,
          "direction": 180
        },
        {
          "trial_number": 8,
          "rt": 933,
          "correct": false,
          "direction": 0
        },
        {
          "trial_number": 9,
          "rt": 1117,
          "correct": false,
          "direction": 0
        },
        {
          "trial_number": 10,
          "rt": 1019,
          "correct": true,
          "direction": 180
        },
        {
          "trial_number": 11,
          "rt": 791,
          "correct": true,
          "direction": 0
        },
        {
          "trial_number": 12,
          "rt": 1140,
          "correct": false,
          "direction": 0
        },
        {
          "trial_number": 13,
          "rt": 660,
          "correct": true,
          "direction": 0
        },
        {
          "trial_number": 14,
          "rt": 711,
          "correct": true,
          "direction": 180
        },
        {
          "trial_number": 15,
          "rt": 670,
          "correct": true,
          "direction": 0
        },
        {
          "trial_number": 16,
          "rt": 693,
          "correct": true,
          "direction": 180
        },
        {
          "trial_number": 17,
          "rt": 731,
          "correct": true,
          "direction": 180
        },
        {
          "trial_number": 18,
          "rt": 633,
          "correct": true,
          "direction": 0
        },
        {
          "trial_number": 19,
          "rt": 571,
          "correct": true,
          "direction": 0
        }
      ],
      "meanRT": 919,
      "accuracy": 55
    }
  }
}