{
  "experiment": "rdk-face-1",
  "UUID": "a1a3d477-33f3-435c-aedd-2a1e98b30b70",
  "data": {
    "session": {
      "experiment_version": "1.8.6",
      "treatment": "faces_towards_away_catch",
      "file_version": "1.8.6",
      "totalTrials": 120,
      "totalTrialsIncludingCatch": 132,
      "conditions": {
        "gazeTowardsCount": 60,
        "gazeAwayCount": 60,
        "gazeTowardsAccuracy": 85,
        "gazeAwayAccuracy": 85
      },
      "session_group": "default",
      "browserData": {
        "os": "Windows",
        "browser": "Chrome",
        "screenResolution": "1920x1080",
        "browserViewport": "1920x1080",
        "devicePixelRatio": 1,
        "colorDepth": 32,
        "hardwareConcurrency": 6,
        "deviceMemory": 8,
        "gpuRenderer": "ANGLE (NVIDIA, NVIDIA GeForce GTX 1650 SUPER (0x00002187) Direct3D11 vs_5_0 ps_5_0, D3D11)",
        "measuredRefreshRateHz": 55
      },
      "attention": {
        "visibilityEvents": [
          {
            "event": "blur",
            "state": "blurred",
            "timestamp": 1772766175499
          },
          {
            "event": "visibilitychange",
            "state": "hidden",
            "timestamp": 1772766175502
          },
          {
            "event": "visibilitychange",
            "state": "visible",
            "timestamp": 1772766179065
          },
          {
            "event": "focus",
            "state": "focused",
            "timestamp": 1772766179069
          }
        ]
      },
      "calibration": {
        "monitorWidthCm": 38,
        "viewingDistanceCm": 54,
        "pixelsPerDegree": 50
      },
      "parameters": {
        "coherence": 0.4,
        "apertureDeg": 5,
        "densityDotsPerDeg2": 40,
        "dotDiameterDeg": 0.035,
        "dotSpeedDegPerSec": 3,
        "lifetimeMs": 200,
        "fixationDurationMs": 1500,
        "faceDurationMs": 1500,
        "testDurationMs": 2000,
        "catchResponseMs": 3000
      },
      "prolific": {
        "prolificPid": "631f1b39c8bbf761fd66c863",
        "studyId": "",
        "sessionId": ""
      },
      "timing": {
        "startTime": "2026-03-06T03:02:52.216Z",
        "endTime": "2026-03-06T03:18:52.000Z",
        "totalElapsedTimeMs": 959784
      }
    },
    "trials": [
      {
        "trial_number": 0,
        "trial_index": 93,
        "rt": 1434,
        "correct": true,
        "response": "ArrowRight",
        "congruent": true,
        "gazeTowards": true,
        "gazeCondition": "towards",
        "faceOnLeft": true,
        "impliedDirection": 0,
        "testDirection": 0,
        "avgFps": 60,
        "minFps": 60,
        "maxFps": 61,
        "totalFrames": 86,
        "frameRates": 60
      },
      {
        "trial_number": 1,
        "trial_index": 98,
        "rt": 1409,
        "correct": true,
        "response": "ArrowRight",
        "congruent": false,
        "gazeTowards": false,
        "gazeCondition": "away",
        "faceOnLeft": false,
        "impliedDirection": 180,
        "testDirection": 0,
        "avgFps": 60,
        "minFps": 60,
        "maxFps": 61,
        "totalFrames": 84,
        "frameRates": 60
      },
      {
        "trial_number": 2,
        "trial_index": 103,
        "rt": 1750,
        "correct": false,
        "response": "ArrowLeft",
        "congruent": true,
        "gazeTowards": true,
        "gazeCondition": "towards",
        "faceOnLeft": true,
        "impliedDirection": 0,
        "testDirection": 0,
        "avgFps": 60,
        "minFps": 60,
        "maxFps": 61,
        "totalFrames": 105,
        "frameRates": 60
      },
      {
        "trial_number": 3,
        "trial_index": 108,
        "rt": 1481,
        "correct": true,
        "response": "ArrowLeft",
        "congruent": true,
        "gazeTowards": false,
        "gazeCondition": "away",
        "faceOnLeft": false,
        "impliedDirection": 180,
        "testDirection": 180,
        "avgFps": 60,
        "minFps": 60,
        "maxFps": 61,
        "totalFrames": 89,
        "frameRates": 60
      },
      {
        "trial_number": 4,
        "trial_index": 113,
        "rt": 1716,
        "correct": true,
        "response": "ArrowLeft",
        "congruent": false,
        "gazeTowards": true,
        "gazeCondition": "towards",
        "faceOnLeft": true,
        "impliedDirection": 0,
        "testDirection": 180,
        "avgFps": 60,
        "minFps": 59,
        "maxFps": 61,
        "totalFrames": 103,
        "frameRates": 60
      },
      {
        "trial_number": 5,
        "trial_index": 118,
        "rt": 1050,
        "correct": true,
        "response": "ArrowLeft",
        "congruent": true,
        "gazeTowards": true,
        "gazeCondition": "towards",
        "faceOnLeft": false,
        "impliedDirection": 180,
        "testDirection": 180,
        "avgFps": 60,
        "minFps": 60,
        "maxFps": 61,
        "totalFrames": 63,
        "frameRates": 60
      },
      {
        "trial_number": 6,
        "trial_index": 123,
        "rt": null,
        "correct": false,
        "response": null,
        "congruent": false,
        "gazeTowards": false,
        "gazeCondition": "away",
        "faceOnLeft": true,
        "impliedDirection": 0,
        "testDirection": 180,
        "avgFps": 60,
        "minFps": 59,
        "maxFps": 61,
        "totalFrames": 120,
        "frameRates": 60
      },
      {
        "trial_number": 7,
        "trial_index": 128,
        "rt": 830,
        "correct": true,
        "response": "ArrowRight",
        "congruent": true,
        "gazeTowards": false,
        "gazeCondition": "away",
        "faceOnLeft": true,
        "impliedDirection": 0,
        "testDirection": 0,
        "avgFps": 60,
        "minFps": 60,
        "maxFps": 61,
        "totalFrames": 50,
        "frameRates": 60
      },
      {
        "trial_number": 8,
        "trial_index": 133,
        "rt": 1276,
        "correct": true,
        "response": "ArrowLeft",
        "congruent": false,
        "gazeTowards": true,
        "gazeCondition": "towards",
        "faceOnLeft": true,
        "impliedDirection": 0,
        "testDirection": 180,
        "avgFps": 60,
        "minFps": 60,
        "maxFps": 61,
        "totalFrames": 76,
        "frameRates": 60
      },
      {
        "trial_number": 9,
        "trial_index": 138,
        "rt": 1248,
        "correct": true,
        "response": "ArrowLeft",
        "congruent": true,
        "gazeTowards": true,
        "gazeCondition": "towards",
        "faceOnLeft": false,
        "impliedDirection": 180,
        "testDirection": 180,
        "avgFps": 61,
        "minFps": 60,
        "maxFps": 10638,
        "totalFrames": 75,
        "frameRates": 61
      },
      {
        "trial_number": 10,
        "trial_index": 143,
        "rt": 1836,
        "correct": true,
        "response": "ArrowLeft",
        "congruent": false,
        "gazeTowards": false,
        "gazeCondition": "away",
        "faceOnLeft": true,
        "impliedDirection": 0,
        "testDirection": 180,
        "avgFps": 60,
        "minFps": 60,
        "maxFps": 61,
        "totalFrames": 110,
        "frameRates": 60
      },
      {
        "trial_number": 11,
        "trial_index": 148,
        "rt": 1732,
        "correct": true,
        "response": "ArrowLeft",
        "congruent": false,
        "gazeTowards": true,
        "gazeCondition": "towards",
        "faceOnLeft": true,
        "impliedDirection": 0,
        "testDirection": 180,
        "avgFps": 60,
        "minFps": 59,
        "maxFps": 61,
        "totalFrames": 103,
        "frameRates": 60
      },
      {
        "trial_number": 12,
        "trial_index": 153,
        "rt": 1825,
        "correct": false,
        "response": "ArrowRight",
        "congruent": false,
        "gazeTowards": false,
        "gazeCondition": "away",
        "faceOnLeft": true,
        "impliedDirection": 0,
        "testDirection": 180,
        "avgFps": 60,
        "minFps": 60,
        "maxFps": 60,
        "totalFrames": 110,
        "frameRates": 60
      },
      {
        "trial_number": 13,
        "trial_index": 158,
        "rt": 1851,
        "correct": true,
        "response": "ArrowLeft",
        "congruent": true,
        "gazeTowards": false,
        "gazeCondition": "away",
        "faceOnLeft": false,
        "impliedDirection": 180,
        "testDirection": 180,
        "avgFps": 61,
        "minFps": 60,
        "maxFps": 10638,
        "totalFrames": 111,
        "frameRates": 61
      },
      {
        "trial_number": 14,
        "trial_index": 166,
        "rt": 1505,
        "correct": false,
        "response": "ArrowRight",
        "congruent": false,
        "gazeTowards": false,
        "gazeCondition": "away",
        "faceOnLeft": true,
        "impliedDirection": 0,
        "testDirection": 180,
        "avgFps": 60,
        "minFps": 59,
        "maxFps": 61,
        "totalFrames": 90,
        "frameRates": 60
      },
      {
        "trial_number": 15,
        "trial_index": 171,
        "rt": 1358,
        "correct": true,
        "response": "ArrowRight",
        "congruent": true,
        "gazeTowards": true,
        "gazeCondition": "towards",
        "faceOnLeft": true,
        "impliedDirection": 0,
        "testDirection": 0,
        "avgFps": 60,
        "minFps": 59,
        "maxFps": 61,
        "totalFrames": 82,
        "frameRates": 60
      },
      {
        "trial_number": 16,
        "trial_index": 176,
        "rt": 775,
        "correct": true,
        "response": "ArrowLeft",
        "congruent": true,
        "gazeTowards": false,
        "gazeCondition": "away",
        "faceOnLeft": false,
        "impliedDirection": 180,
        "testDirection": 180,
        "avgFps": 60,
        "minFps": 60,
        "maxFps": 60,
        "totalFrames": 46,
        "frameRates": 60
      },
      {
        "trial_number": 17,
        "trial_index": 181,
        "rt": 862,
        "correct": true,
        "response": "ArrowLeft",
        "congruent": false,
        "gazeTowards": true,
        "gazeCondition": "towards",
        "faceOnLeft": true,
        "impliedDirection": 0,
        "testDirection": 180,
        "avgFps": 60,
        "minFps": 60,
        "maxFps": 61,
        "totalFrames": 51,
        "frameRates": 60
      },
      {
        "trial_number": 18,
        "trial_index": 186,
        "rt": 1150,
        "correct": true,
        "response": "ArrowLeft",
        "congruent": false,
        "gazeTowards": true,
        "gazeCondition": "towards",
        "faceOnLeft": true,
        "impliedDirection": 0,
        "testDirection": 180,
        "avgFps": 60,
        "minFps": 60,
        "maxFps": 61,
        "totalFrames": 69,
        "frameRates": 60
      },
      {
        "trial_number": 19,
        "trial_index": 191,
        "rt": 542,
        "correct": true,
        "response": "ArrowRight",
        "congruent": true,
        "gazeTowards": false,
        "gazeCondition": "away",
        "faceOnLeft": true,
        "impliedDirection": 0,
        "testDirection": 0,
        "avgFps": 60,
        "minFps": 60,
        "maxFps": 61,
        "totalFrames": 32,
        "frameRates": 60
      },
      {
        "trial_number": 20,
        "trial_index": 196,
        "rt": 702,
        "correct": true,
        "response": "ArrowLeft",
        "congruent": true,
        "gazeTowards": false,
        "gazeCondition": "away",
        "faceOnLeft": false,
        "impliedDirection": 180,
        "testDirection": 180,
        "avgFps": 59,
        "minFps": 29,
        "maxFps": 65,
        "totalFrames": 42,
        "frameRates": 59
      },
      {
        "trial_number": 21,
        "trial_index": 201,
        "rt": 622,
        "correct": true,
        "response": "ArrowRight",
        "congruent": false,
        "gazeTowards": true,
        "gazeCondition": "towards",
        "faceOnLeft": false,
        "impliedDirection": 180,
        "testDirection": 0,
        "avgFps": 60,
        "minFps": 59,
        "maxFps": 61,
        "totalFrames": 37,
        "frameRates": 60
      },
      {
        "trial_number": 22,
        "trial_index": 206,
        "rt": 1071,
        "correct": true,
        "response": "ArrowLeft",
        "congruent": false,
        "gazeTowards": false,
        "gazeCondition": "away",
        "faceOnLeft": true,
        "impliedDirection": 0,
        "testDirection": 180,
        "avgFps": 60,
        "minFps": 60,
        "maxFps": 61,
        "totalFrames": 64,
        "frameRates": 60
      },
      {
        "trial_number": 23,
        "trial_index": 211,
        "rt": 767,
        "correct": true,
        "response": "ArrowRight",
        "congruent": false,
        "gazeTowards": true,
        "gazeCondition": "towards",
        "faceOnLeft": false,
        "impliedDirection": 180,
        "testDirection": 0,
        "avgFps": 60,
        "minFps": 60,
        "maxFps": 60,
        "totalFrames": 46,
        "frameRates": 60
      },
      {
        "trial_number": 24,
        "trial_index": 219,
        "rt": 880,
        "correct": true,
        "response": "ArrowRight",
        "congruent": true,
        "gazeTowards": false,
        "gazeCondition": "away",
        "faceOnLeft": true,
        "impliedDirection": 0,
        "testDirection": 0,
        "avgFps": 60,
        "minFps": 60,
        "maxFps": 61,
        "totalFrames": 52,
        "frameRates": 60
      },
      {
        "trial_number": 25,
        "trial_index": 224,
        "rt": 921,
        "correct": true,
        "response": "ArrowLeft",
        "congruent": false,
        "gazeTowards": false,
        "gazeCondition": "away",
        "faceOnLeft": true,
        "impliedDirection": 0,
        "testDirection": 180,
        "avgFps": 60,
        "minFps": 59,
        "maxFps": 61,
        "totalFrames": 55,
        "frameRates": 60
      },
      {
        "trial_number": 26,
        "trial_index": 229,
        "rt": 838,
        "correct": true,
        "response": "ArrowLeft",
        "congruent": true,
        "gazeTowards": true,
        "gazeCondition": "towards",
        "faceOnLeft": false,
        "impliedDirection": 180,
        "testDirection": 180,
        "avgFps": 60,
        "minFps": 59,
        "maxFps": 61,
        "totalFrames": 50,
        "frameRates": 60
      },
      {
        "trial_number": 27,
        "trial_index": 234,
        "rt": 1037,
        "correct": true,
        "response": "ArrowLeft",
        "congruent": true,
        "gazeTowards": false,
        "gazeCondition": "away",
        "faceOnLeft": false,
        "impliedDirection": 180,
        "testDirection": 180,
        "avgFps": 60,
        "minFps": 59,
        "maxFps": 61,
        "totalFrames": 62,
        "frameRates": 60
      },
      {
        "trial_number": 28,
        "trial_index": 239,
        "rt": 1044,
        "correct": true,
        "response": "ArrowLeft",
        "congruent": false,
        "gazeTowards": true,
        "gazeCondition": "towards",
        "faceOnLeft": true,
        "impliedDirection": 0,
        "testDirection": 180,
        "avgFps": 61,
        "minFps": 60,
        "maxFps": null,
        "totalFrames": 63,
        "frameRates": 61
      },
      {
        "trial_number": 29,
        "trial_index": 244,
        "rt": 965,
        "correct": true,
        "response": "ArrowLeft",
        "congruent": false,
        "gazeTowards": true,
        "gazeCondition": "towards",
        "faceOnLeft": true,
        "impliedDirection": 0,
        "testDirection": 180,
        "avgFps": 60,
        "minFps": 60,
        "maxFps": 61,
        "totalFrames": 58,
        "frameRates": 60
      },
      {
        "trial_number": 30,
        "trial_index": 250,
        "rt": 638,
        "correct": true,
        "response": "ArrowRight",
        "congruent": true,
        "gazeTowards": true,
        "gazeCondition": "towards",
        "faceOnLeft": true,
        "impliedDirection": 0,
        "testDirection": 0,
        "avgFps": 60,
        "minFps": 60,
        "maxFps": 61,
        "totalFrames": 38,
        "frameRates": 60
      },
      {
        "trial_number": 31,
        "trial_index": 255,
        "rt": 799,
        "correct": true,
        "response": "ArrowRight",
        "congruent": true,
        "gazeTowards": false,
        "gazeCondition": "away",
        "faceOnLeft": true,
        "impliedDirection": 0,
        "testDirection": 0,
        "avgFps": 60,
        "minFps": 60,
        "maxFps": 61,
        "totalFrames": 48,
        "frameRates": 60
      },
      {
        "trial_number": 32,
        "trial_index": 260,
        "rt": 1244,
        "correct": true,
        "response": "ArrowLeft",
        "congruent": false,
        "gazeTowards": true,
        "gazeCondition": "towards",
        "faceOnLeft": true,
        "impliedDirection": 0,
        "testDirection": 180,
        "avgFps": 60,
        "minFps": 60,
        "maxFps": 61,
        "totalFrames": 75,
        "frameRates": 60
      },
      {
        "trial_number": 33,
        "trial_index": 265,
        "rt": 873,
        "correct": true,
        "response": "ArrowRight",
        "congruent": false,
        "gazeTowards": false,
        "gazeCondition": "away",
        "faceOnLeft": false,
        "impliedDirection": 180,
        "testDirection": 0,
        "avgFps": 60,
        "minFps": 59,
        "maxFps": 61,
        "totalFrames": 53,
        "frameRates": 60
      },
      {
        "trial_number": 34,
        "trial_index": 270,
        "rt": 725,
        "correct": false,
        "response": "ArrowRight",
        "congruent": false,
        "gazeTowards": false,
        "gazeCondition": "away",
        "faceOnLeft": true,
        "impliedDirection": 0,
        "testDirection": 180,
        "avgFps": 60,
        "minFps": 60,
        "maxFps": 60,
        "totalFrames": 44,
        "frameRates": 60
      },
      {
        "trial_number": 35,
        "trial_index": 275,
        "rt": 962,
        "correct": true,
        "response": "ArrowRight",
        "congruent": true,
        "gazeTowards": true,
        "gazeCondition": "towards",
        "faceOnLeft": true,
        "impliedDirection": 0,
        "testDirection": 0,
        "avgFps": 60,
        "minFps": 60,
        "maxFps": 60,
        "totalFrames": 58,
        "frameRates": 60
      },
      {
        "trial_number": 36,
        "trial_index": 280,
        "rt": 1082,
        "correct": true,
        "response": "ArrowRight",
        "congruent": true,
        "gazeTowards": false,
        "gazeCondition": "away",
        "faceOnLeft": true,
        "impliedDirection": 0,
        "testDirection": 0,
        "avgFps": 60,
        "minFps": 59,
        "maxFps": 61,
        "totalFrames": 65,
        "frameRates": 60
      },
      {
        "trial_number": 37,
        "trial_index": 288,
        "rt": 934,
        "correct": true,
        "response": "ArrowLeft",
        "congruent": true,
        "gazeTowards": true,
        "gazeCondition": "towards",
        "faceOnLeft": false,
        "impliedDirection": 180,
        "testDirection": 180,
        "avgFps": 60,
        "minFps": 60,
        "maxFps": 61,
        "totalFrames": 56,
        "frameRates": 60
      },
      {
        "trial_number": 38,
        "trial_index": 293,
        "rt": 714,
        "correct": true,
        "response": "ArrowLeft",
        "congruent": true,
        "gazeTowards": true,
        "gazeCondition": "towards",
        "faceOnLeft": false,
        "impliedDirection": 180,
        "testDirection": 180,
        "avgFps": 60,
        "minFps": 60,
        "maxFps": 61,
        "totalFrames": 43,
        "frameRates": 60
      },
      {
        "trial_number": 39,
        "trial_index": 298,
        "rt": 954,
        "correct": true,
        "response": "ArrowRight",
        "congruent": true,
        "gazeTowards": true,
        "gazeCondition": "towards",
        "faceOnLeft": true,
        "impliedDirection": 0,
        "testDirection": 0,
        "avgFps": 60,
        "minFps": 59,
        "maxFps": 61,
        "totalFrames": 57,
        "frameRates": 60
      },
      {
        "trial_number": 40,
        "trial_index": 303,
        "rt": 788,
        "correct": true,
        "response": "ArrowRight",
        "congruent": false,
        "gazeTowards": true,
        "gazeCondition": "towards",
        "faceOnLeft": false,
        "impliedDirection": 180,
        "testDirection": 0,
        "avgFps": 60,
        "minFps": 60,
        "maxFps": 61,
        "totalFrames": 47,
        "frameRates": 60
      },
      {
        "trial_number": 41,
        "trial_index": 308,
        "rt": 852,
        "correct": true,
        "response": "ArrowLeft",
        "congruent": true,
        "gazeTowards": false,
        "gazeCondition": "away",
        "faceOnLeft": false,
        "impliedDirection": 180,
        "testDirection": 180,
        "avgFps": 60,
        "minFps": 59,
        "maxFps": 61,
        "totalFrames": 51,
        "frameRates": 60
      },
      {
        "trial_number": 42,
        "trial_index": 313,
        "rt": 890,
        "correct": true,
        "response": "ArrowLeft",
        "congruent": false,
        "gazeTowards": true,
        "gazeCondition": "towards",
        "faceOnLeft": true,
        "impliedDirection": 0,
        "testDirection": 180,
        "avgFps": 60,
        "minFps": 60,
        "maxFps": 61,
        "totalFrames": 53,
        "frameRates": 60
      },
      {
        "trial_number": 43,
        "trial_index": 318,
        "rt": 637,
        "correct": true,
        "response": "ArrowRight",
        "congruent": false,
        "gazeTowards": true,
        "gazeCondition": "towards",
        "faceOnLeft": false,
        "impliedDirection": 180,
        "testDirection": 0,
        "avgFps": 60,
        "minFps": 58,
        "maxFps": 62,
        "totalFrames": 38,
        "frameRates": 60
      },
      {
        "trial_number": 44,
        "trial_index": 323,
        "rt": 794,
        "correct": true,
        "response": "ArrowLeft",
        "congruent": false,
        "gazeTowards": true,
        "gazeCondition": "towards",
        "faceOnLeft": true,
        "impliedDirection": 0,
        "testDirection": 180,
        "avgFps": 60,
        "minFps": 60,
        "maxFps": 61,
        "totalFrames": 47,
        "frameRates": 60
      },
      {
        "trial_number": 45,
        "trial_index": 328,
        "rt": 775,
        "correct": false,
        "response": "ArrowRight",
        "congruent": false,
        "gazeTowards": false,
        "gazeCondition": "away",
        "faceOnLeft": true,
        "impliedDirection": 0,
        "testDirection": 180,
        "avgFps": 60,
        "minFps": 60,
        "maxFps": 61,
        "totalFrames": 46,
        "frameRates": 60
      },
      {
        "trial_number": 46,
        "trial_index": 333,
        "rt": 827,
        "correct": true,
        "response": "ArrowRight",
        "congruent": true,
        "gazeTowards": false,
        "gazeCondition": "away",
        "faceOnLeft": true,
        "impliedDirection": 0,
        "testDirection": 0,
        "avgFps": 61,
        "minFps": 60,
        "maxFps": 6173,
        "totalFrames": 50,
        "frameRates": 61
      },
      {
        "trial_number": 47,
        "trial_index": 338,
        "rt": 775,
        "correct": true,
        "response": "ArrowRight",
        "congruent": false,
        "gazeTowards": false,
        "gazeCondition": "away",
        "faceOnLeft": false,
        "impliedDirection": 180,
        "testDirection": 0,
        "avgFps": 60,
        "minFps": 60,
        "maxFps": 61,
        "totalFrames": 46,
        "frameRates": 60
      },
      {
        "trial_number": 48,
        "trial_index": 343,
        "rt": 560,
        "correct": true,
        "response": "ArrowLeft",
        "congruent": true,
        "gazeTowards": false,
        "gazeCondition": "away",
        "faceOnLeft": false,
        "impliedDirection": 180,
        "testDirection": 180,
        "avgFps": 60,
        "minFps": 57,
        "maxFps": 63,
        "totalFrames": 33,
        "frameRates": 60
      },
      {
        "trial_number": 49,
        "trial_index": 348,
        "rt": 596,
        "correct": true,
        "response": "ArrowRight",
        "congruent": false,
        "gazeTowards": false,
        "gazeCondition": "away",
        "faceOnLeft": false,
        "impliedDirection": 180,
        "testDirection": 0,
        "avgFps": 62,
        "minFps": 60,
        "maxFps": 10638,
        "totalFrames": 36,
        "frameRates": 62
      },
      {
        "trial_number": 50,
        "trial_index": 353,
        "rt": 668,
        "correct": true,
        "response": "ArrowLeft",
        "congruent": true,
        "gazeTowards": false,
        "gazeCondition": "away",
        "faceOnLeft": false,
        "impliedDirection": 180,
        "testDirection": 180,
        "avgFps": 60,
        "minFps": 59,
        "maxFps": 61,
        "totalFrames": 40,
        "frameRates": 60
      },
      {
        "trial_number": 51,
        "trial_index": 358,
        "rt": 677,
        "correct": true,
        "response": "ArrowRight",
        "congruent": false,
        "gazeTowards": true,
        "gazeCondition": "towards",
        "faceOnLeft": false,
        "impliedDirection": 180,
        "testDirection": 0,
        "avgFps": 60,
        "minFps": 60,
        "maxFps": 60,
        "totalFrames": 41,
        "frameRates": 60
      },
      {
        "trial_number": 52,
        "trial_index": 363,
        "rt": 887,
        "correct": false,
        "response": "ArrowLeft",
        "congruent": false,
        "gazeTowards": true,
        "gazeCondition": "towards",
        "faceOnLeft": false,
        "impliedDirection": 180,
        "testDirection": 0,
        "avgFps": 60,
        "minFps": 60,
        "maxFps": 61,
        "totalFrames": 53,
        "frameRates": 60
      },
      {
        "trial_number": 53,
        "trial_index": 368,
        "rt": 647,
        "correct": true,
        "response": "ArrowRight",
        "congruent": false,
        "gazeTowards": true,
        "gazeCondition": "towards",
        "faceOnLeft": false,
        "impliedDirection": 180,
        "testDirection": 0,
        "avgFps": 60,
        "minFps": 60,
        "maxFps": 61,
        "totalFrames": 39,
        "frameRates": 60
      },
      {
        "trial_number": 54,
        "trial_index": 373,
        "rt": 675,
        "correct": true,
        "response": "ArrowLeft",
        "congruent": true,
        "gazeTowards": false,
        "gazeCondition": "away",
        "faceOnLeft": false,
        "impliedDirection": 180,
        "testDirection": 180,
        "avgFps": 60,
        "minFps": 60,
        "maxFps": 61,
        "totalFrames": 41,
        "frameRates": 60
      },
      {
        "trial_number": 55,
        "trial_index": 381,
        "rt": 723,
        "correct": true,
        "response": "ArrowLeft",
        "congruent": false,
        "gazeTowards": true,
        "gazeCondition": "towards",
        "faceOnLeft": true,
        "impliedDirection": 0,
        "testDirection": 180,
        "avgFps": 60,
        "minFps": 60,
        "maxFps": 61,
        "totalFrames": 43,
        "frameRates": 60
      },
      {
        "trial_number": 56,
        "trial_index": 386,
        "rt": 586,
        "correct": false,
        "response": "ArrowRight",
        "congruent": true,
        "gazeTowards": true,
        "gazeCondition": "towards",
        "faceOnLeft": false,
        "impliedDirection": 180,
        "testDirection": 180,
        "avgFps": 60,
        "minFps": 60,
        "maxFps": 61,
        "totalFrames": 35,
        "frameRates": 60
      },
      {
        "trial_number": 57,
        "trial_index": 391,
        "rt": 673,
        "correct": true,
        "response": "ArrowLeft",
        "congruent": true,
        "gazeTowards": true,
        "gazeCondition": "towards",
        "faceOnLeft": false,
        "impliedDirection": 180,
        "testDirection": 180,
        "avgFps": 60,
        "minFps": 60,
        "maxFps": 61,
        "totalFrames": 40,
        "frameRates": 60
      },
      {
        "trial_number": 58,
        "trial_index": 396,
        "rt": 889,
        "correct": true,
        "response": "ArrowRight",
        "congruent": true,
        "gazeTowards": false,
        "gazeCondition": "away",
        "faceOnLeft": true,
        "impliedDirection": 0,
        "testDirection": 0,
        "avgFps": 60,
        "minFps": 60,
        "maxFps": 61,
        "totalFrames": 54,
        "frameRates": 60
      },
      {
        "trial_number": 59,
        "trial_index": 401,
        "rt": 786,
        "correct": true,
        "response": "ArrowLeft",
        "congruent": false,
        "gazeTowards": false,
        "gazeCondition": "away",
        "faceOnLeft": true,
        "impliedDirection": 0,
        "testDirection": 180,
        "avgFps": 60,
        "minFps": 60,
        "maxFps": 61,
        "totalFrames": 47,
        "frameRates": 60
      },
      {
        "trial_number": 60,
        "trial_index": 410,
        "rt": 682,
        "correct": false,
        "response": "ArrowRight",
        "congruent": true,
        "gazeTowards": true,
        "gazeCondition": "towards",
        "faceOnLeft": false,
        "impliedDirection": 180,
        "testDirection": 180,
        "avgFps": 60,
        "minFps": 60,
        "maxFps": 61,
        "totalFrames": 40,
        "frameRates": 60
      },
      {
        "trial_number": 61,
        "trial_index": 415,
        "rt": 713,
        "correct": false,
        "response": "ArrowRight",
        "congruent": true,
        "gazeTowards": true,
        "gazeCondition": "towards",
        "faceOnLeft": false,
        "impliedDirection": 180,
        "testDirection": 180,
        "avgFps": 60,
        "minFps": 60,
        "maxFps": 61,
        "totalFrames": 42,
        "frameRates": 60
      },
      {
        "trial_number": 62,
        "trial_index": 420,
        "rt": 695,
        "correct": false,
        "response": "ArrowRight",
        "congruent": true,
        "gazeTowards": true,
        "gazeCondition": "towards",
        "faceOnLeft": false,
        "impliedDirection": 180,
        "testDirection": 180,
        "avgFps": 60,
        "minFps": 60,
        "maxFps": 61,
        "totalFrames": 41,
        "frameRates": 60
      },
      {
        "trial_number": 63,
        "trial_index": 425,
        "rt": 622,
        "correct": false,
        "response": "ArrowLeft",
        "congruent": false,
        "gazeTowards": true,
        "gazeCondition": "towards",
        "faceOnLeft": false,
        "impliedDirection": 180,
        "testDirection": 0,
        "avgFps": 60,
        "minFps": 60,
        "maxFps": 61,
        "totalFrames": 38,
        "frameRates": 60
      },
      {
        "trial_number": 64,
        "trial_index": 430,
        "rt": 758,
        "correct": false,
        "response": "ArrowRight",
        "congruent": true,
        "gazeTowards": true,
        "gazeCondition": "towards",
        "faceOnLeft": false,
        "impliedDirection": 180,
        "testDirection": 180,
        "avgFps": 60,
        "minFps": 60,
        "maxFps": 61,
        "totalFrames": 45,
        "frameRates": 60
      },
      {
        "trial_number": 65,
        "trial_index": 435,
        "rt": 1264,
        "correct": true,
        "response": "ArrowRight",
        "congruent": true,
        "gazeTowards": false,
        "gazeCondition": "away",
        "faceOnLeft": true,
        "impliedDirection": 0,
        "testDirection": 0,
        "avgFps": 60,
        "minFps": 59,
        "maxFps": 61,
        "totalFrames": 75,
        "frameRates": 60
      },
      {
        "trial_number": 66,
        "trial_index": 440,
        "rt": 981,
        "correct": false,
        "response": "ArrowRight",
        "congruent": false,
        "gazeTowards": false,
        "gazeCondition": "away",
        "faceOnLeft": true,
        "impliedDirection": 0,
        "testDirection": 180,
        "avgFps": 60,
        "minFps": 60,
        "maxFps": 61,
        "totalFrames": 59,
        "frameRates": 60
      },
      {
        "trial_number": 67,
        "trial_index": 445,
        "rt": 1500,
        "correct": true,
        "response": "ArrowLeft",
        "congruent": true,
        "gazeTowards": false,
        "gazeCondition": "away",
        "faceOnLeft": false,
        "impliedDirection": 180,
        "testDirection": 180,
        "avgFps": 60,
        "minFps": 60,
        "maxFps": 61,
        "totalFrames": 90,
        "frameRates": 60
      },
      {
        "trial_number": 68,
        "trial_index": 450,
        "rt": 871,
        "correct": true,
        "response": "ArrowLeft",
        "congruent": false,
        "gazeTowards": false,
        "gazeCondition": "away",
        "faceOnLeft": true,
        "impliedDirection": 0,
        "testDirection": 180,
        "avgFps": 60,
        "minFps": 60,
        "maxFps": 61,
        "totalFrames": 52,
        "frameRates": 60
      },
      {
        "trial_number": 69,
        "trial_index": 455,
        "rt": 1113,
        "correct": true,
        "response": "ArrowLeft",
        "congruent": true,
        "gazeTowards": false,
        "gazeCondition": "away",
        "faceOnLeft": false,
        "impliedDirection": 180,
        "testDirection": 180,
        "avgFps": 60,
        "minFps": 60,
        "maxFps": 61,
        "totalFrames": 67,
        "frameRates": 60
      },
      {
        "trial_number": 70,
        "trial_index": 460,
        "rt": 1409,
        "correct": true,
        "response": "ArrowRight",
        "congruent": false,
        "gazeTowards": false,
        "gazeCondition": "away",
        "faceOnLeft": false,
        "impliedDirection": 180,
        "testDirection": 0,
        "avgFps": 60,
        "minFps": 60,
        "maxFps": 61,
        "totalFrames": 85,
        "frameRates": 60
      },
      {
        "trial_number": 71,
        "trial_index": 465,
        "rt": 1333,
        "correct": false,
        "response": "ArrowLeft",
        "congruent": true,
        "gazeTowards": false,
        "gazeCondition": "away",
        "faceOnLeft": true,
        "impliedDirection": 0,
        "testDirection": 0,
        "avgFps": 60,
        "minFps": 60,
        "maxFps": 61,
        "totalFrames": 80,
        "frameRates": 60
      },
      {
        "trial_number": 72,
        "trial_index": 473,
        "rt": 1195,
        "correct": true,
        "response": "ArrowLeft",
        "congruent": true,
        "gazeTowards": true,
        "gazeCondition": "towards",
        "faceOnLeft": false,
        "impliedDirection": 180,
        "testDirection": 180,
        "avgFps": 60,
        "minFps": 59,
        "maxFps": 61,
        "totalFrames": 72,
        "frameRates": 60
      },
      {
        "trial_number": 73,
        "trial_index": 478,
        "rt": 1268,
        "correct": true,
        "response": "ArrowLeft",
        "congruent": true,
        "gazeTowards": true,
        "gazeCondition": "towards",
        "faceOnLeft": false,
        "impliedDirection": 180,
        "testDirection": 180,
        "avgFps": 60,
        "minFps": 60,
        "maxFps": 61,
        "totalFrames": 76,
        "frameRates": 60
      },
      {
        "trial_number": 74,
        "trial_index": 483,
        "rt": 643,
        "correct": true,
        "response": "ArrowRight",
        "congruent": false,
        "gazeTowards": false,
        "gazeCondition": "away",
        "faceOnLeft": false,
        "impliedDirection": 180,
        "testDirection": 0,
        "avgFps": 60,
        "minFps": 60,
        "maxFps": 61,
        "totalFrames": 39,
        "frameRates": 60
      },
      {
        "trial_number": 75,
        "trial_index": 488,
        "rt": 796,
        "correct": true,
        "response": "ArrowLeft",
        "congruent": true,
        "gazeTowards": false,
        "gazeCondition": "away",
        "faceOnLeft": false,
        "impliedDirection": 180,
        "testDirection": 180,
        "avgFps": 60,
        "minFps": 60,
        "maxFps": 61,
        "totalFrames": 48,
        "frameRates": 60
      },
      {
        "trial_number": 76,
        "trial_index": 493,
        "rt": 884,
        "correct": true,
        "response": "ArrowLeft",
        "congruent": true,
        "gazeTowards": true,
        "gazeCondition": "towards",
        "faceOnLeft": false,
        "impliedDirection": 180,
        "testDirection": 180,
        "avgFps": 60,
        "minFps": 60,
        "maxFps": 61,
        "totalFrames": 53,
        "frameRates": 60
      },
      {
        "trial_number": 77,
        "trial_index": 498,
        "rt": 636,
        "correct": true,
        "response": "ArrowRight",
        "congruent": false,
        "gazeTowards": false,
        "gazeCondition": "away",
        "faceOnLeft": false,
        "impliedDirection": 180,
        "testDirection": 0,
        "avgFps": 60,
        "minFps": 60,
        "maxFps": 61,
        "totalFrames": 38,
        "frameRates": 60
      },
      {
        "trial_number": 78,
        "trial_index": 503,
        "rt": 756,
        "correct": true,
        "response": "ArrowRight",
        "congruent": true,
        "gazeTowards": true,
        "gazeCondition": "towards",
        "faceOnLeft": true,
        "impliedDirection": 0,
        "testDirection": 0,
        "avgFps": 60,
        "minFps": 60,
        "maxFps": 61,
        "totalFrames": 46,
        "frameRates": 60
      },
      {
        "trial_number": 79,
        "trial_index": 508,
        "rt": 658,
        "correct": true,
        "response": "ArrowLeft",
        "congruent": true,
        "gazeTowards": true,
        "gazeCondition": "towards",
        "faceOnLeft": false,
        "impliedDirection": 180,
        "testDirection": 180,
        "avgFps": 60,
        "minFps": 60,
        "maxFps": 60,
        "totalFrames": 39,
        "frameRates": 60
      },
      {
        "trial_number": 80,
        "trial_index": 513,
        "rt": 662,
        "correct": true,
        "response": "ArrowLeft",
        "congruent": true,
        "gazeTowards": true,
        "gazeCondition": "towards",
        "faceOnLeft": false,
        "impliedDirection": 180,
        "testDirection": 180,
        "avgFps": 60,
        "minFps": 59,
        "maxFps": 61,
        "totalFrames": 40,
        "frameRates": 60
      },
      {
        "trial_number": 81,
        "trial_index": 518,
        "rt": 759,
        "correct": true,
        "response": "ArrowLeft",
        "congruent": false,
        "gazeTowards": false,
        "gazeCondition": "away",
        "faceOnLeft": true,
        "impliedDirection": 0,
        "testDirection": 180,
        "avgFps": 60,
        "minFps": 56,
        "maxFps": 64,
        "totalFrames": 45,
        "frameRates": 60
      },
      {
        "trial_number": 82,
        "trial_index": 523,
        "rt": 920,
        "correct": true,
        "response": "ArrowLeft",
        "congruent": false,
        "gazeTowards": true,
        "gazeCondition": "towards",
        "faceOnLeft": true,
        "impliedDirection": 0,
        "testDirection": 180,
        "avgFps": 60,
        "minFps": 59,
        "maxFps": 61,
        "totalFrames": 55,
        "frameRates": 60
      },
      {
        "trial_number": 83,
        "trial_index": 528,
        "rt": 1622,
        "correct": false,
        "response": "ArrowLeft",
        "congruent": false,
        "gazeTowards": true,
        "gazeCondition": "towards",
        "faceOnLeft": false,
        "impliedDirection": 180,
        "testDirection": 0,
        "avgFps": 60,
        "minFps": 60,
        "maxFps": 61,
        "totalFrames": 98,
        "frameRates": 60
      },
      {
        "trial_number": 84,
        "trial_index": 533,
        "rt": 1337,
        "correct": true,
        "response": "ArrowLeft",
        "congruent": false,
        "gazeTowards": false,
        "gazeCondition": "away",
        "faceOnLeft": true,
        "impliedDirection": 0,
        "testDirection": 180,
        "avgFps": 60,
        "minFps": 59,
        "maxFps": 61,
        "totalFrames": 80,
        "frameRates": 60
      },
      {
        "trial_number": 85,
        "trial_index": 538,
        "rt": 1066,
        "correct": true,
        "response": "ArrowLeft",
        "congruent": true,
        "gazeTowards": false,
        "gazeCondition": "away",
        "faceOnLeft": false,
        "impliedDirection": 180,
        "testDirection": 180,
        "avgFps": 60,
        "minFps": 60,
        "maxFps": 61,
        "totalFrames": 64,
        "frameRates": 60
      },
      {
        "trial_number": 86,
        "trial_index": 546,
        "rt": 577,
        "correct": true,
        "response": "ArrowRight",
        "congruent": false,
        "gazeTowards": true,
        "gazeCondition": "towards",
        "faceOnLeft": false,
        "impliedDirection": 180,
        "testDirection": 0,
        "avgFps": 60,
        "minFps": 60,
        "maxFps": 61,
        "totalFrames": 34,
        "frameRates": 60
      },
      {
        "trial_number": 87,
        "trial_index": 551,
        "rt": 677,
        "correct": true,
        "response": "ArrowLeft",
        "congruent": false,
        "gazeTowards": false,
        "gazeCondition": "away",
        "faceOnLeft": true,
        "impliedDirection": 0,
        "testDirection": 180,
        "avgFps": 60,
        "minFps": 60,
        "maxFps": 61,
        "totalFrames": 40,
        "frameRates": 60
      },
      {
        "trial_number": 88,
        "trial_index": 556,
        "rt": 560,
        "correct": true,
        "response": "ArrowRight",
        "congruent": false,
        "gazeTowards": false,
        "gazeCondition": "away",
        "faceOnLeft": false,
        "impliedDirection": 180,
        "testDirection": 0,
        "avgFps": 60,
        "minFps": 60,
        "maxFps": 60,
        "totalFrames": 33,
        "frameRates": 60
      },
      {
        "trial_number": 89,
        "trial_index": 561,
        "rt": 642,
        "correct": true,
        "response": "ArrowLeft",
        "congruent": true,
        "gazeTowards": true,
        "gazeCondition": "towards",
        "faceOnLeft": false,
        "impliedDirection": 180,
        "testDirection": 180,
        "avgFps": 60,
        "minFps": 60,
        "maxFps": 61,
        "totalFrames": 38,
        "frameRates": 60
      },
      {
        "trial_number": 90,
        "trial_index": 566,
        "rt": 644,
        "correct": true,
        "response": "ArrowRight",
        "congruent": false,
        "gazeTowards": true,
        "gazeCondition": "towards",
        "faceOnLeft": false,
        "impliedDirection": 180,
        "testDirection": 0,
        "avgFps": 60,
        "minFps": 60,
        "maxFps": 61,
        "totalFrames": 39,
        "frameRates": 60
      },
      {
        "trial_number": 91,
        "trial_index": 572,
        "rt": 626,
        "correct": true,
        "response": "ArrowLeft",
        "congruent": true,
        "gazeTowards": true,
        "gazeCondition": "towards",
        "faceOnLeft": false,
        "impliedDirection": 180,
        "testDirection": 180,
        "avgFps": 60,
        "minFps": 60,
        "maxFps": 61,
        "totalFrames": 38,
        "frameRates": 60
      },
      {
        "trial_number": 92,
        "trial_index": 577,
        "rt": 734,
        "correct": true,
        "response": "ArrowLeft",
        "congruent": false,
        "gazeTowards": true,
        "gazeCondition": "towards",
        "faceOnLeft": true,
        "impliedDirection": 0,
        "testDirection": 180,
        "avgFps": 60,
        "minFps": 60,
        "maxFps": 61,
        "totalFrames": 44,
        "frameRates": 60
      },
      {
        "trial_number": 93,
        "trial_index": 582,
        "rt": 647,
        "correct": true,
        "response": "ArrowRight",
        "congruent": false,
        "gazeTowards": true,
        "gazeCondition": "towards",
        "faceOnLeft": false,
        "impliedDirection": 180,
        "testDirection": 0,
        "avgFps": 60,
        "minFps": 60,
        "maxFps": 61,
        "totalFrames": 39,
        "frameRates": 60
      },
      {
        "trial_number": 94,
        "trial_index": 587,
        "rt": 921,
        "correct": true,
        "response": "ArrowRight",
        "congruent": false,
        "gazeTowards": false,
        "gazeCondition": "away",
        "faceOnLeft": false,
        "impliedDirection": 180,
        "testDirection": 0,
        "avgFps": 60,
        "minFps": 59,
        "maxFps": 61,
        "totalFrames": 56,
        "frameRates": 60
      },
      {
        "trial_number": 95,
        "trial_index": 592,
        "rt": 679,
        "correct": true,
        "response": "ArrowRight",
        "congruent": false,
        "gazeTowards": true,
        "gazeCondition": "towards",
        "faceOnLeft": false,
        "impliedDirection": 180,
        "testDirection": 0,
        "avgFps": 60,
        "minFps": 60,
        "maxFps": 60,
        "totalFrames": 40,
        "frameRates": 60
      },
      {
        "trial_number": 96,
        "trial_index": 597,
        "rt": 673,
        "correct": true,
        "response": "ArrowLeft",
        "congruent": true,
        "gazeTowards": false,
        "gazeCondition": "away",
        "faceOnLeft": false,
        "impliedDirection": 180,
        "testDirection": 180,
        "avgFps": 60,
        "minFps": 60,
        "maxFps": 61,
        "totalFrames": 41,
        "frameRates": 60
      },
      {
        "trial_number": 97,
        "trial_index": 602,
        "rt": 886,
        "correct": true,
        "response": "ArrowLeft",
        "congruent": true,
        "gazeTowards": true,
        "gazeCondition": "towards",
        "faceOnLeft": false,
        "impliedDirection": 180,
        "testDirection": 180,
        "avgFps": 60,
        "minFps": 60,
        "maxFps": 60,
        "totalFrames": 53,
        "frameRates": 60
      },
      {
        "trial_number": 98,
        "trial_index": 607,
        "rt": 669,
        "correct": true,
        "response": "ArrowRight",
        "congruent": true,
        "gazeTowards": true,
        "gazeCondition": "towards",
        "faceOnLeft": true,
        "impliedDirection": 0,
        "testDirection": 0,
        "avgFps": 60,
        "minFps": 60,
        "maxFps": 61,
        "totalFrames": 40,
        "frameRates": 60
      },
      {
        "trial_number": 99,
        "trial_index": 612,
        "rt": 750,
        "correct": true,
        "response": "ArrowRight",
        "congruent": false,
        "gazeTowards": false,
        "gazeCondition": "away",
        "faceOnLeft": false,
        "impliedDirection": 180,
        "testDirection": 0,
        "avgFps": 60,
        "minFps": 60,
        "maxFps": 61,
        "totalFrames": 45,
        "frameRates": 60
      },
      {
        "trial_number": 100,
        "trial_index": 617,
        "rt": 652,
        "correct": true,
        "response": "ArrowLeft",
        "congruent": true,
        "gazeTowards": false,
        "gazeCondition": "away",
        "faceOnLeft": false,
        "impliedDirection": 180,
        "testDirection": 180,
        "avgFps": 60,
        "minFps": 60,
        "maxFps": 60,
        "totalFrames": 39,
        "frameRates": 60
      },
      {
        "trial_number": 101,
        "trial_index": 622,
        "rt": 716,
        "correct": true,
        "response": "ArrowLeft",
        "congruent": false,
        "gazeTowards": true,
        "gazeCondition": "towards",
        "faceOnLeft": true,
        "impliedDirection": 0,
        "testDirection": 180,
        "avgFps": 60,
        "minFps": 60,
        "maxFps": 61,
        "totalFrames": 43,
        "frameRates": 60
      },
      {
        "trial_number": 102,
        "trial_index": 627,
        "rt": 525,
        "correct": true,
        "response": "ArrowRight",
        "congruent": true,
        "gazeTowards": false,
        "gazeCondition": "away",
        "faceOnLeft": true,
        "impliedDirection": 0,
        "testDirection": 0,
        "avgFps": 60,
        "minFps": 60,
        "maxFps": 60,
        "totalFrames": 32,
        "frameRates": 60
      },
      {
        "trial_number": 103,
        "trial_index": 632,
        "rt": 754,
        "correct": true,
        "response": "ArrowRight",
        "congruent": false,
        "gazeTowards": false,
        "gazeCondition": "away",
        "faceOnLeft": false,
        "impliedDirection": 180,
        "testDirection": 0,
        "avgFps": 60,
        "minFps": 60,
        "maxFps": 61,
        "totalFrames": 45,
        "frameRates": 60
      },
      {
        "trial_number": 104,
        "trial_index": 637,
        "rt": 826,
        "correct": true,
        "response": "ArrowRight",
        "congruent": true,
        "gazeTowards": true,
        "gazeCondition": "towards",
        "faceOnLeft": true,
        "impliedDirection": 0,
        "testDirection": 0,
        "avgFps": 60,
        "minFps": 59,
        "maxFps": 61,
        "totalFrames": 49,
        "frameRates": 60
      },
      {
        "trial_number": 105,
        "trial_index": 642,
        "rt": 654,
        "correct": true,
        "response": "ArrowRight",
        "congruent": true,
        "gazeTowards": false,
        "gazeCondition": "away",
        "faceOnLeft": true,
        "impliedDirection": 0,
        "testDirection": 0,
        "avgFps": 60,
        "minFps": 60,
        "maxFps": 60,
        "totalFrames": 39,
        "frameRates": 60
      },
      {
        "trial_number": 106,
        "trial_index": 650,
        "rt": 730,
        "correct": true,
        "response": "ArrowRight",
        "congruent": true,
        "gazeTowards": true,
        "gazeCondition": "towards",
        "faceOnLeft": true,
        "impliedDirection": 0,
        "testDirection": 0,
        "avgFps": 60,
        "minFps": 60,
        "maxFps": 60,
        "totalFrames": 43,
        "frameRates": 60
      },
      {
        "trial_number": 107,
        "trial_index": 655,
        "rt": 555,
        "correct": true,
        "response": "ArrowLeft",
        "congruent": false,
        "gazeTowards": false,
        "gazeCondition": "away",
        "faceOnLeft": true,
        "impliedDirection": 0,
        "testDirection": 180,
        "avgFps": 60,
        "minFps": 60,
        "maxFps": 61,
        "totalFrames": 33,
        "frameRates": 60
      },
      {
        "trial_number": 108,
        "trial_index": 660,
        "rt": 658,
        "correct": true,
        "response": "ArrowRight",
        "congruent": false,
        "gazeTowards": true,
        "gazeCondition": "towards",
        "faceOnLeft": false,
        "impliedDirection": 180,
        "testDirection": 0,
        "avgFps": 60,
        "minFps": 60,
        "maxFps": 61,
        "totalFrames": 40,
        "frameRates": 60
      },
      {
        "trial_number": 109,
        "trial_index": 665,
        "rt": 632,
        "correct": true,
        "response": "ArrowRight",
        "congruent": true,
        "gazeTowards": false,
        "gazeCondition": "away",
        "faceOnLeft": true,
        "impliedDirection": 0,
        "testDirection": 0,
        "avgFps": 60,
        "minFps": 59,
        "maxFps": 61,
        "totalFrames": 38,
        "frameRates": 60
      },
      {
        "trial_number": 110,
        "trial_index": 670,
        "rt": 1266,
        "correct": true,
        "response": "ArrowRight",
        "congruent": false,
        "gazeTowards": false,
        "gazeCondition": "away",
        "faceOnLeft": false,
        "impliedDirection": 180,
        "testDirection": 0,
        "avgFps": 60,
        "minFps": 60,
        "maxFps": 61,
        "totalFrames": 76,
        "frameRates": 60
      },
      {
        "trial_number": 111,
        "trial_index": 675,
        "rt": 775,
        "correct": true,
        "response": "ArrowLeft",
        "congruent": false,
        "gazeTowards": true,
        "gazeCondition": "towards",
        "faceOnLeft": true,
        "impliedDirection": 0,
        "testDirection": 180,
        "avgFps": 60,
        "minFps": 60,
        "maxFps": 61,
        "totalFrames": 47,
        "frameRates": 60
      },
      {
        "trial_number": 112,
        "trial_index": 680,
        "rt": 888,
        "correct": false,
        "response": "ArrowLeft",
        "congruent": false,
        "gazeTowards": false,
        "gazeCondition": "away",
        "faceOnLeft": false,
        "impliedDirection": 180,
        "testDirection": 0,
        "avgFps": 59,
        "minFps": 30,
        "maxFps": 60,
        "totalFrames": 53,
        "frameRates": 59
      },
      {
        "trial_number": 113,
        "trial_index": 685,
        "rt": 770,
        "correct": true,
        "response": "ArrowRight",
        "congruent": true,
        "gazeTowards": false,
        "gazeCondition": "away",
        "faceOnLeft": true,
        "impliedDirection": 0,
        "testDirection": 0,
        "avgFps": 60,
        "minFps": 60,
        "maxFps": 62,
        "totalFrames": 46,
        "frameRates": 60
      },
      {
        "trial_number": 114,
        "trial_index": 693,
        "rt": 844,
        "correct": false,
        "response": "ArrowLeft",
        "congruent": true,
        "gazeTowards": false,
        "gazeCondition": "away",
        "faceOnLeft": true,
        "impliedDirection": 0,
        "testDirection": 0,
        "avgFps": 61,
        "minFps": 60,
        "maxFps": 10638,
        "totalFrames": 51,
        "frameRates": 61
      },
      {
        "trial_number": 115,
        "trial_index": 698,
        "rt": 639,
        "correct": true,
        "response": "ArrowLeft",
        "congruent": true,
        "gazeTowards": true,
        "gazeCondition": "towards",
        "faceOnLeft": false,
        "impliedDirection": 180,
        "testDirection": 180,
        "avgFps": 60,
        "minFps": 60,
        "maxFps": 61,
        "totalFrames": 39,
        "frameRates": 60
      },
      {
        "trial_number": 116,
        "trial_index": 706,
        "rt": 543,
        "correct": true,
        "response": "ArrowRight",
        "congruent": true,
        "gazeTowards": false,
        "gazeCondition": "away",
        "faceOnLeft": true,
        "impliedDirection": 0,
        "testDirection": 0,
        "avgFps": 60,
        "minFps": 60,
        "maxFps": 61,
        "totalFrames": 32,
        "frameRates": 60
      },
      {
        "trial_number": 117,
        "trial_index": 714,
        "rt": 628,
        "correct": true,
        "response": "ArrowLeft",
        "congruent": false,
        "gazeTowards": true,
        "gazeCondition": "towards",
        "faceOnLeft": true,
        "impliedDirection": 0,
        "testDirection": 180,
        "avgFps": 60,
        "minFps": 59,
        "maxFps": 61,
        "totalFrames": 38,
        "frameRates": 60
      },
      {
        "trial_number": 118,
        "trial_index": 719,
        "rt": 1393,
        "correct": true,
        "response": "ArrowLeft",
        "congruent": false,
        "gazeTowards": false,
        "gazeCondition": "away",
        "faceOnLeft": true,
        "impliedDirection": 0,
        "testDirection": 180,
        "avgFps": 60,
        "minFps": 59,
        "maxFps": 61,
        "totalFrames": 84,
        "frameRates": 60
      },
      {
        "trial_number": 119,
        "trial_index": 724,
        "rt": 731,
        "correct": true,
        "response": "ArrowLeft",
        "congruent": false,
        "gazeTowards": false,
        "gazeCondition": "away",
        "faceOnLeft": true,
        "impliedDirection": 0,
        "testDirection": 180,
        "avgFps": 60,
        "minFps": 60,
        "maxFps": 61,
        "totalFrames": 44,
        "frameRates": 60
      }
    ],
    "catch": {
      "total": 12,
      "correct": 12,
      "accuracy": 100,
      "meanRT": 723,
      "trials": [
        {
          "trial_number": 0,
          "trial_index": 89,
          "rt": 1980,
          "correct": true,
          "colorTarget": "face",
          "gazeTowards": true,
          "gazeCondition": "towards",
          "faceOnLeft": false
        },
        {
          "trial_number": 1,
          "trial_index": 162,
          "rt": 413,
          "correct": true,
          "colorTarget": "face",
          "gazeTowards": true,
          "gazeCondition": "towards",
          "faceOnLeft": false
        },
        {
          "trial_number": 2,
          "trial_index": 215,
          "rt": 762,
          "correct": true,
          "colorTarget": "tree",
          "gazeTowards": true,
          "gazeCondition": "towards",
          "faceOnLeft": true
        },
        {
          "trial_number": 3,
          "trial_index": 284,
          "rt": 659,
          "correct": true,
          "colorTarget": "tree",
          "gazeTowards": false,
          "gazeCondition": "away",
          "faceOnLeft": false
        },
        {
          "trial_number": 4,
          "trial_index": 377,
          "rt": 692,
          "correct": true,
          "colorTarget": "tree",
          "gazeTowards": true,
          "gazeCondition": "towards",
          "faceOnLeft": true
        },
        {
          "trial_number": 5,
          "trial_index": 405,
          "rt": 625,
          "correct": true,
          "colorTarget": "tree",
          "gazeTowards": false,
          "gazeCondition": "away",
          "faceOnLeft": true
        },
        {
          "trial_number": 6,
          "trial_index": 469,
          "rt": 699,
          "correct": true,
          "colorTarget": "tree",
          "gazeTowards": false,
          "gazeCondition": "away",
          "faceOnLeft": false
        },
        {
          "trial_number": 7,
          "trial_index": 542,
          "rt": 674,
          "correct": true,
          "colorTarget": "face",
          "gazeTowards": true,
          "gazeCondition": "towards",
          "faceOnLeft": true
        },
        {
          "trial_number": 8,
          "trial_index": 646,
          "rt": 466,
          "correct": true,
          "colorTarget": "face",
          "gazeTowards": true,
          "gazeCondition": "towards",
          "faceOnLeft": true
        },
        {
          "trial_number": 9,
          "trial_index": 689,
          "rt": 569,
          "correct": true,
          "colorTarget": "face",
          "gazeTowards": false,
          "gazeCondition": "away",
          "faceOnLeft": false
        },
        {
          "trial_number": 10,
          "trial_index": 702,
          "rt": 466,
          "correct": true,
          "colorTarget": "tree",
          "gazeTowards": true,
          "gazeCondition": "towards",
          "faceOnLeft": false
        },
        {
          "trial_number": 11,
          "trial_index": 710,
          "rt": 669,
          "correct": true,
          "colorTarget": "face",
          "gazeTowards": false,
          "gazeCondition": "away",
          "faceOnLeft": true
        }
      ]
    },
    "practice": {
      "trials": [
        {
          "trial_number": 0,
          "rt": 1704,
          "correct": false,
          "direction": 180
        },
        {
          "trial_number": 1,
          "rt": null,
          "correct": false,
          "direction": 0
        },
        {
          "trial_number": 2,
          "rt": 1349,
          "correct": false,
          "direction": 0
        },
        {
          "trial_number": 3,
          "rt": 1384,
          "correct": true,
          "direction": 0
        },
        {
          "trial_number": 4,
          "rt": 1564,
          "correct": true,
          "direction": 0
        },
        {
          "trial_number": 5,
          "rt": 1449,
          "correct": true,
          "direction": 0
        },
        {
          "trial_number": 6,
          "rt": 732,
          "correct": true,
          "direction": 180
        },
        {
          "trial_number": 7,
          "rt": 647,
          "correct": false,
          "direction": 180
        },
        {
          "trial_number": 8,
          "rt": 675,
          "correct": false,
          "direction": 0
        },
        {
          "trial_number": 9,
          "rt": 889,
          "correct": false,
          "direction": 180
        },
        {
          "trial_number": 10,
          "rt": 951,
          "correct": false,
          "direction": 180
        },
        {
          "trial_number": 11,
          "rt": 1091,
          "correct": true,
          "direction": 0
        },
        {
          "trial_number": 12,
          "rt": 1759,
          "correct": false,
          "direction": 0
        },
        {
          "trial_number": 13,
          "rt": 1424,
          "correct": true,
          "direction": 0
        },
        {
          "trial_number": 14,
          "rt": 1443,
          "correct": true,
          "direction": 0
        },
        {
          "trial_number": 15,
          "rt": 1795,
          "correct": true,
          "direction": 0
        },
        {
          "trial_number": 16,
          "rt": 1135,
          "correct": true,
          "direction": 180
        },
        {
          "trial_number": 17,
          "rt": 1604,
          "correct": true,
          "direction": 180
        },
        {
          "trial_number": 18,
          "rt": 1815,
          "correct": true,
          "direction": 0
        },
        {
          "trial_number": 19,
          "rt": 1224,
          "correct": true,
          "direction": 180
        }
      ],
      "meanRT": 1297,
      "accuracy": 60
    }
  }
}