{
  "experiment": "rdk-face-1",
  "UUID": "ba9878b5-7b93-4b15-a766-f1bbac36db0e",
  "data": {
    "session": {
      "experiment_version": "1.8.6",
      "treatment": "faces_towards_away_catch",
      "file_version": "1.8.6",
      "totalTrials": 120,
      "totalTrialsIncludingCatch": 132,
      "conditions": {
        "gazeTowardsCount": 60,
        "gazeAwayCount": 60,
        "gazeTowardsAccuracy": 75,
        "gazeAwayAccuracy": 57
      },
      "session_group": "default",
      "browserData": {
        "os": "Windows",
        "browser": "Chrome",
        "screenResolution": "1920x1080",
        "browserViewport": "1920x1080",
        "devicePixelRatio": 1,
        "colorDepth": 24,
        "hardwareConcurrency": 4,
        "deviceMemory": 8,
        "gpuRenderer": "ANGLE (Intel, Intel(R) UHD Graphics Direct3D11 vs_5_0 ps_5_0, D3D11-26.20.100.7642)",
        "measuredRefreshRateHz": 46
      },
      "attention": {
        "visibilityEvents": [
          {
            "event": "visibilitychange",
            "state": "visible",
            "timestamp": 1772771677202
          },
          {
            "event": "focus",
            "state": "focused",
            "timestamp": 1772771677218
          },
          {
            "event": "blur",
            "state": "blurred",
            "timestamp": 1772771678996
          },
          {
            "event": "visibilitychange",
            "state": "hidden",
            "timestamp": 1772771679009
          },
          {
            "event": "visibilitychange",
            "state": "visible",
            "timestamp": 1772771681823
          },
          {
            "event": "focus",
            "state": "focused",
            "timestamp": 1772771681837
          }
        ]
      },
      "calibration": {
        "monitorWidthCm": 38,
        "viewingDistanceCm": 54,
        "pixelsPerDegree": 50
      },
      "parameters": {
        "coherence": 0.4,
        "apertureDeg": 5,
        "densityDotsPerDeg2": 40,
        "dotDiameterDeg": 0.035,
        "dotSpeedDegPerSec": 3,
        "lifetimeMs": 200,
        "fixationDurationMs": 1500,
        "faceDurationMs": 1500,
        "testDurationMs": 2000,
        "catchResponseMs": 3000
      },
      "prolific": {
        "prolificPid": "67bd6c87f503d16fdf672aad",
        "studyId": "",
        "sessionId": ""
      },
      "timing": {
        "startTime": "2026-03-06T04:34:28.200Z",
        "endTime": "2026-03-06T04:49:58.644Z",
        "totalElapsedTimeMs": 930444
      }
    },
    "trials": [
      {
        "trial_number": 0,
        "trial_index": 49,
        "rt": 1171,
        "correct": true,
        "response": "ArrowRight",
        "congruent": false,
        "gazeTowards": true,
        "gazeCondition": "towards",
        "faceOnLeft": false,
        "impliedDirection": 180,
        "testDirection": 0,
        "avgFps": 30,
        "minFps": 30,
        "maxFps": 30,
        "totalFrames": 35,
        "frameRates": 30
      },
      {
        "trial_number": 1,
        "trial_index": 54,
        "rt": 1254,
        "correct": true,
        "response": "ArrowLeft",
        "congruent": true,
        "gazeTowards": false,
        "gazeCondition": "away",
        "faceOnLeft": false,
        "impliedDirection": 180,
        "testDirection": 180,
        "avgFps": 30,
        "minFps": 30,
        "maxFps": 30,
        "totalFrames": 38,
        "frameRates": 30
      },
      {
        "trial_number": 2,
        "trial_index": 59,
        "rt": 1447,
        "correct": false,
        "response": "ArrowLeft",
        "congruent": false,
        "gazeTowards": false,
        "gazeCondition": "away",
        "faceOnLeft": false,
        "impliedDirection": 180,
        "testDirection": 0,
        "avgFps": 30,
        "minFps": 30,
        "maxFps": 30,
        "totalFrames": 43,
        "frameRates": 30
      },
      {
        "trial_number": 3,
        "trial_index": 64,
        "rt": 1074,
        "correct": true,
        "response": "ArrowLeft",
        "congruent": true,
        "gazeTowards": true,
        "gazeCondition": "towards",
        "faceOnLeft": false,
        "impliedDirection": 180,
        "testDirection": 180,
        "avgFps": 30,
        "minFps": 30,
        "maxFps": 30,
        "totalFrames": 32,
        "frameRates": 30
      },
      {
        "trial_number": 4,
        "trial_index": 69,
        "rt": 1158,
        "correct": true,
        "response": "ArrowRight",
        "congruent": true,
        "gazeTowards": false,
        "gazeCondition": "away",
        "faceOnLeft": true,
        "impliedDirection": 0,
        "testDirection": 0,
        "avgFps": 30,
        "minFps": 30,
        "maxFps": 30,
        "totalFrames": 34,
        "frameRates": 30
      },
      {
        "trial_number": 5,
        "trial_index": 77,
        "rt": 1665,
        "correct": true,
        "response": "ArrowLeft",
        "congruent": true,
        "gazeTowards": true,
        "gazeCondition": "towards",
        "faceOnLeft": false,
        "impliedDirection": 180,
        "testDirection": 180,
        "avgFps": 30,
        "minFps": 30,
        "maxFps": 30,
        "totalFrames": 50,
        "frameRates": 30
      },
      {
        "trial_number": 6,
        "trial_index": 82,
        "rt": 1121,
        "correct": true,
        "response": "ArrowLeft",
        "congruent": true,
        "gazeTowards": false,
        "gazeCondition": "away",
        "faceOnLeft": false,
        "impliedDirection": 180,
        "testDirection": 180,
        "avgFps": 30,
        "minFps": 29,
        "maxFps": 31,
        "totalFrames": 33,
        "frameRates": 30
      },
      {
        "trial_number": 7,
        "trial_index": 87,
        "rt": 1102,
        "correct": true,
        "response": "ArrowRight",
        "congruent": true,
        "gazeTowards": false,
        "gazeCondition": "away",
        "faceOnLeft": true,
        "impliedDirection": 0,
        "testDirection": 0,
        "avgFps": 30,
        "minFps": 30,
        "maxFps": 30,
        "totalFrames": 33,
        "frameRates": 30
      },
      {
        "trial_number": 8,
        "trial_index": 92,
        "rt": 1516,
        "correct": true,
        "response": "ArrowRight",
        "congruent": false,
        "gazeTowards": false,
        "gazeCondition": "away",
        "faceOnLeft": false,
        "impliedDirection": 180,
        "testDirection": 0,
        "avgFps": 30,
        "minFps": 30,
        "maxFps": 30,
        "totalFrames": 45,
        "frameRates": 30
      },
      {
        "trial_number": 9,
        "trial_index": 97,
        "rt": 1216,
        "correct": true,
        "response": "ArrowLeft",
        "congruent": false,
        "gazeTowards": true,
        "gazeCondition": "towards",
        "faceOnLeft": true,
        "impliedDirection": 0,
        "testDirection": 180,
        "avgFps": 30,
        "minFps": 30,
        "maxFps": 30,
        "totalFrames": 36,
        "frameRates": 30
      },
      {
        "trial_number": 10,
        "trial_index": 102,
        "rt": 1191,
        "correct": false,
        "response": "ArrowRight",
        "congruent": false,
        "gazeTowards": true,
        "gazeCondition": "towards",
        "faceOnLeft": true,
        "impliedDirection": 0,
        "testDirection": 180,
        "avgFps": 30,
        "minFps": 30,
        "maxFps": 30,
        "totalFrames": 35,
        "frameRates": 30
      },
      {
        "trial_number": 11,
        "trial_index": 107,
        "rt": 1068,
        "correct": true,
        "response": "ArrowRight",
        "congruent": true,
        "gazeTowards": false,
        "gazeCondition": "away",
        "faceOnLeft": true,
        "impliedDirection": 0,
        "testDirection": 0,
        "avgFps": 30,
        "minFps": 30,
        "maxFps": 60,
        "totalFrames": 32,
        "frameRates": 30
      },
      {
        "trial_number": 12,
        "trial_index": 112,
        "rt": 1454,
        "correct": false,
        "response": "ArrowLeft",
        "congruent": true,
        "gazeTowards": true,
        "gazeCondition": "towards",
        "faceOnLeft": true,
        "impliedDirection": 0,
        "testDirection": 0,
        "avgFps": 30,
        "minFps": 30,
        "maxFps": 30,
        "totalFrames": 44,
        "frameRates": 30
      },
      {
        "trial_number": 13,
        "trial_index": 117,
        "rt": 1450,
        "correct": true,
        "response": "ArrowLeft",
        "congruent": true,
        "gazeTowards": true,
        "gazeCondition": "towards",
        "faceOnLeft": false,
        "impliedDirection": 180,
        "testDirection": 180,
        "avgFps": 30,
        "minFps": 30,
        "maxFps": 30,
        "totalFrames": 43,
        "frameRates": 30
      },
      {
        "trial_number": 14,
        "trial_index": 122,
        "rt": 1170,
        "correct": true,
        "response": "ArrowRight",
        "congruent": false,
        "gazeTowards": true,
        "gazeCondition": "towards",
        "faceOnLeft": false,
        "impliedDirection": 180,
        "testDirection": 0,
        "avgFps": 30,
        "minFps": 30,
        "maxFps": 55,
        "totalFrames": 35,
        "frameRates": 30
      },
      {
        "trial_number": 15,
        "trial_index": 127,
        "rt": 1486,
        "correct": false,
        "response": "ArrowLeft",
        "congruent": false,
        "gazeTowards": false,
        "gazeCondition": "away",
        "faceOnLeft": false,
        "impliedDirection": 180,
        "testDirection": 0,
        "avgFps": 30,
        "minFps": 30,
        "maxFps": 30,
        "totalFrames": 44,
        "frameRates": 30
      },
      {
        "trial_number": 16,
        "trial_index": 132,
        "rt": 1050,
        "correct": true,
        "response": "ArrowLeft",
        "congruent": true,
        "gazeTowards": true,
        "gazeCondition": "towards",
        "faceOnLeft": false,
        "impliedDirection": 180,
        "testDirection": 180,
        "avgFps": 30,
        "minFps": 30,
        "maxFps": 59,
        "totalFrames": 31,
        "frameRates": 30
      },
      {
        "trial_number": 17,
        "trial_index": 137,
        "rt": 1293,
        "correct": true,
        "response": "ArrowRight",
        "congruent": true,
        "gazeTowards": false,
        "gazeCondition": "away",
        "faceOnLeft": true,
        "impliedDirection": 0,
        "testDirection": 0,
        "avgFps": 30,
        "minFps": 30,
        "maxFps": 30,
        "totalFrames": 38,
        "frameRates": 30
      },
      {
        "trial_number": 18,
        "trial_index": 142,
        "rt": 1426,
        "correct": false,
        "response": "ArrowLeft",
        "congruent": true,
        "gazeTowards": true,
        "gazeCondition": "towards",
        "faceOnLeft": true,
        "impliedDirection": 0,
        "testDirection": 0,
        "avgFps": 30,
        "minFps": 30,
        "maxFps": 30,
        "totalFrames": 42,
        "frameRates": 30
      },
      {
        "trial_number": 19,
        "trial_index": 147,
        "rt": 1244,
        "correct": true,
        "response": "ArrowLeft",
        "congruent": false,
        "gazeTowards": false,
        "gazeCondition": "away",
        "faceOnLeft": true,
        "impliedDirection": 0,
        "testDirection": 180,
        "avgFps": 30,
        "minFps": 30,
        "maxFps": 30,
        "totalFrames": 37,
        "frameRates": 30
      },
      {
        "trial_number": 20,
        "trial_index": 152,
        "rt": 1219,
        "correct": true,
        "response": "ArrowRight",
        "congruent": true,
        "gazeTowards": false,
        "gazeCondition": "away",
        "faceOnLeft": true,
        "impliedDirection": 0,
        "testDirection": 0,
        "avgFps": 30,
        "minFps": 30,
        "maxFps": 30,
        "totalFrames": 36,
        "frameRates": 30
      },
      {
        "trial_number": 21,
        "trial_index": 157,
        "rt": 1125,
        "correct": false,
        "response": "ArrowLeft",
        "congruent": true,
        "gazeTowards": false,
        "gazeCondition": "away",
        "faceOnLeft": true,
        "impliedDirection": 0,
        "testDirection": 0,
        "avgFps": 30,
        "minFps": 30,
        "maxFps": 30,
        "totalFrames": 34,
        "frameRates": 30
      },
      {
        "trial_number": 22,
        "trial_index": 162,
        "rt": 1047,
        "correct": true,
        "response": "ArrowLeft",
        "congruent": false,
        "gazeTowards": true,
        "gazeCondition": "towards",
        "faceOnLeft": true,
        "impliedDirection": 0,
        "testDirection": 180,
        "avgFps": 30,
        "minFps": 30,
        "maxFps": 30,
        "totalFrames": 31,
        "frameRates": 30
      },
      {
        "trial_number": 23,
        "trial_index": 167,
        "rt": 1090,
        "correct": false,
        "response": "ArrowLeft",
        "congruent": false,
        "gazeTowards": false,
        "gazeCondition": "away",
        "faceOnLeft": false,
        "impliedDirection": 180,
        "testDirection": 0,
        "avgFps": 30,
        "minFps": 30,
        "maxFps": 30,
        "totalFrames": 32,
        "frameRates": 30
      },
      {
        "trial_number": 24,
        "trial_index": 172,
        "rt": 876,
        "correct": false,
        "response": "ArrowRight",
        "congruent": true,
        "gazeTowards": false,
        "gazeCondition": "away",
        "faceOnLeft": false,
        "impliedDirection": 180,
        "testDirection": 180,
        "avgFps": 30,
        "minFps": 30,
        "maxFps": 30,
        "totalFrames": 26,
        "frameRates": 30
      },
      {
        "trial_number": 25,
        "trial_index": 177,
        "rt": 1438,
        "correct": true,
        "response": "ArrowLeft",
        "congruent": true,
        "gazeTowards": true,
        "gazeCondition": "towards",
        "faceOnLeft": false,
        "impliedDirection": 180,
        "testDirection": 180,
        "avgFps": 30,
        "minFps": 30,
        "maxFps": 30,
        "totalFrames": 43,
        "frameRates": 30
      },
      {
        "trial_number": 26,
        "trial_index": 185,
        "rt": 1580,
        "correct": true,
        "response": "ArrowRight",
        "congruent": true,
        "gazeTowards": true,
        "gazeCondition": "towards",
        "faceOnLeft": true,
        "impliedDirection": 0,
        "testDirection": 0,
        "avgFps": 30,
        "minFps": 30,
        "maxFps": 30,
        "totalFrames": 47,
        "frameRates": 30
      },
      {
        "trial_number": 27,
        "trial_index": 190,
        "rt": 1062,
        "correct": true,
        "response": "ArrowLeft",
        "congruent": false,
        "gazeTowards": true,
        "gazeCondition": "towards",
        "faceOnLeft": true,
        "impliedDirection": 0,
        "testDirection": 180,
        "avgFps": 30,
        "minFps": 30,
        "maxFps": 30,
        "totalFrames": 32,
        "frameRates": 30
      },
      {
        "trial_number": 28,
        "trial_index": 195,
        "rt": 1512,
        "correct": false,
        "response": "ArrowRight",
        "congruent": true,
        "gazeTowards": false,
        "gazeCondition": "away",
        "faceOnLeft": false,
        "impliedDirection": 180,
        "testDirection": 180,
        "avgFps": 30,
        "minFps": 30,
        "maxFps": 30,
        "totalFrames": 45,
        "frameRates": 30
      },
      {
        "trial_number": 29,
        "trial_index": 200,
        "rt": 976,
        "correct": false,
        "response": "ArrowLeft",
        "congruent": true,
        "gazeTowards": true,
        "gazeCondition": "towards",
        "faceOnLeft": true,
        "impliedDirection": 0,
        "testDirection": 0,
        "avgFps": 30,
        "minFps": 30,
        "maxFps": 30,
        "totalFrames": 29,
        "frameRates": 30
      },
      {
        "trial_number": 30,
        "trial_index": 205,
        "rt": 1601,
        "correct": false,
        "response": "ArrowRight",
        "congruent": false,
        "gazeTowards": false,
        "gazeCondition": "away",
        "faceOnLeft": true,
        "impliedDirection": 0,
        "testDirection": 180,
        "avgFps": 30,
        "minFps": 30,
        "maxFps": 30,
        "totalFrames": 48,
        "frameRates": 30
      },
      {
        "trial_number": 31,
        "trial_index": 211,
        "rt": 1145,
        "correct": true,
        "response": "ArrowRight",
        "congruent": true,
        "gazeTowards": true,
        "gazeCondition": "towards",
        "faceOnLeft": true,
        "impliedDirection": 0,
        "testDirection": 0,
        "avgFps": 30,
        "minFps": 30,
        "maxFps": 30,
        "totalFrames": 34,
        "frameRates": 30
      },
      {
        "trial_number": 32,
        "trial_index": 219,
        "rt": 1297,
        "correct": true,
        "response": "ArrowLeft",
        "congruent": true,
        "gazeTowards": false,
        "gazeCondition": "away",
        "faceOnLeft": false,
        "impliedDirection": 180,
        "testDirection": 180,
        "avgFps": 30,
        "minFps": 30,
        "maxFps": 30,
        "totalFrames": 39,
        "frameRates": 30
      },
      {
        "trial_number": 33,
        "trial_index": 224,
        "rt": 1519,
        "correct": true,
        "response": "ArrowLeft",
        "congruent": false,
        "gazeTowards": false,
        "gazeCondition": "away",
        "faceOnLeft": true,
        "impliedDirection": 0,
        "testDirection": 180,
        "avgFps": 30,
        "minFps": 30,
        "maxFps": 30,
        "totalFrames": 45,
        "frameRates": 30
      },
      {
        "trial_number": 34,
        "trial_index": 229,
        "rt": 1852,
        "correct": false,
        "response": "ArrowRight",
        "congruent": true,
        "gazeTowards": false,
        "gazeCondition": "away",
        "faceOnLeft": false,
        "impliedDirection": 180,
        "testDirection": 180,
        "avgFps": 30,
        "minFps": 30,
        "maxFps": 30,
        "totalFrames": 55,
        "frameRates": 30
      },
      {
        "trial_number": 35,
        "trial_index": 234,
        "rt": 1923,
        "correct": false,
        "response": "ArrowLeft",
        "congruent": false,
        "gazeTowards": false,
        "gazeCondition": "away",
        "faceOnLeft": false,
        "impliedDirection": 180,
        "testDirection": 0,
        "avgFps": 30,
        "minFps": 30,
        "maxFps": 31,
        "totalFrames": 57,
        "frameRates": 30
      },
      {
        "trial_number": 36,
        "trial_index": 239,
        "rt": 1248,
        "correct": true,
        "response": "ArrowRight",
        "congruent": true,
        "gazeTowards": true,
        "gazeCondition": "towards",
        "faceOnLeft": true,
        "impliedDirection": 0,
        "testDirection": 0,
        "avgFps": 30,
        "minFps": 30,
        "maxFps": 30,
        "totalFrames": 37,
        "frameRates": 30
      },
      {
        "trial_number": 37,
        "trial_index": 244,
        "rt": 1567,
        "correct": false,
        "response": "ArrowLeft",
        "congruent": false,
        "gazeTowards": false,
        "gazeCondition": "away",
        "faceOnLeft": false,
        "impliedDirection": 180,
        "testDirection": 0,
        "avgFps": 30,
        "minFps": 30,
        "maxFps": 59,
        "totalFrames": 47,
        "frameRates": 30
      },
      {
        "trial_number": 38,
        "trial_index": 249,
        "rt": 1377,
        "correct": true,
        "response": "ArrowRight",
        "congruent": true,
        "gazeTowards": true,
        "gazeCondition": "towards",
        "faceOnLeft": true,
        "impliedDirection": 0,
        "testDirection": 0,
        "avgFps": 30,
        "minFps": 30,
        "maxFps": 30,
        "totalFrames": 41,
        "frameRates": 30
      },
      {
        "trial_number": 39,
        "trial_index": 254,
        "rt": 1533,
        "correct": true,
        "response": "ArrowRight",
        "congruent": true,
        "gazeTowards": false,
        "gazeCondition": "away",
        "faceOnLeft": true,
        "impliedDirection": 0,
        "testDirection": 0,
        "avgFps": 30,
        "minFps": 30,
        "maxFps": 30,
        "totalFrames": 46,
        "frameRates": 30
      },
      {
        "trial_number": 40,
        "trial_index": 265,
        "rt": 1735,
        "correct": false,
        "response": "ArrowLeft",
        "congruent": true,
        "gazeTowards": false,
        "gazeCondition": "away",
        "faceOnLeft": true,
        "impliedDirection": 0,
        "testDirection": 0,
        "avgFps": 30,
        "minFps": 30,
        "maxFps": 30,
        "totalFrames": 52,
        "frameRates": 30
      },
      {
        "trial_number": 41,
        "trial_index": 270,
        "rt": 1102,
        "correct": true,
        "response": "ArrowRight",
        "congruent": true,
        "gazeTowards": false,
        "gazeCondition": "away",
        "faceOnLeft": true,
        "impliedDirection": 0,
        "testDirection": 0,
        "avgFps": 30,
        "minFps": 30,
        "maxFps": 30,
        "totalFrames": 33,
        "frameRates": 30
      },
      {
        "trial_number": 42,
        "trial_index": 275,
        "rt": 1063,
        "correct": true,
        "response": "ArrowLeft",
        "congruent": false,
        "gazeTowards": false,
        "gazeCondition": "away",
        "faceOnLeft": true,
        "impliedDirection": 0,
        "testDirection": 180,
        "avgFps": 30,
        "minFps": 30,
        "maxFps": 30,
        "totalFrames": 32,
        "frameRates": 30
      },
      {
        "trial_number": 43,
        "trial_index": 280,
        "rt": 1512,
        "correct": true,
        "response": "ArrowLeft",
        "congruent": false,
        "gazeTowards": true,
        "gazeCondition": "towards",
        "faceOnLeft": true,
        "impliedDirection": 0,
        "testDirection": 180,
        "avgFps": 30,
        "minFps": 30,
        "maxFps": 30,
        "totalFrames": 45,
        "frameRates": 30
      },
      {
        "trial_number": 44,
        "trial_index": 285,
        "rt": 1456,
        "correct": true,
        "response": "ArrowRight",
        "congruent": true,
        "gazeTowards": false,
        "gazeCondition": "away",
        "faceOnLeft": true,
        "impliedDirection": 0,
        "testDirection": 0,
        "avgFps": 30,
        "minFps": 30,
        "maxFps": 30,
        "totalFrames": 44,
        "frameRates": 30
      },
      {
        "trial_number": 45,
        "trial_index": 290,
        "rt": 1776,
        "correct": true,
        "response": "ArrowLeft",
        "congruent": false,
        "gazeTowards": true,
        "gazeCondition": "towards",
        "faceOnLeft": true,
        "impliedDirection": 0,
        "testDirection": 180,
        "avgFps": 30,
        "minFps": 30,
        "maxFps": 30,
        "totalFrames": 53,
        "frameRates": 30
      },
      {
        "trial_number": 46,
        "trial_index": 295,
        "rt": 1299,
        "correct": true,
        "response": "ArrowLeft",
        "congruent": false,
        "gazeTowards": false,
        "gazeCondition": "away",
        "faceOnLeft": true,
        "impliedDirection": 0,
        "testDirection": 180,
        "avgFps": 30,
        "minFps": 30,
        "maxFps": 30,
        "totalFrames": 39,
        "frameRates": 30
      },
      {
        "trial_number": 47,
        "trial_index": 300,
        "rt": 1526,
        "correct": false,
        "response": "ArrowRight",
        "congruent": true,
        "gazeTowards": false,
        "gazeCondition": "away",
        "faceOnLeft": false,
        "impliedDirection": 180,
        "testDirection": 180,
        "avgFps": 30,
        "minFps": 30,
        "maxFps": 60,
        "totalFrames": 46,
        "frameRates": 30
      },
      {
        "trial_number": 48,
        "trial_index": 305,
        "rt": 1880,
        "correct": false,
        "response": "ArrowRight",
        "congruent": false,
        "gazeTowards": false,
        "gazeCondition": "away",
        "faceOnLeft": true,
        "impliedDirection": 0,
        "testDirection": 180,
        "avgFps": 30,
        "minFps": 30,
        "maxFps": 30,
        "totalFrames": 56,
        "frameRates": 30
      },
      {
        "trial_number": 49,
        "trial_index": 310,
        "rt": 1084,
        "correct": true,
        "response": "ArrowLeft",
        "congruent": false,
        "gazeTowards": true,
        "gazeCondition": "towards",
        "faceOnLeft": true,
        "impliedDirection": 0,
        "testDirection": 180,
        "avgFps": 30,
        "minFps": 30,
        "maxFps": 30,
        "totalFrames": 32,
        "frameRates": 30
      },
      {
        "trial_number": 50,
        "trial_index": 315,
        "rt": 1700,
        "correct": false,
        "response": "ArrowLeft",
        "congruent": true,
        "gazeTowards": true,
        "gazeCondition": "towards",
        "faceOnLeft": true,
        "impliedDirection": 0,
        "testDirection": 0,
        "avgFps": 30,
        "minFps": 30,
        "maxFps": 30,
        "totalFrames": 51,
        "frameRates": 30
      },
      {
        "trial_number": 51,
        "trial_index": 320,
        "rt": 1258,
        "correct": true,
        "response": "ArrowLeft",
        "congruent": false,
        "gazeTowards": true,
        "gazeCondition": "towards",
        "faceOnLeft": true,
        "impliedDirection": 0,
        "testDirection": 180,
        "avgFps": 30,
        "minFps": 30,
        "maxFps": 30,
        "totalFrames": 38,
        "frameRates": 30
      },
      {
        "trial_number": 52,
        "trial_index": 325,
        "rt": null,
        "correct": false,
        "response": null,
        "congruent": true,
        "gazeTowards": true,
        "gazeCondition": "towards",
        "faceOnLeft": true,
        "impliedDirection": 0,
        "testDirection": 0,
        "avgFps": 30,
        "minFps": 30,
        "maxFps": 30,
        "totalFrames": 60,
        "frameRates": 30
      },
      {
        "trial_number": 53,
        "trial_index": 330,
        "rt": 762,
        "correct": false,
        "response": "ArrowRight",
        "congruent": true,
        "gazeTowards": false,
        "gazeCondition": "away",
        "faceOnLeft": false,
        "impliedDirection": 180,
        "testDirection": 180,
        "avgFps": 30,
        "minFps": 30,
        "maxFps": 31,
        "totalFrames": 22,
        "frameRates": 30
      },
      {
        "trial_number": 54,
        "trial_index": 335,
        "rt": 1179,
        "correct": true,
        "response": "ArrowLeft",
        "congruent": true,
        "gazeTowards": true,
        "gazeCondition": "towards",
        "faceOnLeft": false,
        "impliedDirection": 180,
        "testDirection": 180,
        "avgFps": 30,
        "minFps": 30,
        "maxFps": 31,
        "totalFrames": 35,
        "frameRates": 30
      },
      {
        "trial_number": 55,
        "trial_index": 340,
        "rt": 889,
        "correct": true,
        "response": "ArrowRight",
        "congruent": false,
        "gazeTowards": true,
        "gazeCondition": "towards",
        "faceOnLeft": false,
        "impliedDirection": 180,
        "testDirection": 0,
        "avgFps": 30,
        "minFps": 30,
        "maxFps": 30,
        "totalFrames": 26,
        "frameRates": 30
      },
      {
        "trial_number": 56,
        "trial_index": 345,
        "rt": 836,
        "correct": false,
        "response": "ArrowLeft",
        "congruent": false,
        "gazeTowards": true,
        "gazeCondition": "towards",
        "faceOnLeft": false,
        "impliedDirection": 180,
        "testDirection": 0,
        "avgFps": 30,
        "minFps": 30,
        "maxFps": 30,
        "totalFrames": 25,
        "frameRates": 30
      },
      {
        "trial_number": 57,
        "trial_index": 350,
        "rt": 1016,
        "correct": true,
        "response": "ArrowRight",
        "congruent": false,
        "gazeTowards": true,
        "gazeCondition": "towards",
        "faceOnLeft": false,
        "impliedDirection": 180,
        "testDirection": 0,
        "avgFps": 30,
        "minFps": 30,
        "maxFps": 30,
        "totalFrames": 30,
        "frameRates": 30
      },
      {
        "trial_number": 58,
        "trial_index": 355,
        "rt": 981,
        "correct": true,
        "response": "ArrowLeft",
        "congruent": false,
        "gazeTowards": true,
        "gazeCondition": "towards",
        "faceOnLeft": true,
        "impliedDirection": 0,
        "testDirection": 180,
        "avgFps": 30,
        "minFps": 30,
        "maxFps": 30,
        "totalFrames": 29,
        "frameRates": 30
      },
      {
        "trial_number": 59,
        "trial_index": 360,
        "rt": 1037,
        "correct": true,
        "response": "ArrowRight",
        "congruent": true,
        "gazeTowards": false,
        "gazeCondition": "away",
        "faceOnLeft": true,
        "impliedDirection": 0,
        "testDirection": 0,
        "avgFps": 30,
        "minFps": 30,
        "maxFps": 30,
        "totalFrames": 31,
        "frameRates": 30
      },
      {
        "trial_number": 60,
        "trial_index": 365,
        "rt": 1267,
        "correct": true,
        "response": "ArrowLeft",
        "congruent": false,
        "gazeTowards": false,
        "gazeCondition": "away",
        "faceOnLeft": true,
        "impliedDirection": 0,
        "testDirection": 180,
        "avgFps": 30,
        "minFps": 30,
        "maxFps": 30,
        "totalFrames": 38,
        "frameRates": 30
      },
      {
        "trial_number": 61,
        "trial_index": 371,
        "rt": 1719,
        "correct": false,
        "response": "ArrowLeft",
        "congruent": true,
        "gazeTowards": false,
        "gazeCondition": "away",
        "faceOnLeft": true,
        "impliedDirection": 0,
        "testDirection": 0,
        "avgFps": 30,
        "minFps": 30,
        "maxFps": 59,
        "totalFrames": 52,
        "frameRates": 30
      },
      {
        "trial_number": 62,
        "trial_index": 376,
        "rt": 1002,
        "correct": true,
        "response": "ArrowLeft",
        "congruent": false,
        "gazeTowards": false,
        "gazeCondition": "away",
        "faceOnLeft": true,
        "impliedDirection": 0,
        "testDirection": 180,
        "avgFps": 30,
        "minFps": 30,
        "maxFps": 30,
        "totalFrames": 30,
        "frameRates": 30
      },
      {
        "trial_number": 63,
        "trial_index": 381,
        "rt": 1257,
        "correct": true,
        "response": "ArrowLeft",
        "congruent": false,
        "gazeTowards": false,
        "gazeCondition": "away",
        "faceOnLeft": true,
        "impliedDirection": 0,
        "testDirection": 180,
        "avgFps": 30,
        "minFps": 30,
        "maxFps": 59,
        "totalFrames": 38,
        "frameRates": 30
      },
      {
        "trial_number": 64,
        "trial_index": 386,
        "rt": 1509,
        "correct": true,
        "response": "ArrowLeft",
        "congruent": false,
        "gazeTowards": true,
        "gazeCondition": "towards",
        "faceOnLeft": true,
        "impliedDirection": 0,
        "testDirection": 180,
        "avgFps": 30,
        "minFps": 30,
        "maxFps": 30,
        "totalFrames": 45,
        "frameRates": 30
      },
      {
        "trial_number": 65,
        "trial_index": 391,
        "rt": 995,
        "correct": true,
        "response": "ArrowRight",
        "congruent": true,
        "gazeTowards": true,
        "gazeCondition": "towards",
        "faceOnLeft": true,
        "impliedDirection": 0,
        "testDirection": 0,
        "avgFps": 30,
        "minFps": 30,
        "maxFps": 30,
        "totalFrames": 30,
        "frameRates": 30
      },
      {
        "trial_number": 66,
        "trial_index": 396,
        "rt": 839,
        "correct": true,
        "response": "ArrowLeft",
        "congruent": true,
        "gazeTowards": false,
        "gazeCondition": "away",
        "faceOnLeft": false,
        "impliedDirection": 180,
        "testDirection": 180,
        "avgFps": 30,
        "minFps": 30,
        "maxFps": 30,
        "totalFrames": 25,
        "frameRates": 30
      },
      {
        "trial_number": 67,
        "trial_index": 401,
        "rt": 1167,
        "correct": true,
        "response": "ArrowRight",
        "congruent": false,
        "gazeTowards": false,
        "gazeCondition": "away",
        "faceOnLeft": false,
        "impliedDirection": 180,
        "testDirection": 0,
        "avgFps": 30,
        "minFps": 29,
        "maxFps": 31,
        "totalFrames": 35,
        "frameRates": 30
      },
      {
        "trial_number": 68,
        "trial_index": 406,
        "rt": 1063,
        "correct": true,
        "response": "ArrowLeft",
        "congruent": true,
        "gazeTowards": true,
        "gazeCondition": "towards",
        "faceOnLeft": false,
        "impliedDirection": 180,
        "testDirection": 180,
        "avgFps": 30,
        "minFps": 30,
        "maxFps": 31,
        "totalFrames": 31,
        "frameRates": 30
      },
      {
        "trial_number": 69,
        "trial_index": 411,
        "rt": 902,
        "correct": false,
        "response": "ArrowLeft",
        "congruent": true,
        "gazeTowards": false,
        "gazeCondition": "away",
        "faceOnLeft": true,
        "impliedDirection": 0,
        "testDirection": 0,
        "avgFps": 30,
        "minFps": 30,
        "maxFps": 30,
        "totalFrames": 27,
        "frameRates": 30
      },
      {
        "trial_number": 70,
        "trial_index": 419,
        "rt": 1344,
        "correct": true,
        "response": "ArrowRight",
        "congruent": true,
        "gazeTowards": false,
        "gazeCondition": "away",
        "faceOnLeft": true,
        "impliedDirection": 0,
        "testDirection": 0,
        "avgFps": 30,
        "minFps": 30,
        "maxFps": 30,
        "totalFrames": 40,
        "frameRates": 30
      },
      {
        "trial_number": 71,
        "trial_index": 424,
        "rt": 1046,
        "correct": false,
        "response": "ArrowLeft",
        "congruent": false,
        "gazeTowards": false,
        "gazeCondition": "away",
        "faceOnLeft": false,
        "impliedDirection": 180,
        "testDirection": 0,
        "avgFps": 30,
        "minFps": 30,
        "maxFps": 30,
        "totalFrames": 31,
        "frameRates": 30
      },
      {
        "trial_number": 72,
        "trial_index": 429,
        "rt": 1261,
        "correct": true,
        "response": "ArrowRight",
        "congruent": true,
        "gazeTowards": true,
        "gazeCondition": "towards",
        "faceOnLeft": true,
        "impliedDirection": 0,
        "testDirection": 0,
        "avgFps": 30,
        "minFps": 30,
        "maxFps": 30,
        "totalFrames": 38,
        "frameRates": 30
      },
      {
        "trial_number": 73,
        "trial_index": 434,
        "rt": 1453,
        "correct": false,
        "response": "ArrowLeft",
        "congruent": true,
        "gazeTowards": true,
        "gazeCondition": "towards",
        "faceOnLeft": true,
        "impliedDirection": 0,
        "testDirection": 0,
        "avgFps": 30,
        "minFps": 30,
        "maxFps": 30,
        "totalFrames": 43,
        "frameRates": 30
      },
      {
        "trial_number": 74,
        "trial_index": 439,
        "rt": 1160,
        "correct": true,
        "response": "ArrowLeft",
        "congruent": true,
        "gazeTowards": true,
        "gazeCondition": "towards",
        "faceOnLeft": false,
        "impliedDirection": 180,
        "testDirection": 180,
        "avgFps": 30,
        "minFps": 30,
        "maxFps": 60,
        "totalFrames": 35,
        "frameRates": 30
      },
      {
        "trial_number": 75,
        "trial_index": 444,
        "rt": 1385,
        "correct": true,
        "response": "ArrowLeft",
        "congruent": true,
        "gazeTowards": true,
        "gazeCondition": "towards",
        "faceOnLeft": false,
        "impliedDirection": 180,
        "testDirection": 180,
        "avgFps": 30,
        "minFps": 30,
        "maxFps": 30,
        "totalFrames": 41,
        "frameRates": 30
      },
      {
        "trial_number": 76,
        "trial_index": 449,
        "rt": 1271,
        "correct": false,
        "response": "ArrowRight",
        "congruent": false,
        "gazeTowards": true,
        "gazeCondition": "towards",
        "faceOnLeft": true,
        "impliedDirection": 0,
        "testDirection": 180,
        "avgFps": 30,
        "minFps": 30,
        "maxFps": 30,
        "totalFrames": 38,
        "frameRates": 30
      },
      {
        "trial_number": 77,
        "trial_index": 454,
        "rt": 1179,
        "correct": true,
        "response": "ArrowLeft",
        "congruent": false,
        "gazeTowards": false,
        "gazeCondition": "away",
        "faceOnLeft": true,
        "impliedDirection": 0,
        "testDirection": 180,
        "avgFps": 30,
        "minFps": 30,
        "maxFps": 30,
        "totalFrames": 35,
        "frameRates": 30
      },
      {
        "trial_number": 78,
        "trial_index": 459,
        "rt": 1740,
        "correct": true,
        "response": "ArrowRight",
        "congruent": true,
        "gazeTowards": true,
        "gazeCondition": "towards",
        "faceOnLeft": true,
        "impliedDirection": 0,
        "testDirection": 0,
        "avgFps": 30,
        "minFps": 29,
        "maxFps": 31,
        "totalFrames": 52,
        "frameRates": 30
      },
      {
        "trial_number": 79,
        "trial_index": 464,
        "rt": 1472,
        "correct": true,
        "response": "ArrowRight",
        "congruent": false,
        "gazeTowards": false,
        "gazeCondition": "away",
        "faceOnLeft": false,
        "impliedDirection": 180,
        "testDirection": 0,
        "avgFps": 30,
        "minFps": 30,
        "maxFps": 30,
        "totalFrames": 44,
        "frameRates": 30
      },
      {
        "trial_number": 80,
        "trial_index": 469,
        "rt": 1454,
        "correct": true,
        "response": "ArrowLeft",
        "congruent": false,
        "gazeTowards": true,
        "gazeCondition": "towards",
        "faceOnLeft": true,
        "impliedDirection": 0,
        "testDirection": 180,
        "avgFps": 30,
        "minFps": 30,
        "maxFps": 30,
        "totalFrames": 43,
        "frameRates": 30
      },
      {
        "trial_number": 81,
        "trial_index": 474,
        "rt": 1527,
        "correct": false,
        "response": "ArrowLeft",
        "congruent": true,
        "gazeTowards": false,
        "gazeCondition": "away",
        "faceOnLeft": true,
        "impliedDirection": 0,
        "testDirection": 0,
        "avgFps": 30,
        "minFps": 30,
        "maxFps": 30,
        "totalFrames": 45,
        "frameRates": 30
      },
      {
        "trial_number": 82,
        "trial_index": 479,
        "rt": 1183,
        "correct": false,
        "response": "ArrowRight",
        "congruent": true,
        "gazeTowards": false,
        "gazeCondition": "away",
        "faceOnLeft": false,
        "impliedDirection": 180,
        "testDirection": 180,
        "avgFps": 30,
        "minFps": 30,
        "maxFps": 30,
        "totalFrames": 35,
        "frameRates": 30
      },
      {
        "trial_number": 83,
        "trial_index": 484,
        "rt": null,
        "correct": false,
        "response": null,
        "congruent": false,
        "gazeTowards": true,
        "gazeCondition": "towards",
        "faceOnLeft": false,
        "impliedDirection": 180,
        "testDirection": 0,
        "avgFps": 30,
        "minFps": 30,
        "maxFps": 30,
        "totalFrames": 60,
        "frameRates": 30
      },
      {
        "trial_number": 84,
        "trial_index": 492,
        "rt": 1019,
        "correct": true,
        "response": "ArrowLeft",
        "congruent": false,
        "gazeTowards": false,
        "gazeCondition": "away",
        "faceOnLeft": true,
        "impliedDirection": 0,
        "testDirection": 180,
        "avgFps": 30,
        "minFps": 30,
        "maxFps": 57,
        "totalFrames": 31,
        "frameRates": 30
      },
      {
        "trial_number": 85,
        "trial_index": 497,
        "rt": 1274,
        "correct": true,
        "response": "ArrowRight",
        "congruent": false,
        "gazeTowards": true,
        "gazeCondition": "towards",
        "faceOnLeft": false,
        "impliedDirection": 180,
        "testDirection": 0,
        "avgFps": 30,
        "minFps": 30,
        "maxFps": 56,
        "totalFrames": 38,
        "frameRates": 30
      },
      {
        "trial_number": 86,
        "trial_index": 502,
        "rt": 999,
        "correct": true,
        "response": "ArrowLeft",
        "congruent": true,
        "gazeTowards": true,
        "gazeCondition": "towards",
        "faceOnLeft": false,
        "impliedDirection": 180,
        "testDirection": 180,
        "avgFps": 30,
        "minFps": 30,
        "maxFps": 30,
        "totalFrames": 30,
        "frameRates": 30
      },
      {
        "trial_number": 87,
        "trial_index": 507,
        "rt": 1004,
        "correct": true,
        "response": "ArrowLeft",
        "congruent": false,
        "gazeTowards": false,
        "gazeCondition": "away",
        "faceOnLeft": true,
        "impliedDirection": 0,
        "testDirection": 180,
        "avgFps": 30,
        "minFps": 30,
        "maxFps": 31,
        "totalFrames": 30,
        "frameRates": 30
      },
      {
        "trial_number": 88,
        "trial_index": 512,
        "rt": 1277,
        "correct": false,
        "response": "ArrowRight",
        "congruent": true,
        "gazeTowards": false,
        "gazeCondition": "away",
        "faceOnLeft": false,
        "impliedDirection": 180,
        "testDirection": 180,
        "avgFps": 30,
        "minFps": 30,
        "maxFps": 30,
        "totalFrames": 38,
        "frameRates": 30
      },
      {
        "trial_number": 89,
        "trial_index": 523,
        "rt": 1455,
        "correct": true,
        "response": "ArrowLeft",
        "congruent": true,
        "gazeTowards": true,
        "gazeCondition": "towards",
        "faceOnLeft": false,
        "impliedDirection": 180,
        "testDirection": 180,
        "avgFps": 30,
        "minFps": 30,
        "maxFps": 30,
        "totalFrames": 43,
        "frameRates": 30
      },
      {
        "trial_number": 90,
        "trial_index": 529,
        "rt": 831,
        "correct": true,
        "response": "ArrowLeft",
        "congruent": true,
        "gazeTowards": true,
        "gazeCondition": "towards",
        "faceOnLeft": false,
        "impliedDirection": 180,
        "testDirection": 180,
        "avgFps": 30,
        "minFps": 30,
        "maxFps": 30,
        "totalFrames": 25,
        "frameRates": 30
      },
      {
        "trial_number": 91,
        "trial_index": 534,
        "rt": 1409,
        "correct": false,
        "response": "ArrowRight",
        "congruent": true,
        "gazeTowards": false,
        "gazeCondition": "away",
        "faceOnLeft": false,
        "impliedDirection": 180,
        "testDirection": 180,
        "avgFps": 30,
        "minFps": 30,
        "maxFps": 30,
        "totalFrames": 42,
        "frameRates": 30
      },
      {
        "trial_number": 92,
        "trial_index": 542,
        "rt": 1066,
        "correct": true,
        "response": "ArrowLeft",
        "congruent": false,
        "gazeTowards": true,
        "gazeCondition": "towards",
        "faceOnLeft": true,
        "impliedDirection": 0,
        "testDirection": 180,
        "avgFps": 30,
        "minFps": 30,
        "maxFps": 30,
        "totalFrames": 32,
        "frameRates": 30
      },
      {
        "trial_number": 93,
        "trial_index": 547,
        "rt": 913,
        "correct": true,
        "response": "ArrowLeft",
        "congruent": false,
        "gazeTowards": true,
        "gazeCondition": "towards",
        "faceOnLeft": true,
        "impliedDirection": 0,
        "testDirection": 180,
        "avgFps": 30,
        "minFps": 30,
        "maxFps": 30,
        "totalFrames": 27,
        "frameRates": 30
      },
      {
        "trial_number": 94,
        "trial_index": 552,
        "rt": 1948,
        "correct": false,
        "response": "ArrowRight",
        "congruent": false,
        "gazeTowards": false,
        "gazeCondition": "away",
        "faceOnLeft": true,
        "impliedDirection": 0,
        "testDirection": 180,
        "avgFps": 30,
        "minFps": 30,
        "maxFps": 30,
        "totalFrames": 58,
        "frameRates": 30
      },
      {
        "trial_number": 95,
        "trial_index": 557,
        "rt": 1281,
        "correct": true,
        "response": "ArrowRight",
        "congruent": true,
        "gazeTowards": true,
        "gazeCondition": "towards",
        "faceOnLeft": true,
        "impliedDirection": 0,
        "testDirection": 0,
        "avgFps": 30,
        "minFps": 29,
        "maxFps": 31,
        "totalFrames": 38,
        "frameRates": 30
      },
      {
        "trial_number": 96,
        "trial_index": 562,
        "rt": 1624,
        "correct": true,
        "response": "ArrowRight",
        "congruent": false,
        "gazeTowards": true,
        "gazeCondition": "towards",
        "faceOnLeft": false,
        "impliedDirection": 180,
        "testDirection": 0,
        "avgFps": 30,
        "minFps": 30,
        "maxFps": 30,
        "totalFrames": 48,
        "frameRates": 30
      },
      {
        "trial_number": 97,
        "trial_index": 567,
        "rt": 1562,
        "correct": false,
        "response": "ArrowLeft",
        "congruent": false,
        "gazeTowards": false,
        "gazeCondition": "away",
        "faceOnLeft": false,
        "impliedDirection": 180,
        "testDirection": 0,
        "avgFps": 30,
        "minFps": 30,
        "maxFps": 30,
        "totalFrames": 47,
        "frameRates": 30
      },
      {
        "trial_number": 98,
        "trial_index": 572,
        "rt": 1037,
        "correct": false,
        "response": "ArrowLeft",
        "congruent": true,
        "gazeTowards": true,
        "gazeCondition": "towards",
        "faceOnLeft": true,
        "impliedDirection": 0,
        "testDirection": 0,
        "avgFps": 30,
        "minFps": 30,
        "maxFps": 30,
        "totalFrames": 31,
        "frameRates": 30
      },
      {
        "trial_number": 99,
        "trial_index": 577,
        "rt": 1271,
        "correct": true,
        "response": "ArrowLeft",
        "congruent": true,
        "gazeTowards": true,
        "gazeCondition": "towards",
        "faceOnLeft": false,
        "impliedDirection": 180,
        "testDirection": 180,
        "avgFps": 30,
        "minFps": 30,
        "maxFps": 30,
        "totalFrames": 38,
        "frameRates": 30
      },
      {
        "trial_number": 100,
        "trial_index": 582,
        "rt": 1327,
        "correct": false,
        "response": "ArrowLeft",
        "congruent": false,
        "gazeTowards": false,
        "gazeCondition": "away",
        "faceOnLeft": false,
        "impliedDirection": 180,
        "testDirection": 0,
        "avgFps": 30,
        "minFps": 30,
        "maxFps": 30,
        "totalFrames": 39,
        "frameRates": 30
      },
      {
        "trial_number": 101,
        "trial_index": 590,
        "rt": 1018,
        "correct": false,
        "response": "ArrowLeft",
        "congruent": false,
        "gazeTowards": true,
        "gazeCondition": "towards",
        "faceOnLeft": false,
        "impliedDirection": 180,
        "testDirection": 0,
        "avgFps": 30,
        "minFps": 30,
        "maxFps": 30,
        "totalFrames": 30,
        "frameRates": 30
      },
      {
        "trial_number": 102,
        "trial_index": 595,
        "rt": 1218,
        "correct": true,
        "response": "ArrowLeft",
        "congruent": false,
        "gazeTowards": false,
        "gazeCondition": "away",
        "faceOnLeft": true,
        "impliedDirection": 0,
        "testDirection": 180,
        "avgFps": 30,
        "minFps": 30,
        "maxFps": 30,
        "totalFrames": 36,
        "frameRates": 30
      },
      {
        "trial_number": 103,
        "trial_index": 600,
        "rt": 877,
        "correct": true,
        "response": "ArrowRight",
        "congruent": false,
        "gazeTowards": true,
        "gazeCondition": "towards",
        "faceOnLeft": false,
        "impliedDirection": 180,
        "testDirection": 0,
        "avgFps": 30,
        "minFps": 30,
        "maxFps": 30,
        "totalFrames": 26,
        "frameRates": 30
      },
      {
        "trial_number": 104,
        "trial_index": 605,
        "rt": 1028,
        "correct": false,
        "response": "ArrowLeft",
        "congruent": true,
        "gazeTowards": true,
        "gazeCondition": "towards",
        "faceOnLeft": true,
        "impliedDirection": 0,
        "testDirection": 0,
        "avgFps": 30,
        "minFps": 30,
        "maxFps": 30,
        "totalFrames": 31,
        "frameRates": 30
      },
      {
        "trial_number": 105,
        "trial_index": 613,
        "rt": 1047,
        "correct": true,
        "response": "ArrowLeft",
        "congruent": false,
        "gazeTowards": false,
        "gazeCondition": "away",
        "faceOnLeft": true,
        "impliedDirection": 0,
        "testDirection": 180,
        "avgFps": 30,
        "minFps": 30,
        "maxFps": 30,
        "totalFrames": 31,
        "frameRates": 30
      },
      {
        "trial_number": 106,
        "trial_index": 618,
        "rt": 1000,
        "correct": true,
        "response": "ArrowRight",
        "congruent": true,
        "gazeTowards": true,
        "gazeCondition": "towards",
        "faceOnLeft": true,
        "impliedDirection": 0,
        "testDirection": 0,
        "avgFps": 30,
        "minFps": 30,
        "maxFps": 30,
        "totalFrames": 30,
        "frameRates": 30
      },
      {
        "trial_number": 107,
        "trial_index": 623,
        "rt": 1429,
        "correct": true,
        "response": "ArrowRight",
        "congruent": false,
        "gazeTowards": false,
        "gazeCondition": "away",
        "faceOnLeft": false,
        "impliedDirection": 180,
        "testDirection": 0,
        "avgFps": 30,
        "minFps": 30,
        "maxFps": 30,
        "totalFrames": 43,
        "frameRates": 30
      },
      {
        "trial_number": 108,
        "trial_index": 628,
        "rt": 1379,
        "correct": true,
        "response": "ArrowRight",
        "congruent": true,
        "gazeTowards": false,
        "gazeCondition": "away",
        "faceOnLeft": true,
        "impliedDirection": 0,
        "testDirection": 0,
        "avgFps": 30,
        "minFps": 30,
        "maxFps": 30,
        "totalFrames": 41,
        "frameRates": 30
      },
      {
        "trial_number": 109,
        "trial_index": 633,
        "rt": 1007,
        "correct": false,
        "response": "ArrowLeft",
        "congruent": false,
        "gazeTowards": true,
        "gazeCondition": "towards",
        "faceOnLeft": false,
        "impliedDirection": 180,
        "testDirection": 0,
        "avgFps": 30,
        "minFps": 30,
        "maxFps": 30,
        "totalFrames": 30,
        "frameRates": 30
      },
      {
        "trial_number": 110,
        "trial_index": 638,
        "rt": 902,
        "correct": true,
        "response": "ArrowRight",
        "congruent": false,
        "gazeTowards": true,
        "gazeCondition": "towards",
        "faceOnLeft": false,
        "impliedDirection": 180,
        "testDirection": 0,
        "avgFps": 30,
        "minFps": 30,
        "maxFps": 30,
        "totalFrames": 27,
        "frameRates": 30
      },
      {
        "trial_number": 111,
        "trial_index": 643,
        "rt": 1164,
        "correct": true,
        "response": "ArrowLeft",
        "congruent": false,
        "gazeTowards": true,
        "gazeCondition": "towards",
        "faceOnLeft": true,
        "impliedDirection": 0,
        "testDirection": 180,
        "avgFps": 30,
        "minFps": 30,
        "maxFps": 30,
        "totalFrames": 35,
        "frameRates": 30
      },
      {
        "trial_number": 112,
        "trial_index": 648,
        "rt": 1628,
        "correct": true,
        "response": "ArrowLeft",
        "congruent": false,
        "gazeTowards": false,
        "gazeCondition": "away",
        "faceOnLeft": true,
        "impliedDirection": 0,
        "testDirection": 180,
        "avgFps": 30,
        "minFps": 30,
        "maxFps": 30,
        "totalFrames": 49,
        "frameRates": 30
      },
      {
        "trial_number": 113,
        "trial_index": 653,
        "rt": 1114,
        "correct": true,
        "response": "ArrowLeft",
        "congruent": true,
        "gazeTowards": false,
        "gazeCondition": "away",
        "faceOnLeft": false,
        "impliedDirection": 180,
        "testDirection": 180,
        "avgFps": 30,
        "minFps": 30,
        "maxFps": 30,
        "totalFrames": 33,
        "frameRates": 30
      },
      {
        "trial_number": 114,
        "trial_index": 658,
        "rt": 1753,
        "correct": false,
        "response": "ArrowLeft",
        "congruent": true,
        "gazeTowards": false,
        "gazeCondition": "away",
        "faceOnLeft": true,
        "impliedDirection": 0,
        "testDirection": 0,
        "avgFps": 30,
        "minFps": 30,
        "maxFps": 60,
        "totalFrames": 53,
        "frameRates": 30
      },
      {
        "trial_number": 115,
        "trial_index": 663,
        "rt": 1562,
        "correct": false,
        "response": "ArrowRight",
        "congruent": false,
        "gazeTowards": true,
        "gazeCondition": "towards",
        "faceOnLeft": true,
        "impliedDirection": 0,
        "testDirection": 180,
        "avgFps": 30,
        "minFps": 30,
        "maxFps": 30,
        "totalFrames": 47,
        "frameRates": 30
      },
      {
        "trial_number": 116,
        "trial_index": 668,
        "rt": 1368,
        "correct": true,
        "response": "ArrowRight",
        "congruent": false,
        "gazeTowards": true,
        "gazeCondition": "towards",
        "faceOnLeft": false,
        "impliedDirection": 180,
        "testDirection": 0,
        "avgFps": 30,
        "minFps": 30,
        "maxFps": 30,
        "totalFrames": 41,
        "frameRates": 30
      },
      {
        "trial_number": 117,
        "trial_index": 673,
        "rt": 1324,
        "correct": false,
        "response": "ArrowLeft",
        "congruent": false,
        "gazeTowards": false,
        "gazeCondition": "away",
        "faceOnLeft": false,
        "impliedDirection": 180,
        "testDirection": 0,
        "avgFps": 30,
        "minFps": 30,
        "maxFps": 30,
        "totalFrames": 39,
        "frameRates": 30
      },
      {
        "trial_number": 118,
        "trial_index": 678,
        "rt": 928,
        "correct": true,
        "response": "ArrowLeft",
        "congruent": false,
        "gazeTowards": false,
        "gazeCondition": "away",
        "faceOnLeft": true,
        "impliedDirection": 0,
        "testDirection": 180,
        "avgFps": 30,
        "minFps": 30,
        "maxFps": 30,
        "totalFrames": 28,
        "frameRates": 30
      },
      {
        "trial_number": 119,
        "trial_index": 683,
        "rt": 1936,
        "correct": true,
        "response": "ArrowRight",
        "congruent": false,
        "gazeTowards": true,
        "gazeCondition": "towards",
        "faceOnLeft": false,
        "impliedDirection": 180,
        "testDirection": 0,
        "avgFps": 30,
        "minFps": 30,
        "maxFps": 30,
        "totalFrames": 58,
        "frameRates": 30
      }
    ],
    "catch": {
      "total": 12,
      "correct": 12,
      "accuracy": 100,
      "meanRT": 994,
      "trials": [
        {
          "trial_number": 0,
          "trial_index": 73,
          "rt": 1044,
          "correct": true,
          "colorTarget": "tree",
          "gazeTowards": true,
          "gazeCondition": "towards",
          "faceOnLeft": true
        },
        {
          "trial_number": 1,
          "trial_index": 181,
          "rt": 2654,
          "correct": true,
          "colorTarget": "tree",
          "gazeTowards": false,
          "gazeCondition": "away",
          "faceOnLeft": false
        },
        {
          "trial_number": 2,
          "trial_index": 215,
          "rt": 1148,
          "correct": true,
          "colorTarget": "face",
          "gazeTowards": false,
          "gazeCondition": "away",
          "faceOnLeft": true
        },
        {
          "trial_number": 3,
          "trial_index": 258,
          "rt": 694,
          "correct": true,
          "colorTarget": "face",
          "gazeTowards": false,
          "gazeCondition": "away",
          "faceOnLeft": true
        },
        {
          "trial_number": 4,
          "trial_index": 261,
          "rt": 637,
          "correct": true,
          "colorTarget": "tree",
          "gazeTowards": true,
          "gazeCondition": "towards",
          "faceOnLeft": false
        },
        {
          "trial_number": 5,
          "trial_index": 415,
          "rt": 1652,
          "correct": true,
          "colorTarget": "tree",
          "gazeTowards": true,
          "gazeCondition": "towards",
          "faceOnLeft": false
        },
        {
          "trial_number": 6,
          "trial_index": 488,
          "rt": 679,
          "correct": true,
          "colorTarget": "tree",
          "gazeTowards": false,
          "gazeCondition": "away",
          "faceOnLeft": false
        },
        {
          "trial_number": 7,
          "trial_index": 516,
          "rt": 650,
          "correct": true,
          "colorTarget": "tree",
          "gazeTowards": false,
          "gazeCondition": "away",
          "faceOnLeft": false
        },
        {
          "trial_number": 8,
          "trial_index": 519,
          "rt": 894,
          "correct": true,
          "colorTarget": "face",
          "gazeTowards": true,
          "gazeCondition": "towards",
          "faceOnLeft": true
        },
        {
          "trial_number": 9,
          "trial_index": 538,
          "rt": 586,
          "correct": true,
          "colorTarget": "face",
          "gazeTowards": false,
          "gazeCondition": "away",
          "faceOnLeft": false
        },
        {
          "trial_number": 10,
          "trial_index": 586,
          "rt": 675,
          "correct": true,
          "colorTarget": "face",
          "gazeTowards": false,
          "gazeCondition": "away",
          "faceOnLeft": false
        },
        {
          "trial_number": 11,
          "trial_index": 609,
          "rt": 612,
          "correct": true,
          "colorTarget": "face",
          "gazeTowards": false,
          "gazeCondition": "away",
          "faceOnLeft": false
        }
      ]
    },
    "practice": {
      "trials": [
        {
          "trial_number": 0,
          "rt": null,
          "correct": false,
          "direction": 180
        },
        {
          "trial_number": 1,
          "rt": 804,
          "correct": true,
          "direction": 180
        },
        {
          "trial_number": 2,
          "rt": 817,
          "correct": true,
          "direction": 0
        },
        {
          "trial_number": 3,
          "rt": 774,
          "correct": true,
          "direction": 180
        },
        {
          "trial_number": 4,
          "rt": 932,
          "correct": true,
          "direction": 0
        },
        {
          "trial_number": 5,
          "rt": 777,
          "correct": true,
          "direction": 0
        },
        {
          "trial_number": 6,
          "rt": 748,
          "correct": true,
          "direction": 180
        },
        {
          "trial_number": 7,
          "rt": 932,
          "correct": false,
          "direction": 0
        },
        {
          "trial_number": 8,
          "rt": 990,
          "correct": true,
          "direction": 180
        },
        {
          "trial_number": 9,
          "rt": 935,
          "correct": true,
          "direction": 0
        }
      ],
      "meanRT": 857,
      "accuracy": 80
    }
  }
}