{
  "experiment": "rdk-face-1",
  "UUID": "00453572-3e55-43ce-9bee-a023e151ae9f",
  "data": {
    "session": {
      "experiment_version": "1.8.6",
      "treatment": "faces_towards_away_catch",
      "file_version": "1.8.6",
      "totalTrials": 120,
      "totalTrialsIncludingCatch": 132,
      "conditions": {
        "gazeTowardsCount": 60,
        "gazeAwayCount": 60,
        "gazeTowardsAccuracy": 90,
        "gazeAwayAccuracy": 68
      },
      "session_group": "default",
      "browserData": {
        "os": "Windows",
        "browser": "Chrome",
        "screenResolution": "1920x1080",
        "browserViewport": "1920x1080",
        "devicePixelRatio": 1,
        "colorDepth": 24,
        "hardwareConcurrency": 4,
        "deviceMemory": 4,
        "gpuRenderer": "ANGLE (Intel, Intel(R) HD Graphics Family Direct3D11 vs_5_0 ps_5_0, D3D11)",
        "measuredRefreshRateHz": 58
      },
      "attention": {
        "visibilityEvents": []
      },
      "calibration": {
        "monitorWidthCm": 38,
        "viewingDistanceCm": 54,
        "pixelsPerDegree": 50
      },
      "parameters": {
        "coherence": 0.4,
        "apertureDeg": 5,
        "densityDotsPerDeg2": 40,
        "dotDiameterDeg": 0.035,
        "dotSpeedDegPerSec": 3,
        "lifetimeMs": 200,
        "fixationDurationMs": 1500,
        "faceDurationMs": 1500,
        "testDurationMs": 2000,
        "catchResponseMs": 3000
      },
      "prolific": {
        "prolificPid": "65fd4f0fc340cf868802fdd8",
        "studyId": "",
        "sessionId": ""
      },
      "timing": {
        "startTime": "2026-03-06T06:22:15.806Z",
        "endTime": "2026-03-06T06:39:18.778Z",
        "totalElapsedTimeMs": 1022972
      }
    },
    "trials": [
      {
        "trial_number": 0,
        "trial_index": 90,
        "rt": 1276,
        "correct": true,
        "response": "ArrowLeft",
        "congruent": false,
        "gazeTowards": true,
        "gazeCondition": "towards",
        "faceOnLeft": true,
        "impliedDirection": 0,
        "testDirection": 180,
        "avgFps": 59,
        "minFps": 30,
        "maxFps": 60,
        "totalFrames": 76,
        "frameRates": 59
      },
      {
        "trial_number": 1,
        "trial_index": 95,
        "rt": 838,
        "correct": true,
        "response": "ArrowRight",
        "congruent": true,
        "gazeTowards": true,
        "gazeCondition": "towards",
        "faceOnLeft": true,
        "impliedDirection": 0,
        "testDirection": 0,
        "avgFps": 60,
        "minFps": 58,
        "maxFps": 60,
        "totalFrames": 50,
        "frameRates": 60
      },
      {
        "trial_number": 2,
        "trial_index": 100,
        "rt": 1400,
        "correct": true,
        "response": "ArrowRight",
        "congruent": true,
        "gazeTowards": false,
        "gazeCondition": "away",
        "faceOnLeft": true,
        "impliedDirection": 0,
        "testDirection": 0,
        "avgFps": 60,
        "minFps": 59,
        "maxFps": 60,
        "totalFrames": 84,
        "frameRates": 60
      },
      {
        "trial_number": 3,
        "trial_index": 105,
        "rt": 841,
        "correct": true,
        "response": "ArrowLeft",
        "congruent": true,
        "gazeTowards": true,
        "gazeCondition": "towards",
        "faceOnLeft": false,
        "impliedDirection": 180,
        "testDirection": 180,
        "avgFps": 60,
        "minFps": 59,
        "maxFps": 60,
        "totalFrames": 50,
        "frameRates": 60
      },
      {
        "trial_number": 4,
        "trial_index": 110,
        "rt": 849,
        "correct": true,
        "response": "ArrowRight",
        "congruent": false,
        "gazeTowards": false,
        "gazeCondition": "away",
        "faceOnLeft": false,
        "impliedDirection": 180,
        "testDirection": 0,
        "avgFps": 59,
        "minFps": 30,
        "maxFps": 60,
        "totalFrames": 50,
        "frameRates": 59
      },
      {
        "trial_number": 5,
        "trial_index": 115,
        "rt": 835,
        "correct": true,
        "response": "ArrowLeft",
        "congruent": false,
        "gazeTowards": true,
        "gazeCondition": "towards",
        "faceOnLeft": true,
        "impliedDirection": 0,
        "testDirection": 180,
        "avgFps": 60,
        "minFps": 58,
        "maxFps": 60,
        "totalFrames": 50,
        "frameRates": 60
      },
      {
        "trial_number": 6,
        "trial_index": 120,
        "rt": 824,
        "correct": true,
        "response": "ArrowRight",
        "congruent": false,
        "gazeTowards": true,
        "gazeCondition": "towards",
        "faceOnLeft": false,
        "impliedDirection": 180,
        "testDirection": 0,
        "avgFps": 60,
        "minFps": 59,
        "maxFps": 60,
        "totalFrames": 49,
        "frameRates": 60
      },
      {
        "trial_number": 7,
        "trial_index": 125,
        "rt": 1477,
        "correct": false,
        "response": "ArrowLeft",
        "congruent": false,
        "gazeTowards": true,
        "gazeCondition": "towards",
        "faceOnLeft": false,
        "impliedDirection": 180,
        "testDirection": 0,
        "avgFps": 60,
        "minFps": 58,
        "maxFps": 60,
        "totalFrames": 88,
        "frameRates": 60
      },
      {
        "trial_number": 8,
        "trial_index": 130,
        "rt": 944,
        "correct": true,
        "response": "ArrowRight",
        "congruent": true,
        "gazeTowards": false,
        "gazeCondition": "away",
        "faceOnLeft": true,
        "impliedDirection": 0,
        "testDirection": 0,
        "avgFps": 60,
        "minFps": 60,
        "maxFps": 60,
        "totalFrames": 56,
        "frameRates": 60
      },
      {
        "trial_number": 9,
        "trial_index": 135,
        "rt": 1075,
        "correct": false,
        "response": "ArrowLeft",
        "congruent": false,
        "gazeTowards": true,
        "gazeCondition": "towards",
        "faceOnLeft": false,
        "impliedDirection": 180,
        "testDirection": 0,
        "avgFps": 60,
        "minFps": 58,
        "maxFps": 60,
        "totalFrames": 64,
        "frameRates": 60
      },
      {
        "trial_number": 10,
        "trial_index": 140,
        "rt": 1147,
        "correct": true,
        "response": "ArrowLeft",
        "congruent": true,
        "gazeTowards": false,
        "gazeCondition": "away",
        "faceOnLeft": false,
        "impliedDirection": 180,
        "testDirection": 180,
        "avgFps": 59,
        "minFps": 30,
        "maxFps": 60,
        "totalFrames": 68,
        "frameRates": 59
      },
      {
        "trial_number": 11,
        "trial_index": 145,
        "rt": 1058,
        "correct": true,
        "response": "ArrowLeft",
        "congruent": false,
        "gazeTowards": false,
        "gazeCondition": "away",
        "faceOnLeft": true,
        "impliedDirection": 0,
        "testDirection": 180,
        "avgFps": 60,
        "minFps": 59,
        "maxFps": 61,
        "totalFrames": 63,
        "frameRates": 60
      },
      {
        "trial_number": 12,
        "trial_index": 150,
        "rt": 720,
        "correct": true,
        "response": "ArrowRight",
        "congruent": true,
        "gazeTowards": false,
        "gazeCondition": "away",
        "faceOnLeft": true,
        "impliedDirection": 0,
        "testDirection": 0,
        "avgFps": 60,
        "minFps": 60,
        "maxFps": 60,
        "totalFrames": 43,
        "frameRates": 60
      },
      {
        "trial_number": 13,
        "trial_index": 155,
        "rt": 1191,
        "correct": true,
        "response": "ArrowRight",
        "congruent": false,
        "gazeTowards": true,
        "gazeCondition": "towards",
        "faceOnLeft": false,
        "impliedDirection": 180,
        "testDirection": 0,
        "avgFps": 60,
        "minFps": 58,
        "maxFps": 60,
        "totalFrames": 71,
        "frameRates": 60
      },
      {
        "trial_number": 14,
        "trial_index": 160,
        "rt": 1609,
        "correct": true,
        "response": "ArrowRight",
        "congruent": true,
        "gazeTowards": false,
        "gazeCondition": "away",
        "faceOnLeft": true,
        "impliedDirection": 0,
        "testDirection": 0,
        "avgFps": 60,
        "minFps": 59,
        "maxFps": 60,
        "totalFrames": 96,
        "frameRates": 60
      },
      {
        "trial_number": 15,
        "trial_index": 165,
        "rt": 1040,
        "correct": false,
        "response": "ArrowLeft",
        "congruent": true,
        "gazeTowards": false,
        "gazeCondition": "away",
        "faceOnLeft": true,
        "impliedDirection": 0,
        "testDirection": 0,
        "avgFps": 60,
        "minFps": 59,
        "maxFps": 60,
        "totalFrames": 62,
        "frameRates": 60
      },
      {
        "trial_number": 16,
        "trial_index": 170,
        "rt": 829,
        "correct": true,
        "response": "ArrowLeft",
        "congruent": false,
        "gazeTowards": false,
        "gazeCondition": "away",
        "faceOnLeft": true,
        "impliedDirection": 0,
        "testDirection": 180,
        "avgFps": 60,
        "minFps": 59,
        "maxFps": 60,
        "totalFrames": 49,
        "frameRates": 60
      },
      {
        "trial_number": 17,
        "trial_index": 178,
        "rt": 1210,
        "correct": true,
        "response": "ArrowRight",
        "congruent": false,
        "gazeTowards": false,
        "gazeCondition": "away",
        "faceOnLeft": false,
        "impliedDirection": 180,
        "testDirection": 0,
        "avgFps": 60,
        "minFps": 60,
        "maxFps": 60,
        "totalFrames": 73,
        "frameRates": 60
      },
      {
        "trial_number": 18,
        "trial_index": 183,
        "rt": 1247,
        "correct": false,
        "response": "ArrowLeft",
        "congruent": true,
        "gazeTowards": false,
        "gazeCondition": "away",
        "faceOnLeft": true,
        "impliedDirection": 0,
        "testDirection": 0,
        "avgFps": 60,
        "minFps": 60,
        "maxFps": 60,
        "totalFrames": 74,
        "frameRates": 60
      },
      {
        "trial_number": 19,
        "trial_index": 188,
        "rt": 723,
        "correct": true,
        "response": "ArrowLeft",
        "congruent": false,
        "gazeTowards": true,
        "gazeCondition": "towards",
        "faceOnLeft": true,
        "impliedDirection": 0,
        "testDirection": 180,
        "avgFps": 60,
        "minFps": 59,
        "maxFps": 60,
        "totalFrames": 43,
        "frameRates": 60
      },
      {
        "trial_number": 20,
        "trial_index": 193,
        "rt": 920,
        "correct": true,
        "response": "ArrowRight",
        "congruent": false,
        "gazeTowards": false,
        "gazeCondition": "away",
        "faceOnLeft": false,
        "impliedDirection": 180,
        "testDirection": 0,
        "avgFps": 60,
        "minFps": 58,
        "maxFps": 60,
        "totalFrames": 55,
        "frameRates": 60
      },
      {
        "trial_number": 21,
        "trial_index": 198,
        "rt": 1034,
        "correct": true,
        "response": "ArrowLeft",
        "congruent": false,
        "gazeTowards": true,
        "gazeCondition": "towards",
        "faceOnLeft": true,
        "impliedDirection": 0,
        "testDirection": 180,
        "avgFps": 60,
        "minFps": 59,
        "maxFps": 60,
        "totalFrames": 62,
        "frameRates": 60
      },
      {
        "trial_number": 22,
        "trial_index": 206,
        "rt": 1490,
        "correct": true,
        "response": "ArrowRight",
        "congruent": false,
        "gazeTowards": true,
        "gazeCondition": "towards",
        "faceOnLeft": false,
        "impliedDirection": 180,
        "testDirection": 0,
        "avgFps": 60,
        "minFps": 60,
        "maxFps": 60,
        "totalFrames": 89,
        "frameRates": 60
      },
      {
        "trial_number": 23,
        "trial_index": 211,
        "rt": 1140,
        "correct": false,
        "response": "ArrowLeft",
        "congruent": false,
        "gazeTowards": true,
        "gazeCondition": "towards",
        "faceOnLeft": false,
        "impliedDirection": 180,
        "testDirection": 0,
        "avgFps": 60,
        "minFps": 57,
        "maxFps": 60,
        "totalFrames": 68,
        "frameRates": 60
      },
      {
        "trial_number": 24,
        "trial_index": 216,
        "rt": 1136,
        "correct": true,
        "response": "ArrowRight",
        "congruent": true,
        "gazeTowards": true,
        "gazeCondition": "towards",
        "faceOnLeft": true,
        "impliedDirection": 0,
        "testDirection": 0,
        "avgFps": 59,
        "minFps": 30,
        "maxFps": 61,
        "totalFrames": 67,
        "frameRates": 59
      },
      {
        "trial_number": 25,
        "trial_index": 221,
        "rt": 906,
        "correct": true,
        "response": "ArrowLeft",
        "congruent": true,
        "gazeTowards": true,
        "gazeCondition": "towards",
        "faceOnLeft": false,
        "impliedDirection": 180,
        "testDirection": 180,
        "avgFps": 60,
        "minFps": 58,
        "maxFps": 60,
        "totalFrames": 54,
        "frameRates": 60
      },
      {
        "trial_number": 26,
        "trial_index": 226,
        "rt": 1305,
        "correct": true,
        "response": "ArrowRight",
        "congruent": true,
        "gazeTowards": false,
        "gazeCondition": "away",
        "faceOnLeft": true,
        "impliedDirection": 0,
        "testDirection": 0,
        "avgFps": 60,
        "minFps": 58,
        "maxFps": 60,
        "totalFrames": 78,
        "frameRates": 60
      },
      {
        "trial_number": 27,
        "trial_index": 231,
        "rt": 1238,
        "correct": false,
        "response": "ArrowLeft",
        "congruent": true,
        "gazeTowards": false,
        "gazeCondition": "away",
        "faceOnLeft": true,
        "impliedDirection": 0,
        "testDirection": 0,
        "avgFps": 60,
        "minFps": 59,
        "maxFps": 60,
        "totalFrames": 74,
        "frameRates": 60
      },
      {
        "trial_number": 28,
        "trial_index": 239,
        "rt": 1217,
        "correct": true,
        "response": "ArrowLeft",
        "congruent": true,
        "gazeTowards": false,
        "gazeCondition": "away",
        "faceOnLeft": false,
        "impliedDirection": 180,
        "testDirection": 180,
        "avgFps": 59,
        "minFps": 30,
        "maxFps": 60,
        "totalFrames": 72,
        "frameRates": 59
      },
      {
        "trial_number": 29,
        "trial_index": 244,
        "rt": 1071,
        "correct": true,
        "response": "ArrowRight",
        "congruent": false,
        "gazeTowards": true,
        "gazeCondition": "towards",
        "faceOnLeft": false,
        "impliedDirection": 180,
        "testDirection": 0,
        "avgFps": 60,
        "minFps": 58,
        "maxFps": 60,
        "totalFrames": 64,
        "frameRates": 60
      },
      {
        "trial_number": 30,
        "trial_index": 250,
        "rt": 1139,
        "correct": false,
        "response": "ArrowLeft",
        "congruent": false,
        "gazeTowards": false,
        "gazeCondition": "away",
        "faceOnLeft": false,
        "impliedDirection": 180,
        "testDirection": 0,
        "avgFps": 60,
        "minFps": 58,
        "maxFps": 60,
        "totalFrames": 68,
        "frameRates": 60
      },
      {
        "trial_number": 31,
        "trial_index": 255,
        "rt": 908,
        "correct": true,
        "response": "ArrowRight",
        "congruent": true,
        "gazeTowards": true,
        "gazeCondition": "towards",
        "faceOnLeft": true,
        "impliedDirection": 0,
        "testDirection": 0,
        "avgFps": 60,
        "minFps": 59,
        "maxFps": 60,
        "totalFrames": 54,
        "frameRates": 60
      },
      {
        "trial_number": 32,
        "trial_index": 260,
        "rt": 985,
        "correct": true,
        "response": "ArrowLeft",
        "congruent": true,
        "gazeTowards": true,
        "gazeCondition": "towards",
        "faceOnLeft": false,
        "impliedDirection": 180,
        "testDirection": 180,
        "avgFps": 59,
        "minFps": 30,
        "maxFps": 60,
        "totalFrames": 58,
        "frameRates": 59
      },
      {
        "trial_number": 33,
        "trial_index": 265,
        "rt": 1383,
        "correct": true,
        "response": "ArrowRight",
        "congruent": true,
        "gazeTowards": true,
        "gazeCondition": "towards",
        "faceOnLeft": true,
        "impliedDirection": 0,
        "testDirection": 0,
        "avgFps": 60,
        "minFps": 58,
        "maxFps": 60,
        "totalFrames": 83,
        "frameRates": 60
      },
      {
        "trial_number": 34,
        "trial_index": 270,
        "rt": 1197,
        "correct": true,
        "response": "ArrowLeft",
        "congruent": true,
        "gazeTowards": true,
        "gazeCondition": "towards",
        "faceOnLeft": false,
        "impliedDirection": 180,
        "testDirection": 180,
        "avgFps": 60,
        "minFps": 59,
        "maxFps": 60,
        "totalFrames": 71,
        "frameRates": 60
      },
      {
        "trial_number": 35,
        "trial_index": 275,
        "rt": 1455,
        "correct": true,
        "response": "ArrowRight",
        "congruent": true,
        "gazeTowards": false,
        "gazeCondition": "away",
        "faceOnLeft": true,
        "impliedDirection": 0,
        "testDirection": 0,
        "avgFps": 60,
        "minFps": 58,
        "maxFps": 61,
        "totalFrames": 87,
        "frameRates": 60
      },
      {
        "trial_number": 36,
        "trial_index": 280,
        "rt": 1461,
        "correct": true,
        "response": "ArrowRight",
        "congruent": false,
        "gazeTowards": false,
        "gazeCondition": "away",
        "faceOnLeft": false,
        "impliedDirection": 180,
        "testDirection": 0,
        "avgFps": 59,
        "minFps": 30,
        "maxFps": 60,
        "totalFrames": 87,
        "frameRates": 59
      },
      {
        "trial_number": 37,
        "trial_index": 285,
        "rt": 1387,
        "correct": false,
        "response": "ArrowLeft",
        "congruent": false,
        "gazeTowards": true,
        "gazeCondition": "towards",
        "faceOnLeft": false,
        "impliedDirection": 180,
        "testDirection": 0,
        "avgFps": 60,
        "minFps": 58,
        "maxFps": 60,
        "totalFrames": 83,
        "frameRates": 60
      },
      {
        "trial_number": 38,
        "trial_index": 290,
        "rt": 1296,
        "correct": true,
        "response": "ArrowLeft",
        "congruent": true,
        "gazeTowards": true,
        "gazeCondition": "towards",
        "faceOnLeft": false,
        "impliedDirection": 180,
        "testDirection": 180,
        "avgFps": 60,
        "minFps": 60,
        "maxFps": 60,
        "totalFrames": 77,
        "frameRates": 60
      },
      {
        "trial_number": 39,
        "trial_index": 295,
        "rt": 1270,
        "correct": true,
        "response": "ArrowRight",
        "congruent": true,
        "gazeTowards": true,
        "gazeCondition": "towards",
        "faceOnLeft": true,
        "impliedDirection": 0,
        "testDirection": 0,
        "avgFps": 60,
        "minFps": 58,
        "maxFps": 60,
        "totalFrames": 76,
        "frameRates": 60
      },
      {
        "trial_number": 40,
        "trial_index": 300,
        "rt": 1090,
        "correct": true,
        "response": "ArrowLeft",
        "congruent": true,
        "gazeTowards": false,
        "gazeCondition": "away",
        "faceOnLeft": false,
        "impliedDirection": 180,
        "testDirection": 180,
        "avgFps": 60,
        "minFps": 58,
        "maxFps": 60,
        "totalFrames": 65,
        "frameRates": 60
      },
      {
        "trial_number": 41,
        "trial_index": 305,
        "rt": 1267,
        "correct": true,
        "response": "ArrowRight",
        "congruent": false,
        "gazeTowards": true,
        "gazeCondition": "towards",
        "faceOnLeft": false,
        "impliedDirection": 180,
        "testDirection": 0,
        "avgFps": 59,
        "minFps": 30,
        "maxFps": 60,
        "totalFrames": 75,
        "frameRates": 59
      },
      {
        "trial_number": 42,
        "trial_index": 310,
        "rt": 1283,
        "correct": true,
        "response": "ArrowRight",
        "congruent": false,
        "gazeTowards": false,
        "gazeCondition": "away",
        "faceOnLeft": false,
        "impliedDirection": 180,
        "testDirection": 0,
        "avgFps": 60,
        "minFps": 59,
        "maxFps": 60,
        "totalFrames": 77,
        "frameRates": 60
      },
      {
        "trial_number": 43,
        "trial_index": 315,
        "rt": 1410,
        "correct": true,
        "response": "ArrowRight",
        "congruent": true,
        "gazeTowards": false,
        "gazeCondition": "away",
        "faceOnLeft": true,
        "impliedDirection": 0,
        "testDirection": 0,
        "avgFps": 60,
        "minFps": 58,
        "maxFps": 60,
        "totalFrames": 84,
        "frameRates": 60
      },
      {
        "trial_number": 44,
        "trial_index": 320,
        "rt": 1236,
        "correct": true,
        "response": "ArrowLeft",
        "congruent": true,
        "gazeTowards": false,
        "gazeCondition": "away",
        "faceOnLeft": false,
        "impliedDirection": 180,
        "testDirection": 180,
        "avgFps": 60,
        "minFps": 58,
        "maxFps": 60,
        "totalFrames": 74,
        "frameRates": 60
      },
      {
        "trial_number": 45,
        "trial_index": 325,
        "rt": 1004,
        "correct": true,
        "response": "ArrowRight",
        "congruent": false,
        "gazeTowards": true,
        "gazeCondition": "towards",
        "faceOnLeft": false,
        "impliedDirection": 180,
        "testDirection": 0,
        "avgFps": 60,
        "minFps": 59,
        "maxFps": 61,
        "totalFrames": 60,
        "frameRates": 60
      },
      {
        "trial_number": 46,
        "trial_index": 330,
        "rt": 983,
        "correct": true,
        "response": "ArrowRight",
        "congruent": false,
        "gazeTowards": false,
        "gazeCondition": "away",
        "faceOnLeft": false,
        "impliedDirection": 180,
        "testDirection": 0,
        "avgFps": 60,
        "minFps": 60,
        "maxFps": 60,
        "totalFrames": 59,
        "frameRates": 60
      },
      {
        "trial_number": 47,
        "trial_index": 335,
        "rt": 1387,
        "correct": true,
        "response": "ArrowLeft",
        "congruent": false,
        "gazeTowards": true,
        "gazeCondition": "towards",
        "faceOnLeft": true,
        "impliedDirection": 0,
        "testDirection": 180,
        "avgFps": 60,
        "minFps": 59,
        "maxFps": 60,
        "totalFrames": 83,
        "frameRates": 60
      },
      {
        "trial_number": 48,
        "trial_index": 340,
        "rt": 1259,
        "correct": true,
        "response": "ArrowLeft",
        "congruent": false,
        "gazeTowards": true,
        "gazeCondition": "towards",
        "faceOnLeft": true,
        "impliedDirection": 0,
        "testDirection": 180,
        "avgFps": 60,
        "minFps": 57,
        "maxFps": 60,
        "totalFrames": 75,
        "frameRates": 60
      },
      {
        "trial_number": 49,
        "trial_index": 345,
        "rt": 1347,
        "correct": true,
        "response": "ArrowRight",
        "congruent": true,
        "gazeTowards": true,
        "gazeCondition": "towards",
        "faceOnLeft": true,
        "impliedDirection": 0,
        "testDirection": 0,
        "avgFps": 60,
        "minFps": 58,
        "maxFps": 60,
        "totalFrames": 81,
        "frameRates": 60
      },
      {
        "trial_number": 50,
        "trial_index": 350,
        "rt": 1454,
        "correct": true,
        "response": "ArrowRight",
        "congruent": false,
        "gazeTowards": true,
        "gazeCondition": "towards",
        "faceOnLeft": false,
        "impliedDirection": 180,
        "testDirection": 0,
        "avgFps": 60,
        "minFps": 58,
        "maxFps": 60,
        "totalFrames": 87,
        "frameRates": 60
      },
      {
        "trial_number": 51,
        "trial_index": 355,
        "rt": 1728,
        "correct": true,
        "response": "ArrowRight",
        "congruent": true,
        "gazeTowards": true,
        "gazeCondition": "towards",
        "faceOnLeft": true,
        "impliedDirection": 0,
        "testDirection": 0,
        "avgFps": 60,
        "minFps": 58,
        "maxFps": 60,
        "totalFrames": 103,
        "frameRates": 60
      },
      {
        "trial_number": 52,
        "trial_index": 360,
        "rt": 1647,
        "correct": true,
        "response": "ArrowRight",
        "congruent": true,
        "gazeTowards": false,
        "gazeCondition": "away",
        "faceOnLeft": true,
        "impliedDirection": 0,
        "testDirection": 0,
        "avgFps": 60,
        "minFps": 59,
        "maxFps": 60,
        "totalFrames": 99,
        "frameRates": 60
      },
      {
        "trial_number": 53,
        "trial_index": 368,
        "rt": 1272,
        "correct": true,
        "response": "ArrowRight",
        "congruent": false,
        "gazeTowards": true,
        "gazeCondition": "towards",
        "faceOnLeft": false,
        "impliedDirection": 180,
        "testDirection": 0,
        "avgFps": 60,
        "minFps": 58,
        "maxFps": 60,
        "totalFrames": 76,
        "frameRates": 60
      },
      {
        "trial_number": 54,
        "trial_index": 373,
        "rt": 1517,
        "correct": false,
        "response": "ArrowLeft",
        "congruent": false,
        "gazeTowards": false,
        "gazeCondition": "away",
        "faceOnLeft": false,
        "impliedDirection": 180,
        "testDirection": 0,
        "avgFps": 60,
        "minFps": 59,
        "maxFps": 60,
        "totalFrames": 91,
        "frameRates": 60
      },
      {
        "trial_number": 55,
        "trial_index": 378,
        "rt": 1301,
        "correct": true,
        "response": "ArrowLeft",
        "congruent": false,
        "gazeTowards": false,
        "gazeCondition": "away",
        "faceOnLeft": true,
        "impliedDirection": 0,
        "testDirection": 180,
        "avgFps": 60,
        "minFps": 59,
        "maxFps": 60,
        "totalFrames": 78,
        "frameRates": 60
      },
      {
        "trial_number": 56,
        "trial_index": 383,
        "rt": 996,
        "correct": true,
        "response": "ArrowLeft",
        "congruent": true,
        "gazeTowards": true,
        "gazeCondition": "towards",
        "faceOnLeft": false,
        "impliedDirection": 180,
        "testDirection": 180,
        "avgFps": 59,
        "minFps": 30,
        "maxFps": 60,
        "totalFrames": 59,
        "frameRates": 59
      },
      {
        "trial_number": 57,
        "trial_index": 388,
        "rt": 961,
        "correct": true,
        "response": "ArrowRight",
        "congruent": false,
        "gazeTowards": true,
        "gazeCondition": "towards",
        "faceOnLeft": false,
        "impliedDirection": 180,
        "testDirection": 0,
        "avgFps": 60,
        "minFps": 59,
        "maxFps": 60,
        "totalFrames": 57,
        "frameRates": 60
      },
      {
        "trial_number": 58,
        "trial_index": 393,
        "rt": 1716,
        "correct": true,
        "response": "ArrowRight",
        "congruent": true,
        "gazeTowards": true,
        "gazeCondition": "towards",
        "faceOnLeft": true,
        "impliedDirection": 0,
        "testDirection": 0,
        "avgFps": 60,
        "minFps": 58,
        "maxFps": 60,
        "totalFrames": 103,
        "frameRates": 60
      },
      {
        "trial_number": 59,
        "trial_index": 398,
        "rt": 1127,
        "correct": true,
        "response": "ArrowLeft",
        "congruent": true,
        "gazeTowards": false,
        "gazeCondition": "away",
        "faceOnLeft": false,
        "impliedDirection": 180,
        "testDirection": 180,
        "avgFps": 60,
        "minFps": 59,
        "maxFps": 60,
        "totalFrames": 67,
        "frameRates": 60
      },
      {
        "trial_number": 60,
        "trial_index": 403,
        "rt": 1005,
        "correct": true,
        "response": "ArrowRight",
        "congruent": true,
        "gazeTowards": true,
        "gazeCondition": "towards",
        "faceOnLeft": true,
        "impliedDirection": 0,
        "testDirection": 0,
        "avgFps": 60,
        "minFps": 58,
        "maxFps": 60,
        "totalFrames": 60,
        "frameRates": 60
      },
      {
        "trial_number": 61,
        "trial_index": 408,
        "rt": 1163,
        "correct": true,
        "response": "ArrowRight",
        "congruent": false,
        "gazeTowards": false,
        "gazeCondition": "away",
        "faceOnLeft": false,
        "impliedDirection": 180,
        "testDirection": 0,
        "avgFps": 60,
        "minFps": 59,
        "maxFps": 60,
        "totalFrames": 70,
        "frameRates": 60
      },
      {
        "trial_number": 62,
        "trial_index": 414,
        "rt": 1277,
        "correct": true,
        "response": "ArrowRight",
        "congruent": false,
        "gazeTowards": false,
        "gazeCondition": "away",
        "faceOnLeft": false,
        "impliedDirection": 180,
        "testDirection": 0,
        "avgFps": 59,
        "minFps": 30,
        "maxFps": 60,
        "totalFrames": 76,
        "frameRates": 59
      },
      {
        "trial_number": 63,
        "trial_index": 419,
        "rt": 1083,
        "correct": true,
        "response": "ArrowLeft",
        "congruent": true,
        "gazeTowards": true,
        "gazeCondition": "towards",
        "faceOnLeft": false,
        "impliedDirection": 180,
        "testDirection": 180,
        "avgFps": 59,
        "minFps": 30,
        "maxFps": 60,
        "totalFrames": 64,
        "frameRates": 59
      },
      {
        "trial_number": 64,
        "trial_index": 424,
        "rt": 1058,
        "correct": true,
        "response": "ArrowLeft",
        "congruent": false,
        "gazeTowards": true,
        "gazeCondition": "towards",
        "faceOnLeft": true,
        "impliedDirection": 0,
        "testDirection": 180,
        "avgFps": 60,
        "minFps": 59,
        "maxFps": 60,
        "totalFrames": 63,
        "frameRates": 60
      },
      {
        "trial_number": 65,
        "trial_index": 429,
        "rt": 1240,
        "correct": true,
        "response": "ArrowRight",
        "congruent": true,
        "gazeTowards": false,
        "gazeCondition": "away",
        "faceOnLeft": true,
        "impliedDirection": 0,
        "testDirection": 0,
        "avgFps": 60,
        "minFps": 59,
        "maxFps": 60,
        "totalFrames": 74,
        "frameRates": 60
      },
      {
        "trial_number": 66,
        "trial_index": 434,
        "rt": 1007,
        "correct": true,
        "response": "ArrowLeft",
        "congruent": false,
        "gazeTowards": true,
        "gazeCondition": "towards",
        "faceOnLeft": true,
        "impliedDirection": 0,
        "testDirection": 180,
        "avgFps": 60,
        "minFps": 59,
        "maxFps": 60,
        "totalFrames": 60,
        "frameRates": 60
      },
      {
        "trial_number": 67,
        "trial_index": 439,
        "rt": 1294,
        "correct": true,
        "response": "ArrowRight",
        "congruent": false,
        "gazeTowards": false,
        "gazeCondition": "away",
        "faceOnLeft": false,
        "impliedDirection": 180,
        "testDirection": 0,
        "avgFps": 60,
        "minFps": 59,
        "maxFps": 60,
        "totalFrames": 77,
        "frameRates": 60
      },
      {
        "trial_number": 68,
        "trial_index": 444,
        "rt": 1136,
        "correct": true,
        "response": "ArrowLeft",
        "congruent": false,
        "gazeTowards": true,
        "gazeCondition": "towards",
        "faceOnLeft": true,
        "impliedDirection": 0,
        "testDirection": 180,
        "avgFps": 60,
        "minFps": 57,
        "maxFps": 60,
        "totalFrames": 68,
        "frameRates": 60
      },
      {
        "trial_number": 69,
        "trial_index": 449,
        "rt": 1206,
        "correct": true,
        "response": "ArrowLeft",
        "congruent": false,
        "gazeTowards": true,
        "gazeCondition": "towards",
        "faceOnLeft": true,
        "impliedDirection": 0,
        "testDirection": 180,
        "avgFps": 60,
        "minFps": 59,
        "maxFps": 60,
        "totalFrames": 72,
        "frameRates": 60
      },
      {
        "trial_number": 70,
        "trial_index": 454,
        "rt": null,
        "correct": false,
        "response": null,
        "congruent": true,
        "gazeTowards": false,
        "gazeCondition": "away",
        "faceOnLeft": false,
        "impliedDirection": 180,
        "testDirection": 180,
        "avgFps": 59,
        "minFps": 30,
        "maxFps": 60,
        "totalFrames": 119,
        "frameRates": 59
      },
      {
        "trial_number": 71,
        "trial_index": 462,
        "rt": 839,
        "correct": true,
        "response": "ArrowLeft",
        "congruent": true,
        "gazeTowards": true,
        "gazeCondition": "towards",
        "faceOnLeft": false,
        "impliedDirection": 180,
        "testDirection": 180,
        "avgFps": 60,
        "minFps": 59,
        "maxFps": 60,
        "totalFrames": 50,
        "frameRates": 60
      },
      {
        "trial_number": 72,
        "trial_index": 467,
        "rt": 1054,
        "correct": true,
        "response": "ArrowRight",
        "congruent": false,
        "gazeTowards": false,
        "gazeCondition": "away",
        "faceOnLeft": false,
        "impliedDirection": 180,
        "testDirection": 0,
        "avgFps": 60,
        "minFps": 58,
        "maxFps": 60,
        "totalFrames": 63,
        "frameRates": 60
      },
      {
        "trial_number": 73,
        "trial_index": 472,
        "rt": 1188,
        "correct": true,
        "response": "ArrowLeft",
        "congruent": false,
        "gazeTowards": false,
        "gazeCondition": "away",
        "faceOnLeft": true,
        "impliedDirection": 0,
        "testDirection": 180,
        "avgFps": 60,
        "minFps": 59,
        "maxFps": 60,
        "totalFrames": 71,
        "frameRates": 60
      },
      {
        "trial_number": 74,
        "trial_index": 477,
        "rt": 1096,
        "correct": false,
        "response": "ArrowRight",
        "congruent": false,
        "gazeTowards": true,
        "gazeCondition": "towards",
        "faceOnLeft": true,
        "impliedDirection": 0,
        "testDirection": 180,
        "avgFps": 59,
        "minFps": 30,
        "maxFps": 60,
        "totalFrames": 65,
        "frameRates": 59
      },
      {
        "trial_number": 75,
        "trial_index": 482,
        "rt": 863,
        "correct": true,
        "response": "ArrowRight",
        "congruent": true,
        "gazeTowards": false,
        "gazeCondition": "away",
        "faceOnLeft": true,
        "impliedDirection": 0,
        "testDirection": 0,
        "avgFps": 60,
        "minFps": 59,
        "maxFps": 60,
        "totalFrames": 52,
        "frameRates": 60
      },
      {
        "trial_number": 76,
        "trial_index": 490,
        "rt": 1268,
        "correct": false,
        "response": "ArrowLeft",
        "congruent": true,
        "gazeTowards": false,
        "gazeCondition": "away",
        "faceOnLeft": true,
        "impliedDirection": 0,
        "testDirection": 0,
        "avgFps": 60,
        "minFps": 59,
        "maxFps": 60,
        "totalFrames": 76,
        "frameRates": 60
      },
      {
        "trial_number": 77,
        "trial_index": 498,
        "rt": 829,
        "correct": true,
        "response": "ArrowLeft",
        "congruent": true,
        "gazeTowards": true,
        "gazeCondition": "towards",
        "faceOnLeft": false,
        "impliedDirection": 180,
        "testDirection": 180,
        "avgFps": 59,
        "minFps": 30,
        "maxFps": 60,
        "totalFrames": 49,
        "frameRates": 59
      },
      {
        "trial_number": 78,
        "trial_index": 506,
        "rt": 985,
        "correct": true,
        "response": "ArrowLeft",
        "congruent": false,
        "gazeTowards": false,
        "gazeCondition": "away",
        "faceOnLeft": true,
        "impliedDirection": 0,
        "testDirection": 180,
        "avgFps": 60,
        "minFps": 60,
        "maxFps": 60,
        "totalFrames": 59,
        "frameRates": 60
      },
      {
        "trial_number": 79,
        "trial_index": 511,
        "rt": 860,
        "correct": true,
        "response": "ArrowRight",
        "congruent": false,
        "gazeTowards": false,
        "gazeCondition": "away",
        "faceOnLeft": false,
        "impliedDirection": 180,
        "testDirection": 0,
        "avgFps": 60,
        "minFps": 59,
        "maxFps": 60,
        "totalFrames": 51,
        "frameRates": 60
      },
      {
        "trial_number": 80,
        "trial_index": 516,
        "rt": 1042,
        "correct": false,
        "response": "ArrowLeft",
        "congruent": false,
        "gazeTowards": false,
        "gazeCondition": "away",
        "faceOnLeft": false,
        "impliedDirection": 180,
        "testDirection": 0,
        "avgFps": 60,
        "minFps": 59,
        "maxFps": 60,
        "totalFrames": 62,
        "frameRates": 60
      },
      {
        "trial_number": 81,
        "trial_index": 521,
        "rt": 1070,
        "correct": false,
        "response": "ArrowLeft",
        "congruent": false,
        "gazeTowards": false,
        "gazeCondition": "away",
        "faceOnLeft": false,
        "impliedDirection": 180,
        "testDirection": 0,
        "avgFps": 60,
        "minFps": 60,
        "maxFps": 60,
        "totalFrames": 64,
        "frameRates": 60
      },
      {
        "trial_number": 82,
        "trial_index": 526,
        "rt": 938,
        "correct": true,
        "response": "ArrowLeft",
        "congruent": true,
        "gazeTowards": false,
        "gazeCondition": "away",
        "faceOnLeft": false,
        "impliedDirection": 180,
        "testDirection": 180,
        "avgFps": 60,
        "minFps": 58,
        "maxFps": 60,
        "totalFrames": 56,
        "frameRates": 60
      },
      {
        "trial_number": 83,
        "trial_index": 534,
        "rt": 1196,
        "correct": true,
        "response": "ArrowRight",
        "congruent": true,
        "gazeTowards": false,
        "gazeCondition": "away",
        "faceOnLeft": true,
        "impliedDirection": 0,
        "testDirection": 0,
        "avgFps": 60,
        "minFps": 58,
        "maxFps": 60,
        "totalFrames": 72,
        "frameRates": 60
      },
      {
        "trial_number": 84,
        "trial_index": 539,
        "rt": 1343,
        "correct": false,
        "response": "ArrowLeft",
        "congruent": true,
        "gazeTowards": false,
        "gazeCondition": "away",
        "faceOnLeft": true,
        "impliedDirection": 0,
        "testDirection": 0,
        "avgFps": 60,
        "minFps": 59,
        "maxFps": 60,
        "totalFrames": 80,
        "frameRates": 60
      },
      {
        "trial_number": 85,
        "trial_index": 544,
        "rt": 1465,
        "correct": false,
        "response": "ArrowLeft",
        "congruent": false,
        "gazeTowards": false,
        "gazeCondition": "away",
        "faceOnLeft": false,
        "impliedDirection": 180,
        "testDirection": 0,
        "avgFps": 60,
        "minFps": 58,
        "maxFps": 60,
        "totalFrames": 88,
        "frameRates": 60
      },
      {
        "trial_number": 86,
        "trial_index": 549,
        "rt": 1537,
        "correct": true,
        "response": "ArrowLeft",
        "congruent": true,
        "gazeTowards": true,
        "gazeCondition": "towards",
        "faceOnLeft": false,
        "impliedDirection": 180,
        "testDirection": 180,
        "avgFps": 60,
        "minFps": 57,
        "maxFps": 60,
        "totalFrames": 92,
        "frameRates": 60
      },
      {
        "trial_number": 87,
        "trial_index": 554,
        "rt": 954,
        "correct": true,
        "response": "ArrowRight",
        "congruent": true,
        "gazeTowards": true,
        "gazeCondition": "towards",
        "faceOnLeft": true,
        "impliedDirection": 0,
        "testDirection": 0,
        "avgFps": 60,
        "minFps": 58,
        "maxFps": 60,
        "totalFrames": 57,
        "frameRates": 60
      },
      {
        "trial_number": 88,
        "trial_index": 559,
        "rt": 1429,
        "correct": true,
        "response": "ArrowLeft",
        "congruent": true,
        "gazeTowards": false,
        "gazeCondition": "away",
        "faceOnLeft": false,
        "impliedDirection": 180,
        "testDirection": 180,
        "avgFps": 60,
        "minFps": 58,
        "maxFps": 60,
        "totalFrames": 86,
        "frameRates": 60
      },
      {
        "trial_number": 89,
        "trial_index": 564,
        "rt": 1374,
        "correct": false,
        "response": "ArrowRight",
        "congruent": true,
        "gazeTowards": false,
        "gazeCondition": "away",
        "faceOnLeft": false,
        "impliedDirection": 180,
        "testDirection": 180,
        "avgFps": 60,
        "minFps": 59,
        "maxFps": 60,
        "totalFrames": 82,
        "frameRates": 60
      },
      {
        "trial_number": 90,
        "trial_index": 570,
        "rt": 1086,
        "correct": true,
        "response": "ArrowLeft",
        "congruent": false,
        "gazeTowards": false,
        "gazeCondition": "away",
        "faceOnLeft": true,
        "impliedDirection": 0,
        "testDirection": 180,
        "avgFps": 60,
        "minFps": 58,
        "maxFps": 60,
        "totalFrames": 65,
        "frameRates": 60
      },
      {
        "trial_number": 91,
        "trial_index": 575,
        "rt": 1402,
        "correct": true,
        "response": "ArrowRight",
        "congruent": false,
        "gazeTowards": false,
        "gazeCondition": "away",
        "faceOnLeft": false,
        "impliedDirection": 180,
        "testDirection": 0,
        "avgFps": 60,
        "minFps": 58,
        "maxFps": 60,
        "totalFrames": 84,
        "frameRates": 60
      },
      {
        "trial_number": 92,
        "trial_index": 580,
        "rt": 1505,
        "correct": true,
        "response": "ArrowRight",
        "congruent": true,
        "gazeTowards": true,
        "gazeCondition": "towards",
        "faceOnLeft": true,
        "impliedDirection": 0,
        "testDirection": 0,
        "avgFps": 60,
        "minFps": 59,
        "maxFps": 60,
        "totalFrames": 90,
        "frameRates": 60
      },
      {
        "trial_number": 93,
        "trial_index": 585,
        "rt": 1392,
        "correct": false,
        "response": "ArrowLeft",
        "congruent": false,
        "gazeTowards": false,
        "gazeCondition": "away",
        "faceOnLeft": false,
        "impliedDirection": 180,
        "testDirection": 0,
        "avgFps": 60,
        "minFps": 59,
        "maxFps": 60,
        "totalFrames": 83,
        "frameRates": 60
      },
      {
        "trial_number": 94,
        "trial_index": 590,
        "rt": 1037,
        "correct": true,
        "response": "ArrowLeft",
        "congruent": false,
        "gazeTowards": true,
        "gazeCondition": "towards",
        "faceOnLeft": true,
        "impliedDirection": 0,
        "testDirection": 180,
        "avgFps": 60,
        "minFps": 59,
        "maxFps": 60,
        "totalFrames": 62,
        "frameRates": 60
      },
      {
        "trial_number": 95,
        "trial_index": 595,
        "rt": 1541,
        "correct": true,
        "response": "ArrowLeft",
        "congruent": false,
        "gazeTowards": true,
        "gazeCondition": "towards",
        "faceOnLeft": true,
        "impliedDirection": 0,
        "testDirection": 180,
        "avgFps": 60,
        "minFps": 57,
        "maxFps": 60,
        "totalFrames": 92,
        "frameRates": 60
      },
      {
        "trial_number": 96,
        "trial_index": 600,
        "rt": 1713,
        "correct": false,
        "response": "ArrowRight",
        "congruent": true,
        "gazeTowards": false,
        "gazeCondition": "away",
        "faceOnLeft": false,
        "impliedDirection": 180,
        "testDirection": 180,
        "avgFps": 60,
        "minFps": 59,
        "maxFps": 60,
        "totalFrames": 102,
        "frameRates": 60
      },
      {
        "trial_number": 97,
        "trial_index": 605,
        "rt": 1491,
        "correct": false,
        "response": "ArrowLeft",
        "congruent": false,
        "gazeTowards": false,
        "gazeCondition": "away",
        "faceOnLeft": false,
        "impliedDirection": 180,
        "testDirection": 0,
        "avgFps": 60,
        "minFps": 59,
        "maxFps": 60,
        "totalFrames": 89,
        "frameRates": 60
      },
      {
        "trial_number": 98,
        "trial_index": 610,
        "rt": 1233,
        "correct": true,
        "response": "ArrowRight",
        "congruent": false,
        "gazeTowards": true,
        "gazeCondition": "towards",
        "faceOnLeft": false,
        "impliedDirection": 180,
        "testDirection": 0,
        "avgFps": 59,
        "minFps": 30,
        "maxFps": 60,
        "totalFrames": 73,
        "frameRates": 59
      },
      {
        "trial_number": 99,
        "trial_index": 615,
        "rt": 1407,
        "correct": true,
        "response": "ArrowRight",
        "congruent": false,
        "gazeTowards": false,
        "gazeCondition": "away",
        "faceOnLeft": false,
        "impliedDirection": 180,
        "testDirection": 0,
        "avgFps": 60,
        "minFps": 59,
        "maxFps": 60,
        "totalFrames": 84,
        "frameRates": 60
      },
      {
        "trial_number": 100,
        "trial_index": 620,
        "rt": 1567,
        "correct": false,
        "response": "ArrowLeft",
        "congruent": false,
        "gazeTowards": false,
        "gazeCondition": "away",
        "faceOnLeft": false,
        "impliedDirection": 180,
        "testDirection": 0,
        "avgFps": 60,
        "minFps": 56,
        "maxFps": 60,
        "totalFrames": 94,
        "frameRates": 60
      },
      {
        "trial_number": 101,
        "trial_index": 625,
        "rt": 1416,
        "correct": false,
        "response": "ArrowRight",
        "congruent": true,
        "gazeTowards": false,
        "gazeCondition": "away",
        "faceOnLeft": false,
        "impliedDirection": 180,
        "testDirection": 180,
        "avgFps": 60,
        "minFps": 58,
        "maxFps": 60,
        "totalFrames": 85,
        "frameRates": 60
      },
      {
        "trial_number": 102,
        "trial_index": 630,
        "rt": 1543,
        "correct": true,
        "response": "ArrowRight",
        "congruent": true,
        "gazeTowards": false,
        "gazeCondition": "away",
        "faceOnLeft": true,
        "impliedDirection": 0,
        "testDirection": 0,
        "avgFps": 59,
        "minFps": 30,
        "maxFps": 60,
        "totalFrames": 92,
        "frameRates": 59
      },
      {
        "trial_number": 103,
        "trial_index": 635,
        "rt": 1624,
        "correct": false,
        "response": "ArrowLeft",
        "congruent": false,
        "gazeTowards": false,
        "gazeCondition": "away",
        "faceOnLeft": false,
        "impliedDirection": 180,
        "testDirection": 0,
        "avgFps": 60,
        "minFps": 59,
        "maxFps": 60,
        "totalFrames": 97,
        "frameRates": 60
      },
      {
        "trial_number": 104,
        "trial_index": 640,
        "rt": 1346,
        "correct": true,
        "response": "ArrowRight",
        "congruent": true,
        "gazeTowards": true,
        "gazeCondition": "towards",
        "faceOnLeft": true,
        "impliedDirection": 0,
        "testDirection": 0,
        "avgFps": 60,
        "minFps": 59,
        "maxFps": 60,
        "totalFrames": 81,
        "frameRates": 60
      },
      {
        "trial_number": 105,
        "trial_index": 645,
        "rt": 1670,
        "correct": false,
        "response": "ArrowLeft",
        "congruent": false,
        "gazeTowards": false,
        "gazeCondition": "away",
        "faceOnLeft": false,
        "impliedDirection": 180,
        "testDirection": 0,
        "avgFps": 60,
        "minFps": 60,
        "maxFps": 60,
        "totalFrames": 100,
        "frameRates": 60
      },
      {
        "trial_number": 106,
        "trial_index": 650,
        "rt": 1907,
        "correct": true,
        "response": "ArrowRight",
        "congruent": true,
        "gazeTowards": true,
        "gazeCondition": "towards",
        "faceOnLeft": true,
        "impliedDirection": 0,
        "testDirection": 0,
        "avgFps": 60,
        "minFps": 58,
        "maxFps": 60,
        "totalFrames": 114,
        "frameRates": 60
      },
      {
        "trial_number": 107,
        "trial_index": 655,
        "rt": 1188,
        "correct": true,
        "response": "ArrowLeft",
        "congruent": false,
        "gazeTowards": true,
        "gazeCondition": "towards",
        "faceOnLeft": true,
        "impliedDirection": 0,
        "testDirection": 180,
        "avgFps": 59,
        "minFps": 30,
        "maxFps": 60,
        "totalFrames": 70,
        "frameRates": 59
      },
      {
        "trial_number": 108,
        "trial_index": 660,
        "rt": 1263,
        "correct": true,
        "response": "ArrowRight",
        "congruent": true,
        "gazeTowards": true,
        "gazeCondition": "towards",
        "faceOnLeft": true,
        "impliedDirection": 0,
        "testDirection": 0,
        "avgFps": 60,
        "minFps": 60,
        "maxFps": 60,
        "totalFrames": 76,
        "frameRates": 60
      },
      {
        "trial_number": 109,
        "trial_index": 668,
        "rt": 1613,
        "correct": true,
        "response": "ArrowRight",
        "congruent": true,
        "gazeTowards": false,
        "gazeCondition": "away",
        "faceOnLeft": true,
        "impliedDirection": 0,
        "testDirection": 0,
        "avgFps": 59,
        "minFps": 30,
        "maxFps": 60,
        "totalFrames": 96,
        "frameRates": 59
      },
      {
        "trial_number": 110,
        "trial_index": 676,
        "rt": 1188,
        "correct": true,
        "response": "ArrowLeft",
        "congruent": true,
        "gazeTowards": true,
        "gazeCondition": "towards",
        "faceOnLeft": false,
        "impliedDirection": 180,
        "testDirection": 180,
        "avgFps": 60,
        "minFps": 60,
        "maxFps": 61,
        "totalFrames": 71,
        "frameRates": 60
      },
      {
        "trial_number": 111,
        "trial_index": 681,
        "rt": 1197,
        "correct": true,
        "response": "ArrowLeft",
        "congruent": false,
        "gazeTowards": true,
        "gazeCondition": "towards",
        "faceOnLeft": true,
        "impliedDirection": 0,
        "testDirection": 180,
        "avgFps": 60,
        "minFps": 60,
        "maxFps": 63,
        "totalFrames": 72,
        "frameRates": 60
      },
      {
        "trial_number": 112,
        "trial_index": 686,
        "rt": 1069,
        "correct": true,
        "response": "ArrowLeft",
        "congruent": true,
        "gazeTowards": false,
        "gazeCondition": "away",
        "faceOnLeft": false,
        "impliedDirection": 180,
        "testDirection": 180,
        "avgFps": 60,
        "minFps": 60,
        "maxFps": 60,
        "totalFrames": 64,
        "frameRates": 60
      },
      {
        "trial_number": 113,
        "trial_index": 691,
        "rt": 1365,
        "correct": true,
        "response": "ArrowLeft",
        "congruent": true,
        "gazeTowards": true,
        "gazeCondition": "towards",
        "faceOnLeft": false,
        "impliedDirection": 180,
        "testDirection": 180,
        "avgFps": 60,
        "minFps": 58,
        "maxFps": 60,
        "totalFrames": 82,
        "frameRates": 60
      },
      {
        "trial_number": 114,
        "trial_index": 696,
        "rt": 1898,
        "correct": false,
        "response": "ArrowRight",
        "congruent": true,
        "gazeTowards": true,
        "gazeCondition": "towards",
        "faceOnLeft": false,
        "impliedDirection": 180,
        "testDirection": 180,
        "avgFps": 60,
        "minFps": 58,
        "maxFps": 60,
        "totalFrames": 114,
        "frameRates": 60
      },
      {
        "trial_number": 115,
        "trial_index": 701,
        "rt": 1319,
        "correct": true,
        "response": "ArrowRight",
        "congruent": false,
        "gazeTowards": false,
        "gazeCondition": "away",
        "faceOnLeft": false,
        "impliedDirection": 180,
        "testDirection": 0,
        "avgFps": 60,
        "minFps": 58,
        "maxFps": 60,
        "totalFrames": 79,
        "frameRates": 60
      },
      {
        "trial_number": 116,
        "trial_index": 709,
        "rt": 1273,
        "correct": true,
        "response": "ArrowLeft",
        "congruent": true,
        "gazeTowards": true,
        "gazeCondition": "towards",
        "faceOnLeft": false,
        "impliedDirection": 180,
        "testDirection": 180,
        "avgFps": 60,
        "minFps": 58,
        "maxFps": 60,
        "totalFrames": 76,
        "frameRates": 60
      },
      {
        "trial_number": 117,
        "trial_index": 714,
        "rt": 1029,
        "correct": true,
        "response": "ArrowLeft",
        "congruent": true,
        "gazeTowards": true,
        "gazeCondition": "towards",
        "faceOnLeft": false,
        "impliedDirection": 180,
        "testDirection": 180,
        "avgFps": 60,
        "minFps": 58,
        "maxFps": 60,
        "totalFrames": 61,
        "frameRates": 60
      },
      {
        "trial_number": 118,
        "trial_index": 719,
        "rt": 1569,
        "correct": true,
        "response": "ArrowLeft",
        "congruent": false,
        "gazeTowards": true,
        "gazeCondition": "towards",
        "faceOnLeft": true,
        "impliedDirection": 0,
        "testDirection": 180,
        "avgFps": 60,
        "minFps": 58,
        "maxFps": 60,
        "totalFrames": 94,
        "frameRates": 60
      },
      {
        "trial_number": 119,
        "trial_index": 724,
        "rt": 1870,
        "correct": true,
        "response": "ArrowLeft",
        "congruent": true,
        "gazeTowards": true,
        "gazeCondition": "towards",
        "faceOnLeft": false,
        "impliedDirection": 180,
        "testDirection": 180,
        "avgFps": 59,
        "minFps": 30,
        "maxFps": 60,
        "totalFrames": 111,
        "frameRates": 59
      }
    ],
    "catch": {
      "total": 12,
      "correct": 12,
      "accuracy": 100,
      "meanRT": 762,
      "trials": [
        {
          "trial_number": 0,
          "trial_index": 174,
          "rt": 975,
          "correct": true,
          "colorTarget": "face",
          "gazeTowards": true,
          "gazeCondition": "towards",
          "faceOnLeft": false
        },
        {
          "trial_number": 1,
          "trial_index": 202,
          "rt": 1035,
          "correct": true,
          "colorTarget": "face",
          "gazeTowards": false,
          "gazeCondition": "away",
          "faceOnLeft": false
        },
        {
          "trial_number": 2,
          "trial_index": 235,
          "rt": 1038,
          "correct": true,
          "colorTarget": "tree",
          "gazeTowards": true,
          "gazeCondition": "towards",
          "faceOnLeft": false
        },
        {
          "trial_number": 3,
          "trial_index": 364,
          "rt": 693,
          "correct": true,
          "colorTarget": "tree",
          "gazeTowards": false,
          "gazeCondition": "away",
          "faceOnLeft": true
        },
        {
          "trial_number": 4,
          "trial_index": 458,
          "rt": 683,
          "correct": true,
          "colorTarget": "tree",
          "gazeTowards": false,
          "gazeCondition": "away",
          "faceOnLeft": false
        },
        {
          "trial_number": 5,
          "trial_index": 486,
          "rt": 733,
          "correct": true,
          "colorTarget": "face",
          "gazeTowards": true,
          "gazeCondition": "towards",
          "faceOnLeft": false
        },
        {
          "trial_number": 6,
          "trial_index": 494,
          "rt": 668,
          "correct": true,
          "colorTarget": "tree",
          "gazeTowards": true,
          "gazeCondition": "towards",
          "faceOnLeft": true
        },
        {
          "trial_number": 7,
          "trial_index": 502,
          "rt": 519,
          "correct": true,
          "colorTarget": "tree",
          "gazeTowards": true,
          "gazeCondition": "towards",
          "faceOnLeft": false
        },
        {
          "trial_number": 8,
          "trial_index": 530,
          "rt": 755,
          "correct": true,
          "colorTarget": "tree",
          "gazeTowards": true,
          "gazeCondition": "towards",
          "faceOnLeft": true
        },
        {
          "trial_number": 9,
          "trial_index": 664,
          "rt": 522,
          "correct": true,
          "colorTarget": "face",
          "gazeTowards": true,
          "gazeCondition": "towards",
          "faceOnLeft": false
        },
        {
          "trial_number": 10,
          "trial_index": 672,
          "rt": 743,
          "correct": true,
          "colorTarget": "face",
          "gazeTowards": false,
          "gazeCondition": "away",
          "faceOnLeft": false
        },
        {
          "trial_number": 11,
          "trial_index": 705,
          "rt": 781,
          "correct": true,
          "colorTarget": "face",
          "gazeTowards": false,
          "gazeCondition": "away",
          "faceOnLeft": true
        }
      ]
    },
    "practice": {
      "trials": [
        {
          "trial_number": 0,
          "rt": 1544,
          "correct": true,
          "direction": 0
        },
        {
          "trial_number": 1,
          "rt": null,
          "correct": false,
          "direction": 180
        },
        {
          "trial_number": 2,
          "rt": 1098,
          "correct": true,
          "direction": 0
        },
        {
          "trial_number": 3,
          "rt": 1632,
          "correct": true,
          "direction": 0
        },
        {
          "trial_number": 4,
          "rt": 1346,
          "correct": true,
          "direction": 180
        },
        {
          "trial_number": 5,
          "rt": 1352,
          "correct": true,
          "direction": 0
        },
        {
          "trial_number": 6,
          "rt": 1271,
          "correct": false,
          "direction": 0
        },
        {
          "trial_number": 7,
          "rt": 1580,
          "correct": true,
          "direction": 180
        },
        {
          "trial_number": 8,
          "rt": 1541,
          "correct": false,
          "direction": 0
        },
        {
          "trial_number": 9,
          "rt": 1736,
          "correct": false,
          "direction": 180
        },
        {
          "trial_number": 10,
          "rt": 937,
          "correct": true,
          "direction": 0
        },
        {
          "trial_number": 11,
          "rt": 1019,
          "correct": true,
          "direction": 180
        },
        {
          "trial_number": 12,
          "rt": 995,
          "correct": true,
          "direction": 0
        },
        {
          "trial_number": 13,
          "rt": 1173,
          "correct": true,
          "direction": 0
        },
        {
          "trial_number": 14,
          "rt": 1006,
          "correct": true,
          "direction": 180
        },
        {
          "trial_number": 15,
          "rt": null,
          "correct": false,
          "direction": 0
        },
        {
          "trial_number": 16,
          "rt": 860,
          "correct": true,
          "direction": 0
        },
        {
          "trial_number": 17,
          "rt": 820,
          "correct": true,
          "direction": 180
        },
        {
          "trial_number": 18,
          "rt": 894,
          "correct": true,
          "direction": 0
        },
        {
          "trial_number": 19,
          "rt": 888,
          "correct": true,
          "direction": 180
        }
      ],
      "meanRT": 1205,
      "accuracy": 75
    }
  }
}