{
  "experiment": "rdk-face-1",
  "UUID": "96aa25a7-d588-47ae-a4fd-9b65562c8af0",
  "data": {
    "session": {
      "experiment_version": "1.8.6",
      "treatment": "faces_towards_away_catch",
      "file_version": "1.8.6",
      "totalTrials": 120,
      "totalTrialsIncludingCatch": 132,
      "conditions": {
        "gazeTowardsCount": 60,
        "gazeAwayCount": 60,
        "gazeTowardsAccuracy": 100,
        "gazeAwayAccuracy": 97
      },
      "session_group": "default",
      "browserData": {
        "os": "Windows",
        "browser": "Firefox",
        "screenResolution": "1680x1050",
        "browserViewport": "1680x1050",
        "devicePixelRatio": 2,
        "colorDepth": 24,
        "hardwareConcurrency": 2,
        "deviceMemory": "Unknown",
        "gpuRenderer": "Unknown",
        "measuredRefreshRateHz": 55
      },
      "attention": {
        "visibilityEvents": [
          {
            "event": "focus",
            "state": "focused",
            "timestamp": 1772765279163
          }
        ]
      },
      "calibration": {
        "monitorWidthCm": 38,
        "viewingDistanceCm": 54,
        "pixelsPerDegree": 50
      },
      "parameters": {
        "coherence": 0.4,
        "apertureDeg": 5,
        "densityDotsPerDeg2": 40,
        "dotDiameterDeg": 0.035,
        "dotSpeedDegPerSec": 3,
        "lifetimeMs": 200,
        "fixationDurationMs": 1500,
        "faceDurationMs": 1500,
        "testDurationMs": 2000,
        "catchResponseMs": 3000
      },
      "prolific": {
        "prolificPid": "5b14161e30d562000155e871",
        "studyId": "",
        "sessionId": ""
      },
      "timing": {
        "startTime": "2026-03-06T02:47:59.163Z",
        "endTime": "2026-03-06T03:04:39.416Z",
        "totalElapsedTimeMs": 1000253
      }
    },
    "trials": [
      {
        "trial_number": 0,
        "trial_index": 131,
        "rt": 917,
        "correct": true,
        "response": "ArrowRight",
        "congruent": false,
        "gazeTowards": true,
        "gazeCondition": "towards",
        "faceOnLeft": false,
        "impliedDirection": 180,
        "testDirection": 0,
        "avgFps": 62,
        "minFps": 30,
        "maxFps": null,
        "totalFrames": 55,
        "frameRates": 62
      },
      {
        "trial_number": 1,
        "trial_index": 136,
        "rt": 883,
        "correct": true,
        "response": "ArrowRight",
        "congruent": false,
        "gazeTowards": true,
        "gazeCondition": "towards",
        "faceOnLeft": false,
        "impliedDirection": 180,
        "testDirection": 0,
        "avgFps": 61,
        "minFps": 30,
        "maxFps": null,
        "totalFrames": 54,
        "frameRates": 61
      },
      {
        "trial_number": 2,
        "trial_index": 141,
        "rt": 817,
        "correct": true,
        "response": "ArrowLeft",
        "congruent": false,
        "gazeTowards": false,
        "gazeCondition": "away",
        "faceOnLeft": true,
        "impliedDirection": 0,
        "testDirection": 180,
        "avgFps": 60,
        "minFps": 30,
        "maxFps": null,
        "totalFrames": 49,
        "frameRates": 60
      },
      {
        "trial_number": 3,
        "trial_index": 146,
        "rt": 900,
        "correct": true,
        "response": "ArrowLeft",
        "congruent": false,
        "gazeTowards": true,
        "gazeCondition": "towards",
        "faceOnLeft": true,
        "impliedDirection": 0,
        "testDirection": 180,
        "avgFps": 61,
        "minFps": 30,
        "maxFps": null,
        "totalFrames": 55,
        "frameRates": 61
      },
      {
        "trial_number": 4,
        "trial_index": 151,
        "rt": 800,
        "correct": true,
        "response": "ArrowRight",
        "congruent": true,
        "gazeTowards": true,
        "gazeCondition": "towards",
        "faceOnLeft": true,
        "impliedDirection": 0,
        "testDirection": 0,
        "avgFps": 61,
        "minFps": 60,
        "maxFps": null,
        "totalFrames": 48,
        "frameRates": 61
      },
      {
        "trial_number": 5,
        "trial_index": 156,
        "rt": 900,
        "correct": true,
        "response": "ArrowLeft",
        "congruent": false,
        "gazeTowards": false,
        "gazeCondition": "away",
        "faceOnLeft": true,
        "impliedDirection": 0,
        "testDirection": 180,
        "avgFps": 60,
        "minFps": 30,
        "maxFps": null,
        "totalFrames": 53,
        "frameRates": 60
      },
      {
        "trial_number": 6,
        "trial_index": 164,
        "rt": 983,
        "correct": true,
        "response": "ArrowRight",
        "congruent": true,
        "gazeTowards": false,
        "gazeCondition": "away",
        "faceOnLeft": true,
        "impliedDirection": 0,
        "testDirection": 0,
        "avgFps": 60,
        "minFps": 30,
        "maxFps": null,
        "totalFrames": 59,
        "frameRates": 60
      },
      {
        "trial_number": 7,
        "trial_index": 169,
        "rt": 1000,
        "correct": true,
        "response": "ArrowLeft",
        "congruent": false,
        "gazeTowards": false,
        "gazeCondition": "away",
        "faceOnLeft": true,
        "impliedDirection": 0,
        "testDirection": 180,
        "avgFps": 61,
        "minFps": 30,
        "maxFps": null,
        "totalFrames": 60,
        "frameRates": 61
      },
      {
        "trial_number": 8,
        "trial_index": 177,
        "rt": 1000,
        "correct": true,
        "response": "ArrowRight",
        "congruent": false,
        "gazeTowards": false,
        "gazeCondition": "away",
        "faceOnLeft": false,
        "impliedDirection": 180,
        "testDirection": 0,
        "avgFps": 60,
        "minFps": 30,
        "maxFps": null,
        "totalFrames": 60,
        "frameRates": 60
      },
      {
        "trial_number": 9,
        "trial_index": 182,
        "rt": 933,
        "correct": true,
        "response": "ArrowRight",
        "congruent": true,
        "gazeTowards": true,
        "gazeCondition": "towards",
        "faceOnLeft": true,
        "impliedDirection": 0,
        "testDirection": 0,
        "avgFps": 61,
        "minFps": 30,
        "maxFps": null,
        "totalFrames": 55,
        "frameRates": 61
      },
      {
        "trial_number": 10,
        "trial_index": 187,
        "rt": 700,
        "correct": true,
        "response": "ArrowLeft",
        "congruent": true,
        "gazeTowards": true,
        "gazeCondition": "towards",
        "faceOnLeft": false,
        "impliedDirection": 180,
        "testDirection": 180,
        "avgFps": 63,
        "minFps": 30,
        "maxFps": null,
        "totalFrames": 42,
        "frameRates": 63
      },
      {
        "trial_number": 11,
        "trial_index": 192,
        "rt": 967,
        "correct": true,
        "response": "ArrowLeft",
        "congruent": true,
        "gazeTowards": false,
        "gazeCondition": "away",
        "faceOnLeft": false,
        "impliedDirection": 180,
        "testDirection": 180,
        "avgFps": 61,
        "minFps": 30,
        "maxFps": null,
        "totalFrames": 59,
        "frameRates": 61
      },
      {
        "trial_number": 12,
        "trial_index": 197,
        "rt": 817,
        "correct": true,
        "response": "ArrowLeft",
        "congruent": true,
        "gazeTowards": false,
        "gazeCondition": "away",
        "faceOnLeft": false,
        "impliedDirection": 180,
        "testDirection": 180,
        "avgFps": 60,
        "minFps": 30,
        "maxFps": null,
        "totalFrames": 49,
        "frameRates": 60
      },
      {
        "trial_number": 13,
        "trial_index": 202,
        "rt": 833,
        "correct": true,
        "response": "ArrowLeft",
        "congruent": false,
        "gazeTowards": false,
        "gazeCondition": "away",
        "faceOnLeft": true,
        "impliedDirection": 0,
        "testDirection": 180,
        "avgFps": 61,
        "minFps": 30,
        "maxFps": null,
        "totalFrames": 51,
        "frameRates": 61
      },
      {
        "trial_number": 14,
        "trial_index": 210,
        "rt": 1317,
        "correct": true,
        "response": "ArrowRight",
        "congruent": false,
        "gazeTowards": true,
        "gazeCondition": "towards",
        "faceOnLeft": false,
        "impliedDirection": 180,
        "testDirection": 0,
        "avgFps": 61,
        "minFps": 30,
        "maxFps": null,
        "totalFrames": 79,
        "frameRates": 61
      },
      {
        "trial_number": 15,
        "trial_index": 215,
        "rt": 767,
        "correct": true,
        "response": "ArrowLeft",
        "congruent": true,
        "gazeTowards": true,
        "gazeCondition": "towards",
        "faceOnLeft": false,
        "impliedDirection": 180,
        "testDirection": 180,
        "avgFps": 60,
        "minFps": 30,
        "maxFps": null,
        "totalFrames": 46,
        "frameRates": 60
      },
      {
        "trial_number": 16,
        "trial_index": 220,
        "rt": 583,
        "correct": true,
        "response": "ArrowRight",
        "congruent": false,
        "gazeTowards": true,
        "gazeCondition": "towards",
        "faceOnLeft": false,
        "impliedDirection": 180,
        "testDirection": 0,
        "avgFps": 62,
        "minFps": 30,
        "maxFps": null,
        "totalFrames": 35,
        "frameRates": 62
      },
      {
        "trial_number": 17,
        "trial_index": 228,
        "rt": 633,
        "correct": true,
        "response": "ArrowRight",
        "congruent": true,
        "gazeTowards": true,
        "gazeCondition": "towards",
        "faceOnLeft": true,
        "impliedDirection": 0,
        "testDirection": 0,
        "avgFps": 58,
        "minFps": 30,
        "maxFps": null,
        "totalFrames": 37,
        "frameRates": 58
      },
      {
        "trial_number": 18,
        "trial_index": 233,
        "rt": 583,
        "correct": true,
        "response": "ArrowLeft",
        "congruent": false,
        "gazeTowards": false,
        "gazeCondition": "away",
        "faceOnLeft": true,
        "impliedDirection": 0,
        "testDirection": 180,
        "avgFps": 62,
        "minFps": 30,
        "maxFps": null,
        "totalFrames": 36,
        "frameRates": 62
      },
      {
        "trial_number": 19,
        "trial_index": 238,
        "rt": 700,
        "correct": true,
        "response": "ArrowLeft",
        "congruent": false,
        "gazeTowards": true,
        "gazeCondition": "towards",
        "faceOnLeft": true,
        "impliedDirection": 0,
        "testDirection": 180,
        "avgFps": 61,
        "minFps": 30,
        "maxFps": null,
        "totalFrames": 41,
        "frameRates": 61
      },
      {
        "trial_number": 20,
        "trial_index": 243,
        "rt": 1017,
        "correct": true,
        "response": "ArrowLeft",
        "congruent": true,
        "gazeTowards": false,
        "gazeCondition": "away",
        "faceOnLeft": false,
        "impliedDirection": 180,
        "testDirection": 180,
        "avgFps": 61,
        "minFps": 30,
        "maxFps": null,
        "totalFrames": 61,
        "frameRates": 61
      },
      {
        "trial_number": 21,
        "trial_index": 248,
        "rt": 867,
        "correct": true,
        "response": "ArrowRight",
        "congruent": false,
        "gazeTowards": false,
        "gazeCondition": "away",
        "faceOnLeft": false,
        "impliedDirection": 180,
        "testDirection": 0,
        "avgFps": 60,
        "minFps": 30,
        "maxFps": null,
        "totalFrames": 52,
        "frameRates": 60
      },
      {
        "trial_number": 22,
        "trial_index": 253,
        "rt": 600,
        "correct": true,
        "response": "ArrowLeft",
        "congruent": true,
        "gazeTowards": true,
        "gazeCondition": "towards",
        "faceOnLeft": false,
        "impliedDirection": 180,
        "testDirection": 180,
        "avgFps": 60,
        "minFps": 30,
        "maxFps": null,
        "totalFrames": 36,
        "frameRates": 60
      },
      {
        "trial_number": 23,
        "trial_index": 261,
        "rt": 617,
        "correct": true,
        "response": "ArrowLeft",
        "congruent": true,
        "gazeTowards": true,
        "gazeCondition": "towards",
        "faceOnLeft": false,
        "impliedDirection": 180,
        "testDirection": 180,
        "avgFps": 58,
        "minFps": 30,
        "maxFps": null,
        "totalFrames": 37,
        "frameRates": 58
      },
      {
        "trial_number": 24,
        "trial_index": 266,
        "rt": 767,
        "correct": true,
        "response": "ArrowRight",
        "congruent": true,
        "gazeTowards": false,
        "gazeCondition": "away",
        "faceOnLeft": true,
        "impliedDirection": 0,
        "testDirection": 0,
        "avgFps": 61,
        "minFps": 30,
        "maxFps": null,
        "totalFrames": 47,
        "frameRates": 61
      },
      {
        "trial_number": 25,
        "trial_index": 274,
        "rt": 733,
        "correct": true,
        "response": "ArrowLeft",
        "congruent": false,
        "gazeTowards": true,
        "gazeCondition": "towards",
        "faceOnLeft": true,
        "impliedDirection": 0,
        "testDirection": 180,
        "avgFps": 61,
        "minFps": 30,
        "maxFps": null,
        "totalFrames": 44,
        "frameRates": 61
      },
      {
        "trial_number": 26,
        "trial_index": 279,
        "rt": 617,
        "correct": true,
        "response": "ArrowRight",
        "congruent": true,
        "gazeTowards": true,
        "gazeCondition": "towards",
        "faceOnLeft": true,
        "impliedDirection": 0,
        "testDirection": 0,
        "avgFps": 60,
        "minFps": 30,
        "maxFps": null,
        "totalFrames": 38,
        "frameRates": 60
      },
      {
        "trial_number": 27,
        "trial_index": 285,
        "rt": 667,
        "correct": true,
        "response": "ArrowLeft",
        "congruent": false,
        "gazeTowards": true,
        "gazeCondition": "towards",
        "faceOnLeft": true,
        "impliedDirection": 0,
        "testDirection": 180,
        "avgFps": 60,
        "minFps": 30,
        "maxFps": null,
        "totalFrames": 41,
        "frameRates": 60
      },
      {
        "trial_number": 28,
        "trial_index": 290,
        "rt": 633,
        "correct": true,
        "response": "ArrowRight",
        "congruent": false,
        "gazeTowards": false,
        "gazeCondition": "away",
        "faceOnLeft": false,
        "impliedDirection": 180,
        "testDirection": 0,
        "avgFps": 60,
        "minFps": 30,
        "maxFps": null,
        "totalFrames": 40,
        "frameRates": 60
      },
      {
        "trial_number": 29,
        "trial_index": 295,
        "rt": 733,
        "correct": true,
        "response": "ArrowLeft",
        "congruent": false,
        "gazeTowards": true,
        "gazeCondition": "towards",
        "faceOnLeft": true,
        "impliedDirection": 0,
        "testDirection": 180,
        "avgFps": 61,
        "minFps": 30,
        "maxFps": null,
        "totalFrames": 45,
        "frameRates": 61
      },
      {
        "trial_number": 30,
        "trial_index": 300,
        "rt": 633,
        "correct": true,
        "response": "ArrowLeft",
        "congruent": false,
        "gazeTowards": false,
        "gazeCondition": "away",
        "faceOnLeft": true,
        "impliedDirection": 0,
        "testDirection": 180,
        "avgFps": 62,
        "minFps": 30,
        "maxFps": null,
        "totalFrames": 37,
        "frameRates": 62
      },
      {
        "trial_number": 31,
        "trial_index": 305,
        "rt": 700,
        "correct": true,
        "response": "ArrowLeft",
        "congruent": false,
        "gazeTowards": false,
        "gazeCondition": "away",
        "faceOnLeft": true,
        "impliedDirection": 0,
        "testDirection": 180,
        "avgFps": 60,
        "minFps": 30,
        "maxFps": null,
        "totalFrames": 42,
        "frameRates": 60
      },
      {
        "trial_number": 32,
        "trial_index": 310,
        "rt": 733,
        "correct": true,
        "response": "ArrowRight",
        "congruent": false,
        "gazeTowards": false,
        "gazeCondition": "away",
        "faceOnLeft": false,
        "impliedDirection": 180,
        "testDirection": 0,
        "avgFps": 60,
        "minFps": 30,
        "maxFps": null,
        "totalFrames": 44,
        "frameRates": 60
      },
      {
        "trial_number": 33,
        "trial_index": 315,
        "rt": 617,
        "correct": true,
        "response": "ArrowLeft",
        "congruent": false,
        "gazeTowards": false,
        "gazeCondition": "away",
        "faceOnLeft": true,
        "impliedDirection": 0,
        "testDirection": 180,
        "avgFps": 60,
        "minFps": 30,
        "maxFps": null,
        "totalFrames": 37,
        "frameRates": 60
      },
      {
        "trial_number": 34,
        "trial_index": 320,
        "rt": 783,
        "correct": true,
        "response": "ArrowRight",
        "congruent": false,
        "gazeTowards": false,
        "gazeCondition": "away",
        "faceOnLeft": false,
        "impliedDirection": 180,
        "testDirection": 0,
        "avgFps": 60,
        "minFps": 30,
        "maxFps": null,
        "totalFrames": 47,
        "frameRates": 60
      },
      {
        "trial_number": 35,
        "trial_index": 325,
        "rt": 767,
        "correct": true,
        "response": "ArrowLeft",
        "congruent": false,
        "gazeTowards": false,
        "gazeCondition": "away",
        "faceOnLeft": true,
        "impliedDirection": 0,
        "testDirection": 180,
        "avgFps": 60,
        "minFps": 30,
        "maxFps": null,
        "totalFrames": 46,
        "frameRates": 60
      },
      {
        "trial_number": 36,
        "trial_index": 330,
        "rt": 933,
        "correct": true,
        "response": "ArrowRight",
        "congruent": true,
        "gazeTowards": true,
        "gazeCondition": "towards",
        "faceOnLeft": true,
        "impliedDirection": 0,
        "testDirection": 0,
        "avgFps": 60,
        "minFps": 30,
        "maxFps": null,
        "totalFrames": 56,
        "frameRates": 60
      },
      {
        "trial_number": 37,
        "trial_index": 335,
        "rt": 933,
        "correct": true,
        "response": "ArrowRight",
        "congruent": true,
        "gazeTowards": true,
        "gazeCondition": "towards",
        "faceOnLeft": true,
        "impliedDirection": 0,
        "testDirection": 0,
        "avgFps": 62,
        "minFps": 30,
        "maxFps": null,
        "totalFrames": 55,
        "frameRates": 62
      },
      {
        "trial_number": 38,
        "trial_index": 340,
        "rt": 933,
        "correct": true,
        "response": "ArrowRight",
        "congruent": true,
        "gazeTowards": true,
        "gazeCondition": "towards",
        "faceOnLeft": true,
        "impliedDirection": 0,
        "testDirection": 0,
        "avgFps": 60,
        "minFps": 30,
        "maxFps": null,
        "totalFrames": 55,
        "frameRates": 60
      },
      {
        "trial_number": 39,
        "trial_index": 345,
        "rt": 783,
        "correct": true,
        "response": "ArrowRight",
        "congruent": true,
        "gazeTowards": true,
        "gazeCondition": "towards",
        "faceOnLeft": true,
        "impliedDirection": 0,
        "testDirection": 0,
        "avgFps": 61,
        "minFps": 30,
        "maxFps": null,
        "totalFrames": 47,
        "frameRates": 61
      },
      {
        "trial_number": 40,
        "trial_index": 350,
        "rt": 800,
        "correct": true,
        "response": "ArrowLeft",
        "congruent": false,
        "gazeTowards": true,
        "gazeCondition": "towards",
        "faceOnLeft": true,
        "impliedDirection": 0,
        "testDirection": 180,
        "avgFps": 63,
        "minFps": 30,
        "maxFps": null,
        "totalFrames": 49,
        "frameRates": 63
      },
      {
        "trial_number": 41,
        "trial_index": 355,
        "rt": 617,
        "correct": true,
        "response": "ArrowLeft",
        "congruent": true,
        "gazeTowards": false,
        "gazeCondition": "away",
        "faceOnLeft": false,
        "impliedDirection": 180,
        "testDirection": 180,
        "avgFps": 60,
        "minFps": 30,
        "maxFps": null,
        "totalFrames": 36,
        "frameRates": 60
      },
      {
        "trial_number": 42,
        "trial_index": 360,
        "rt": 700,
        "correct": true,
        "response": "ArrowRight",
        "congruent": false,
        "gazeTowards": false,
        "gazeCondition": "away",
        "faceOnLeft": false,
        "impliedDirection": 180,
        "testDirection": 0,
        "avgFps": 61,
        "minFps": 30,
        "maxFps": null,
        "totalFrames": 43,
        "frameRates": 61
      },
      {
        "trial_number": 43,
        "trial_index": 365,
        "rt": 867,
        "correct": true,
        "response": "ArrowLeft",
        "congruent": true,
        "gazeTowards": false,
        "gazeCondition": "away",
        "faceOnLeft": false,
        "impliedDirection": 180,
        "testDirection": 180,
        "avgFps": 61,
        "minFps": 30,
        "maxFps": null,
        "totalFrames": 52,
        "frameRates": 61
      },
      {
        "trial_number": 44,
        "trial_index": 370,
        "rt": 733,
        "correct": true,
        "response": "ArrowLeft",
        "congruent": false,
        "gazeTowards": true,
        "gazeCondition": "towards",
        "faceOnLeft": true,
        "impliedDirection": 0,
        "testDirection": 180,
        "avgFps": 60,
        "minFps": 30,
        "maxFps": null,
        "totalFrames": 43,
        "frameRates": 60
      },
      {
        "trial_number": 45,
        "trial_index": 375,
        "rt": 717,
        "correct": true,
        "response": "ArrowRight",
        "congruent": false,
        "gazeTowards": true,
        "gazeCondition": "towards",
        "faceOnLeft": false,
        "impliedDirection": 180,
        "testDirection": 0,
        "avgFps": 61,
        "minFps": 30,
        "maxFps": null,
        "totalFrames": 43,
        "frameRates": 61
      },
      {
        "trial_number": 46,
        "trial_index": 380,
        "rt": 800,
        "correct": true,
        "response": "ArrowRight",
        "congruent": false,
        "gazeTowards": true,
        "gazeCondition": "towards",
        "faceOnLeft": false,
        "impliedDirection": 180,
        "testDirection": 0,
        "avgFps": 60,
        "minFps": 30,
        "maxFps": null,
        "totalFrames": 48,
        "frameRates": 60
      },
      {
        "trial_number": 47,
        "trial_index": 385,
        "rt": 883,
        "correct": true,
        "response": "ArrowLeft",
        "congruent": true,
        "gazeTowards": true,
        "gazeCondition": "towards",
        "faceOnLeft": false,
        "impliedDirection": 180,
        "testDirection": 180,
        "avgFps": 61,
        "minFps": 30,
        "maxFps": null,
        "totalFrames": 53,
        "frameRates": 61
      },
      {
        "trial_number": 48,
        "trial_index": 390,
        "rt": 650,
        "correct": true,
        "response": "ArrowRight",
        "congruent": true,
        "gazeTowards": true,
        "gazeCondition": "towards",
        "faceOnLeft": true,
        "impliedDirection": 0,
        "testDirection": 0,
        "avgFps": 60,
        "minFps": 30,
        "maxFps": null,
        "totalFrames": 40,
        "frameRates": 60
      },
      {
        "trial_number": 49,
        "trial_index": 395,
        "rt": 817,
        "correct": true,
        "response": "ArrowLeft",
        "congruent": false,
        "gazeTowards": true,
        "gazeCondition": "towards",
        "faceOnLeft": true,
        "impliedDirection": 0,
        "testDirection": 180,
        "avgFps": 61,
        "minFps": 30,
        "maxFps": null,
        "totalFrames": 48,
        "frameRates": 61
      },
      {
        "trial_number": 50,
        "trial_index": 400,
        "rt": 917,
        "correct": true,
        "response": "ArrowLeft",
        "congruent": false,
        "gazeTowards": false,
        "gazeCondition": "away",
        "faceOnLeft": true,
        "impliedDirection": 0,
        "testDirection": 180,
        "avgFps": 60,
        "minFps": 30,
        "maxFps": null,
        "totalFrames": 55,
        "frameRates": 60
      },
      {
        "trial_number": 51,
        "trial_index": 405,
        "rt": 900,
        "correct": true,
        "response": "ArrowLeft",
        "congruent": true,
        "gazeTowards": true,
        "gazeCondition": "towards",
        "faceOnLeft": false,
        "impliedDirection": 180,
        "testDirection": 180,
        "avgFps": 60,
        "minFps": 30,
        "maxFps": null,
        "totalFrames": 55,
        "frameRates": 60
      },
      {
        "trial_number": 52,
        "trial_index": 410,
        "rt": 783,
        "correct": true,
        "response": "ArrowLeft",
        "congruent": true,
        "gazeTowards": false,
        "gazeCondition": "away",
        "faceOnLeft": false,
        "impliedDirection": 180,
        "testDirection": 180,
        "avgFps": 60,
        "minFps": 30,
        "maxFps": null,
        "totalFrames": 47,
        "frameRates": 60
      },
      {
        "trial_number": 53,
        "trial_index": 418,
        "rt": 1000,
        "correct": true,
        "response": "ArrowRight",
        "congruent": false,
        "gazeTowards": false,
        "gazeCondition": "away",
        "faceOnLeft": false,
        "impliedDirection": 180,
        "testDirection": 0,
        "avgFps": 61,
        "minFps": 30,
        "maxFps": null,
        "totalFrames": 60,
        "frameRates": 61
      },
      {
        "trial_number": 54,
        "trial_index": 423,
        "rt": 933,
        "correct": true,
        "response": "ArrowLeft",
        "congruent": true,
        "gazeTowards": false,
        "gazeCondition": "away",
        "faceOnLeft": false,
        "impliedDirection": 180,
        "testDirection": 180,
        "avgFps": 60,
        "minFps": 30,
        "maxFps": null,
        "totalFrames": 56,
        "frameRates": 60
      },
      {
        "trial_number": 55,
        "trial_index": 428,
        "rt": 917,
        "correct": true,
        "response": "ArrowRight",
        "congruent": true,
        "gazeTowards": true,
        "gazeCondition": "towards",
        "faceOnLeft": true,
        "impliedDirection": 0,
        "testDirection": 0,
        "avgFps": 61,
        "minFps": 30,
        "maxFps": null,
        "totalFrames": 56,
        "frameRates": 61
      },
      {
        "trial_number": 56,
        "trial_index": 436,
        "rt": 850,
        "correct": true,
        "response": "ArrowRight",
        "congruent": false,
        "gazeTowards": true,
        "gazeCondition": "towards",
        "faceOnLeft": false,
        "impliedDirection": 180,
        "testDirection": 0,
        "avgFps": 61,
        "minFps": 30,
        "maxFps": null,
        "totalFrames": 51,
        "frameRates": 61
      },
      {
        "trial_number": 57,
        "trial_index": 441,
        "rt": 900,
        "correct": true,
        "response": "ArrowLeft",
        "congruent": true,
        "gazeTowards": true,
        "gazeCondition": "towards",
        "faceOnLeft": false,
        "impliedDirection": 180,
        "testDirection": 180,
        "avgFps": 61,
        "minFps": 30,
        "maxFps": null,
        "totalFrames": 54,
        "frameRates": 61
      },
      {
        "trial_number": 58,
        "trial_index": 447,
        "rt": 817,
        "correct": true,
        "response": "ArrowRight",
        "congruent": false,
        "gazeTowards": true,
        "gazeCondition": "towards",
        "faceOnLeft": false,
        "impliedDirection": 180,
        "testDirection": 0,
        "avgFps": 60,
        "minFps": 30,
        "maxFps": null,
        "totalFrames": 49,
        "frameRates": 60
      },
      {
        "trial_number": 59,
        "trial_index": 452,
        "rt": 867,
        "correct": true,
        "response": "ArrowLeft",
        "congruent": false,
        "gazeTowards": false,
        "gazeCondition": "away",
        "faceOnLeft": true,
        "impliedDirection": 0,
        "testDirection": 180,
        "avgFps": 61,
        "minFps": 30,
        "maxFps": null,
        "totalFrames": 52,
        "frameRates": 61
      },
      {
        "trial_number": 60,
        "trial_index": 457,
        "rt": 750,
        "correct": true,
        "response": "ArrowLeft",
        "congruent": true,
        "gazeTowards": false,
        "gazeCondition": "away",
        "faceOnLeft": false,
        "impliedDirection": 180,
        "testDirection": 180,
        "avgFps": 61,
        "minFps": 30,
        "maxFps": null,
        "totalFrames": 46,
        "frameRates": 61
      },
      {
        "trial_number": 61,
        "trial_index": 462,
        "rt": 667,
        "correct": true,
        "response": "ArrowRight",
        "congruent": true,
        "gazeTowards": true,
        "gazeCondition": "towards",
        "faceOnLeft": true,
        "impliedDirection": 0,
        "testDirection": 0,
        "avgFps": 58,
        "minFps": 30,
        "maxFps": null,
        "totalFrames": 39,
        "frameRates": 58
      },
      {
        "trial_number": 62,
        "trial_index": 467,
        "rt": 817,
        "correct": true,
        "response": "ArrowLeft",
        "congruent": true,
        "gazeTowards": false,
        "gazeCondition": "away",
        "faceOnLeft": false,
        "impliedDirection": 180,
        "testDirection": 180,
        "avgFps": 60,
        "minFps": 30,
        "maxFps": null,
        "totalFrames": 48,
        "frameRates": 60
      },
      {
        "trial_number": 63,
        "trial_index": 472,
        "rt": 683,
        "correct": true,
        "response": "ArrowRight",
        "congruent": false,
        "gazeTowards": true,
        "gazeCondition": "towards",
        "faceOnLeft": false,
        "impliedDirection": 180,
        "testDirection": 0,
        "avgFps": 60,
        "minFps": 30,
        "maxFps": null,
        "totalFrames": 41,
        "frameRates": 60
      },
      {
        "trial_number": 64,
        "trial_index": 477,
        "rt": 917,
        "correct": true,
        "response": "ArrowLeft",
        "congruent": false,
        "gazeTowards": true,
        "gazeCondition": "towards",
        "faceOnLeft": true,
        "impliedDirection": 0,
        "testDirection": 180,
        "avgFps": 61,
        "minFps": 30,
        "maxFps": null,
        "totalFrames": 55,
        "frameRates": 61
      },
      {
        "trial_number": 65,
        "trial_index": 482,
        "rt": 717,
        "correct": true,
        "response": "ArrowRight",
        "congruent": true,
        "gazeTowards": false,
        "gazeCondition": "away",
        "faceOnLeft": true,
        "impliedDirection": 0,
        "testDirection": 0,
        "avgFps": 59,
        "minFps": 30,
        "maxFps": null,
        "totalFrames": 43,
        "frameRates": 59
      },
      {
        "trial_number": 66,
        "trial_index": 487,
        "rt": 800,
        "correct": true,
        "response": "ArrowLeft",
        "congruent": false,
        "gazeTowards": false,
        "gazeCondition": "away",
        "faceOnLeft": true,
        "impliedDirection": 0,
        "testDirection": 180,
        "avgFps": 61,
        "minFps": 30,
        "maxFps": null,
        "totalFrames": 48,
        "frameRates": 61
      },
      {
        "trial_number": 67,
        "trial_index": 492,
        "rt": 900,
        "correct": true,
        "response": "ArrowRight",
        "congruent": true,
        "gazeTowards": false,
        "gazeCondition": "away",
        "faceOnLeft": true,
        "impliedDirection": 0,
        "testDirection": 0,
        "avgFps": 61,
        "minFps": 30,
        "maxFps": null,
        "totalFrames": 53,
        "frameRates": 61
      },
      {
        "trial_number": 68,
        "trial_index": 497,
        "rt": 850,
        "correct": true,
        "response": "ArrowLeft",
        "congruent": false,
        "gazeTowards": true,
        "gazeCondition": "towards",
        "faceOnLeft": true,
        "impliedDirection": 0,
        "testDirection": 180,
        "avgFps": 59,
        "minFps": 30,
        "maxFps": null,
        "totalFrames": 51,
        "frameRates": 59
      },
      {
        "trial_number": 69,
        "trial_index": 502,
        "rt": 667,
        "correct": true,
        "response": "ArrowRight",
        "congruent": false,
        "gazeTowards": true,
        "gazeCondition": "towards",
        "faceOnLeft": false,
        "impliedDirection": 180,
        "testDirection": 0,
        "avgFps": 60,
        "minFps": 30,
        "maxFps": null,
        "totalFrames": 40,
        "frameRates": 60
      },
      {
        "trial_number": 70,
        "trial_index": 507,
        "rt": 767,
        "correct": true,
        "response": "ArrowRight",
        "congruent": false,
        "gazeTowards": true,
        "gazeCondition": "towards",
        "faceOnLeft": false,
        "impliedDirection": 180,
        "testDirection": 0,
        "avgFps": 61,
        "minFps": 30,
        "maxFps": null,
        "totalFrames": 44,
        "frameRates": 61
      },
      {
        "trial_number": 71,
        "trial_index": 512,
        "rt": 850,
        "correct": true,
        "response": "ArrowRight",
        "congruent": false,
        "gazeTowards": true,
        "gazeCondition": "towards",
        "faceOnLeft": false,
        "impliedDirection": 180,
        "testDirection": 0,
        "avgFps": 60,
        "minFps": 30,
        "maxFps": null,
        "totalFrames": 51,
        "frameRates": 60
      },
      {
        "trial_number": 72,
        "trial_index": 517,
        "rt": 800,
        "correct": true,
        "response": "ArrowRight",
        "congruent": true,
        "gazeTowards": false,
        "gazeCondition": "away",
        "faceOnLeft": true,
        "impliedDirection": 0,
        "testDirection": 0,
        "avgFps": 60,
        "minFps": 30,
        "maxFps": null,
        "totalFrames": 48,
        "frameRates": 60
      },
      {
        "trial_number": 73,
        "trial_index": 522,
        "rt": 1033,
        "correct": true,
        "response": "ArrowRight",
        "congruent": false,
        "gazeTowards": true,
        "gazeCondition": "towards",
        "faceOnLeft": false,
        "impliedDirection": 180,
        "testDirection": 0,
        "avgFps": 60,
        "minFps": 30,
        "maxFps": null,
        "totalFrames": 62,
        "frameRates": 60
      },
      {
        "trial_number": 74,
        "trial_index": 527,
        "rt": 900,
        "correct": true,
        "response": "ArrowLeft",
        "congruent": false,
        "gazeTowards": false,
        "gazeCondition": "away",
        "faceOnLeft": true,
        "impliedDirection": 0,
        "testDirection": 180,
        "avgFps": 60,
        "minFps": 30,
        "maxFps": null,
        "totalFrames": 54,
        "frameRates": 60
      },
      {
        "trial_number": 75,
        "trial_index": 532,
        "rt": 1017,
        "correct": true,
        "response": "ArrowRight",
        "congruent": true,
        "gazeTowards": true,
        "gazeCondition": "towards",
        "faceOnLeft": true,
        "impliedDirection": 0,
        "testDirection": 0,
        "avgFps": 60,
        "minFps": 30,
        "maxFps": null,
        "totalFrames": 61,
        "frameRates": 60
      },
      {
        "trial_number": 76,
        "trial_index": 540,
        "rt": 1050,
        "correct": true,
        "response": "ArrowRight",
        "congruent": false,
        "gazeTowards": true,
        "gazeCondition": "towards",
        "faceOnLeft": false,
        "impliedDirection": 180,
        "testDirection": 0,
        "avgFps": 60,
        "minFps": 30,
        "maxFps": null,
        "totalFrames": 62,
        "frameRates": 60
      },
      {
        "trial_number": 77,
        "trial_index": 545,
        "rt": 783,
        "correct": true,
        "response": "ArrowRight",
        "congruent": true,
        "gazeTowards": false,
        "gazeCondition": "away",
        "faceOnLeft": true,
        "impliedDirection": 0,
        "testDirection": 0,
        "avgFps": 60,
        "minFps": 30,
        "maxFps": null,
        "totalFrames": 47,
        "frameRates": 60
      },
      {
        "trial_number": 78,
        "trial_index": 550,
        "rt": 933,
        "correct": false,
        "response": "ArrowLeft",
        "congruent": true,
        "gazeTowards": false,
        "gazeCondition": "away",
        "faceOnLeft": true,
        "impliedDirection": 0,
        "testDirection": 0,
        "avgFps": 59,
        "minFps": 30,
        "maxFps": null,
        "totalFrames": 56,
        "frameRates": 59
      },
      {
        "trial_number": 79,
        "trial_index": 555,
        "rt": 783,
        "correct": true,
        "response": "ArrowRight",
        "congruent": true,
        "gazeTowards": true,
        "gazeCondition": "towards",
        "faceOnLeft": true,
        "impliedDirection": 0,
        "testDirection": 0,
        "avgFps": 60,
        "minFps": 30,
        "maxFps": null,
        "totalFrames": 48,
        "frameRates": 60
      },
      {
        "trial_number": 80,
        "trial_index": 560,
        "rt": 783,
        "correct": true,
        "response": "ArrowLeft",
        "congruent": true,
        "gazeTowards": false,
        "gazeCondition": "away",
        "faceOnLeft": false,
        "impliedDirection": 180,
        "testDirection": 180,
        "avgFps": 61,
        "minFps": 30,
        "maxFps": null,
        "totalFrames": 47,
        "frameRates": 61
      },
      {
        "trial_number": 81,
        "trial_index": 565,
        "rt": 967,
        "correct": true,
        "response": "ArrowRight",
        "congruent": false,
        "gazeTowards": true,
        "gazeCondition": "towards",
        "faceOnLeft": false,
        "impliedDirection": 180,
        "testDirection": 0,
        "avgFps": 60,
        "minFps": 30,
        "maxFps": null,
        "totalFrames": 59,
        "frameRates": 60
      },
      {
        "trial_number": 82,
        "trial_index": 570,
        "rt": 1017,
        "correct": true,
        "response": "ArrowLeft",
        "congruent": true,
        "gazeTowards": false,
        "gazeCondition": "away",
        "faceOnLeft": false,
        "impliedDirection": 180,
        "testDirection": 180,
        "avgFps": 61,
        "minFps": 30,
        "maxFps": null,
        "totalFrames": 61,
        "frameRates": 61
      },
      {
        "trial_number": 83,
        "trial_index": 575,
        "rt": 683,
        "correct": true,
        "response": "ArrowLeft",
        "congruent": false,
        "gazeTowards": true,
        "gazeCondition": "towards",
        "faceOnLeft": true,
        "impliedDirection": 0,
        "testDirection": 180,
        "avgFps": 60,
        "minFps": 30,
        "maxFps": null,
        "totalFrames": 40,
        "frameRates": 60
      },
      {
        "trial_number": 84,
        "trial_index": 580,
        "rt": 833,
        "correct": true,
        "response": "ArrowRight",
        "congruent": false,
        "gazeTowards": false,
        "gazeCondition": "away",
        "faceOnLeft": false,
        "impliedDirection": 180,
        "testDirection": 0,
        "avgFps": 60,
        "minFps": 30,
        "maxFps": null,
        "totalFrames": 49,
        "frameRates": 60
      },
      {
        "trial_number": 85,
        "trial_index": 585,
        "rt": 750,
        "correct": true,
        "response": "ArrowLeft",
        "congruent": true,
        "gazeTowards": false,
        "gazeCondition": "away",
        "faceOnLeft": false,
        "impliedDirection": 180,
        "testDirection": 180,
        "avgFps": 61,
        "minFps": 30,
        "maxFps": null,
        "totalFrames": 46,
        "frameRates": 61
      },
      {
        "trial_number": 86,
        "trial_index": 590,
        "rt": 817,
        "correct": true,
        "response": "ArrowLeft",
        "congruent": true,
        "gazeTowards": true,
        "gazeCondition": "towards",
        "faceOnLeft": false,
        "impliedDirection": 180,
        "testDirection": 180,
        "avgFps": 60,
        "minFps": 30,
        "maxFps": null,
        "totalFrames": 48,
        "frameRates": 60
      },
      {
        "trial_number": 87,
        "trial_index": 595,
        "rt": 783,
        "correct": true,
        "response": "ArrowRight",
        "congruent": true,
        "gazeTowards": false,
        "gazeCondition": "away",
        "faceOnLeft": true,
        "impliedDirection": 0,
        "testDirection": 0,
        "avgFps": 60,
        "minFps": 30,
        "maxFps": null,
        "totalFrames": 46,
        "frameRates": 60
      },
      {
        "trial_number": 88,
        "trial_index": 603,
        "rt": 733,
        "correct": true,
        "response": "ArrowRight",
        "congruent": false,
        "gazeTowards": false,
        "gazeCondition": "away",
        "faceOnLeft": false,
        "impliedDirection": 180,
        "testDirection": 0,
        "avgFps": 61,
        "minFps": 30,
        "maxFps": null,
        "totalFrames": 45,
        "frameRates": 61
      },
      {
        "trial_number": 89,
        "trial_index": 609,
        "rt": 867,
        "correct": true,
        "response": "ArrowRight",
        "congruent": true,
        "gazeTowards": true,
        "gazeCondition": "towards",
        "faceOnLeft": true,
        "impliedDirection": 0,
        "testDirection": 0,
        "avgFps": 61,
        "minFps": 30,
        "maxFps": null,
        "totalFrames": 52,
        "frameRates": 61
      },
      {
        "trial_number": 90,
        "trial_index": 614,
        "rt": 733,
        "correct": true,
        "response": "ArrowRight",
        "congruent": true,
        "gazeTowards": false,
        "gazeCondition": "away",
        "faceOnLeft": true,
        "impliedDirection": 0,
        "testDirection": 0,
        "avgFps": 60,
        "minFps": 30,
        "maxFps": null,
        "totalFrames": 43,
        "frameRates": 60
      },
      {
        "trial_number": 91,
        "trial_index": 619,
        "rt": 717,
        "correct": true,
        "response": "ArrowLeft",
        "congruent": true,
        "gazeTowards": false,
        "gazeCondition": "away",
        "faceOnLeft": false,
        "impliedDirection": 180,
        "testDirection": 180,
        "avgFps": 60,
        "minFps": 30,
        "maxFps": null,
        "totalFrames": 42,
        "frameRates": 60
      },
      {
        "trial_number": 92,
        "trial_index": 624,
        "rt": 717,
        "correct": true,
        "response": "ArrowRight",
        "congruent": true,
        "gazeTowards": true,
        "gazeCondition": "towards",
        "faceOnLeft": true,
        "impliedDirection": 0,
        "testDirection": 0,
        "avgFps": 61,
        "minFps": 60,
        "maxFps": null,
        "totalFrames": 43,
        "frameRates": 61
      },
      {
        "trial_number": 93,
        "trial_index": 632,
        "rt": 683,
        "correct": true,
        "response": "ArrowRight",
        "congruent": false,
        "gazeTowards": false,
        "gazeCondition": "away",
        "faceOnLeft": false,
        "impliedDirection": 180,
        "testDirection": 0,
        "avgFps": 60,
        "minFps": 60,
        "maxFps": 60,
        "totalFrames": 41,
        "frameRates": 60
      },
      {
        "trial_number": 94,
        "trial_index": 637,
        "rt": 600,
        "correct": true,
        "response": "ArrowLeft",
        "congruent": false,
        "gazeTowards": true,
        "gazeCondition": "towards",
        "faceOnLeft": true,
        "impliedDirection": 0,
        "testDirection": 180,
        "avgFps": 60,
        "minFps": 60,
        "maxFps": 60,
        "totalFrames": 35,
        "frameRates": 60
      },
      {
        "trial_number": 95,
        "trial_index": 645,
        "rt": 733,
        "correct": true,
        "response": "ArrowLeft",
        "congruent": true,
        "gazeTowards": false,
        "gazeCondition": "away",
        "faceOnLeft": false,
        "impliedDirection": 180,
        "testDirection": 180,
        "avgFps": 61,
        "minFps": 30,
        "maxFps": null,
        "totalFrames": 45,
        "frameRates": 61
      },
      {
        "trial_number": 96,
        "trial_index": 650,
        "rt": 867,
        "correct": false,
        "response": "ArrowLeft",
        "congruent": false,
        "gazeTowards": false,
        "gazeCondition": "away",
        "faceOnLeft": false,
        "impliedDirection": 180,
        "testDirection": 0,
        "avgFps": 60,
        "minFps": 30,
        "maxFps": null,
        "totalFrames": 52,
        "frameRates": 60
      },
      {
        "trial_number": 97,
        "trial_index": 655,
        "rt": 1067,
        "correct": true,
        "response": "ArrowLeft",
        "congruent": true,
        "gazeTowards": false,
        "gazeCondition": "away",
        "faceOnLeft": false,
        "impliedDirection": 180,
        "testDirection": 180,
        "avgFps": 60,
        "minFps": 30,
        "maxFps": null,
        "totalFrames": 63,
        "frameRates": 60
      },
      {
        "trial_number": 98,
        "trial_index": 660,
        "rt": 783,
        "correct": true,
        "response": "ArrowRight",
        "congruent": true,
        "gazeTowards": false,
        "gazeCondition": "away",
        "faceOnLeft": true,
        "impliedDirection": 0,
        "testDirection": 0,
        "avgFps": 60,
        "minFps": 30,
        "maxFps": null,
        "totalFrames": 48,
        "frameRates": 60
      },
      {
        "trial_number": 99,
        "trial_index": 665,
        "rt": 633,
        "correct": true,
        "response": "ArrowLeft",
        "congruent": false,
        "gazeTowards": false,
        "gazeCondition": "away",
        "faceOnLeft": true,
        "impliedDirection": 0,
        "testDirection": 180,
        "avgFps": 60,
        "minFps": 30,
        "maxFps": null,
        "totalFrames": 37,
        "frameRates": 60
      },
      {
        "trial_number": 100,
        "trial_index": 670,
        "rt": 717,
        "correct": true,
        "response": "ArrowLeft",
        "congruent": true,
        "gazeTowards": true,
        "gazeCondition": "towards",
        "faceOnLeft": false,
        "impliedDirection": 180,
        "testDirection": 180,
        "avgFps": 60,
        "minFps": 30,
        "maxFps": null,
        "totalFrames": 42,
        "frameRates": 60
      },
      {
        "trial_number": 101,
        "trial_index": 675,
        "rt": 700,
        "correct": true,
        "response": "ArrowLeft",
        "congruent": true,
        "gazeTowards": true,
        "gazeCondition": "towards",
        "faceOnLeft": false,
        "impliedDirection": 180,
        "testDirection": 180,
        "avgFps": 60,
        "minFps": 60,
        "maxFps": 60,
        "totalFrames": 41,
        "frameRates": 60
      },
      {
        "trial_number": 102,
        "trial_index": 680,
        "rt": 767,
        "correct": true,
        "response": "ArrowRight",
        "congruent": true,
        "gazeTowards": false,
        "gazeCondition": "away",
        "faceOnLeft": true,
        "impliedDirection": 0,
        "testDirection": 0,
        "avgFps": 61,
        "minFps": 30,
        "maxFps": null,
        "totalFrames": 47,
        "frameRates": 61
      },
      {
        "trial_number": 103,
        "trial_index": 685,
        "rt": 1100,
        "correct": true,
        "response": "ArrowRight",
        "congruent": false,
        "gazeTowards": false,
        "gazeCondition": "away",
        "faceOnLeft": false,
        "impliedDirection": 180,
        "testDirection": 0,
        "avgFps": 60,
        "minFps": 60,
        "maxFps": 60,
        "totalFrames": 66,
        "frameRates": 60
      },
      {
        "trial_number": 104,
        "trial_index": 690,
        "rt": 733,
        "correct": true,
        "response": "ArrowRight",
        "congruent": false,
        "gazeTowards": true,
        "gazeCondition": "towards",
        "faceOnLeft": false,
        "impliedDirection": 180,
        "testDirection": 0,
        "avgFps": 60,
        "minFps": 60,
        "maxFps": 60,
        "totalFrames": 45,
        "frameRates": 60
      },
      {
        "trial_number": 105,
        "trial_index": 695,
        "rt": 617,
        "correct": true,
        "response": "ArrowLeft",
        "congruent": false,
        "gazeTowards": true,
        "gazeCondition": "towards",
        "faceOnLeft": true,
        "impliedDirection": 0,
        "testDirection": 180,
        "avgFps": 62,
        "minFps": 60,
        "maxFps": null,
        "totalFrames": 38,
        "frameRates": 62
      },
      {
        "trial_number": 106,
        "trial_index": 700,
        "rt": 583,
        "correct": true,
        "response": "ArrowLeft",
        "congruent": true,
        "gazeTowards": true,
        "gazeCondition": "towards",
        "faceOnLeft": false,
        "impliedDirection": 180,
        "testDirection": 180,
        "avgFps": 60,
        "minFps": 30,
        "maxFps": null,
        "totalFrames": 34,
        "frameRates": 60
      },
      {
        "trial_number": 107,
        "trial_index": 705,
        "rt": 767,
        "correct": true,
        "response": "ArrowRight",
        "congruent": false,
        "gazeTowards": false,
        "gazeCondition": "away",
        "faceOnLeft": false,
        "impliedDirection": 180,
        "testDirection": 0,
        "avgFps": 61,
        "minFps": 30,
        "maxFps": null,
        "totalFrames": 46,
        "frameRates": 61
      },
      {
        "trial_number": 108,
        "trial_index": 710,
        "rt": 683,
        "correct": true,
        "response": "ArrowLeft",
        "congruent": false,
        "gazeTowards": false,
        "gazeCondition": "away",
        "faceOnLeft": true,
        "impliedDirection": 0,
        "testDirection": 180,
        "avgFps": 60,
        "minFps": 30,
        "maxFps": null,
        "totalFrames": 41,
        "frameRates": 60
      },
      {
        "trial_number": 109,
        "trial_index": 715,
        "rt": 633,
        "correct": true,
        "response": "ArrowRight",
        "congruent": true,
        "gazeTowards": false,
        "gazeCondition": "away",
        "faceOnLeft": true,
        "impliedDirection": 0,
        "testDirection": 0,
        "avgFps": 60,
        "minFps": 30,
        "maxFps": null,
        "totalFrames": 38,
        "frameRates": 60
      },
      {
        "trial_number": 110,
        "trial_index": 720,
        "rt": 683,
        "correct": true,
        "response": "ArrowRight",
        "congruent": true,
        "gazeTowards": false,
        "gazeCondition": "away",
        "faceOnLeft": true,
        "impliedDirection": 0,
        "testDirection": 0,
        "avgFps": 60,
        "minFps": 30,
        "maxFps": null,
        "totalFrames": 41,
        "frameRates": 60
      },
      {
        "trial_number": 111,
        "trial_index": 725,
        "rt": 800,
        "correct": true,
        "response": "ArrowLeft",
        "congruent": false,
        "gazeTowards": false,
        "gazeCondition": "away",
        "faceOnLeft": true,
        "impliedDirection": 0,
        "testDirection": 180,
        "avgFps": 60,
        "minFps": 30,
        "maxFps": null,
        "totalFrames": 47,
        "frameRates": 60
      },
      {
        "trial_number": 112,
        "trial_index": 730,
        "rt": 750,
        "correct": true,
        "response": "ArrowRight",
        "congruent": true,
        "gazeTowards": true,
        "gazeCondition": "towards",
        "faceOnLeft": true,
        "impliedDirection": 0,
        "testDirection": 0,
        "avgFps": 60,
        "minFps": 30,
        "maxFps": null,
        "totalFrames": 45,
        "frameRates": 60
      },
      {
        "trial_number": 113,
        "trial_index": 735,
        "rt": 767,
        "correct": true,
        "response": "ArrowRight",
        "congruent": true,
        "gazeTowards": false,
        "gazeCondition": "away",
        "faceOnLeft": true,
        "impliedDirection": 0,
        "testDirection": 0,
        "avgFps": 61,
        "minFps": 30,
        "maxFps": null,
        "totalFrames": 45,
        "frameRates": 61
      },
      {
        "trial_number": 114,
        "trial_index": 740,
        "rt": 983,
        "correct": true,
        "response": "ArrowLeft",
        "congruent": true,
        "gazeTowards": true,
        "gazeCondition": "towards",
        "faceOnLeft": false,
        "impliedDirection": 180,
        "testDirection": 180,
        "avgFps": 60,
        "minFps": 30,
        "maxFps": null,
        "totalFrames": 60,
        "frameRates": 60
      },
      {
        "trial_number": 115,
        "trial_index": 745,
        "rt": 667,
        "correct": true,
        "response": "ArrowRight",
        "congruent": false,
        "gazeTowards": true,
        "gazeCondition": "towards",
        "faceOnLeft": false,
        "impliedDirection": 180,
        "testDirection": 0,
        "avgFps": 62,
        "minFps": 30,
        "maxFps": null,
        "totalFrames": 40,
        "frameRates": 62
      },
      {
        "trial_number": 116,
        "trial_index": 750,
        "rt": 683,
        "correct": true,
        "response": "ArrowRight",
        "congruent": true,
        "gazeTowards": false,
        "gazeCondition": "away",
        "faceOnLeft": true,
        "impliedDirection": 0,
        "testDirection": 0,
        "avgFps": 60,
        "minFps": 30,
        "maxFps": null,
        "totalFrames": 40,
        "frameRates": 60
      },
      {
        "trial_number": 117,
        "trial_index": 755,
        "rt": 650,
        "correct": true,
        "response": "ArrowLeft",
        "congruent": true,
        "gazeTowards": true,
        "gazeCondition": "towards",
        "faceOnLeft": false,
        "impliedDirection": 180,
        "testDirection": 180,
        "avgFps": 62,
        "minFps": 30,
        "maxFps": null,
        "totalFrames": 39,
        "frameRates": 62
      },
      {
        "trial_number": 118,
        "trial_index": 760,
        "rt": 683,
        "correct": true,
        "response": "ArrowLeft",
        "congruent": true,
        "gazeTowards": true,
        "gazeCondition": "towards",
        "faceOnLeft": false,
        "impliedDirection": 180,
        "testDirection": 180,
        "avgFps": 60,
        "minFps": 30,
        "maxFps": null,
        "totalFrames": 41,
        "frameRates": 60
      },
      {
        "trial_number": 119,
        "trial_index": 765,
        "rt": 717,
        "correct": true,
        "response": "ArrowLeft",
        "congruent": false,
        "gazeTowards": false,
        "gazeCondition": "away",
        "faceOnLeft": true,
        "impliedDirection": 0,
        "testDirection": 180,
        "avgFps": 60,
        "minFps": 30,
        "maxFps": null,
        "totalFrames": 43,
        "frameRates": 60
      }
    ],
    "catch": {
      "total": 12,
      "correct": 12,
      "accuracy": 100,
      "meanRT": 632,
      "trials": [
        {
          "trial_number": 0,
          "trial_index": 160,
          "rt": 833,
          "correct": true,
          "colorTarget": "face",
          "gazeTowards": false,
          "gazeCondition": "away",
          "faceOnLeft": true
        },
        {
          "trial_number": 1,
          "trial_index": 173,
          "rt": 667,
          "correct": true,
          "colorTarget": "face",
          "gazeTowards": true,
          "gazeCondition": "towards",
          "faceOnLeft": true
        },
        {
          "trial_number": 2,
          "trial_index": 206,
          "rt": 567,
          "correct": true,
          "colorTarget": "face",
          "gazeTowards": true,
          "gazeCondition": "towards",
          "faceOnLeft": false
        },
        {
          "trial_number": 3,
          "trial_index": 224,
          "rt": 700,
          "correct": true,
          "colorTarget": "tree",
          "gazeTowards": false,
          "gazeCondition": "away",
          "faceOnLeft": true
        },
        {
          "trial_number": 4,
          "trial_index": 257,
          "rt": 517,
          "correct": true,
          "colorTarget": "tree",
          "gazeTowards": true,
          "gazeCondition": "towards",
          "faceOnLeft": false
        },
        {
          "trial_number": 5,
          "trial_index": 270,
          "rt": 567,
          "correct": true,
          "colorTarget": "tree",
          "gazeTowards": false,
          "gazeCondition": "away",
          "faceOnLeft": true
        },
        {
          "trial_number": 6,
          "trial_index": 414,
          "rt": 650,
          "correct": true,
          "colorTarget": "tree",
          "gazeTowards": false,
          "gazeCondition": "away",
          "faceOnLeft": true
        },
        {
          "trial_number": 7,
          "trial_index": 432,
          "rt": 550,
          "correct": true,
          "colorTarget": "tree",
          "gazeTowards": true,
          "gazeCondition": "towards",
          "faceOnLeft": true
        },
        {
          "trial_number": 8,
          "trial_index": 536,
          "rt": 650,
          "correct": true,
          "colorTarget": "face",
          "gazeTowards": true,
          "gazeCondition": "towards",
          "faceOnLeft": false
        },
        {
          "trial_number": 9,
          "trial_index": 599,
          "rt": 600,
          "correct": true,
          "colorTarget": "face",
          "gazeTowards": false,
          "gazeCondition": "away",
          "faceOnLeft": false
        },
        {
          "trial_number": 10,
          "trial_index": 628,
          "rt": 600,
          "correct": true,
          "colorTarget": "face",
          "gazeTowards": false,
          "gazeCondition": "away",
          "faceOnLeft": false
        },
        {
          "trial_number": 11,
          "trial_index": 641,
          "rt": 683,
          "correct": true,
          "colorTarget": "tree",
          "gazeTowards": false,
          "gazeCondition": "away",
          "faceOnLeft": false
        }
      ]
    },
    "practice": {
      "trials": [
        {
          "trial_number": 0,
          "rt": null,
          "correct": false,
          "direction": 0
        },
        {
          "trial_number": 1,
          "rt": null,
          "correct": false,
          "direction": 0
        },
        {
          "trial_number": 2,
          "rt": 850,
          "correct": true,
          "direction": 0
        },
        {
          "trial_number": 3,
          "rt": 1183,
          "correct": true,
          "direction": 0
        },
        {
          "trial_number": 4,
          "rt": 1533,
          "correct": false,
          "direction": 0
        },
        {
          "trial_number": 5,
          "rt": 950,
          "correct": true,
          "direction": 180
        },
        {
          "trial_number": 6,
          "rt": 1367,
          "correct": false,
          "direction": 180
        },
        {
          "trial_number": 7,
          "rt": 1233,
          "correct": true,
          "direction": 0
        },
        {
          "trial_number": 8,
          "rt": 1350,
          "correct": true,
          "direction": 0
        },
        {
          "trial_number": 9,
          "rt": 883,
          "correct": true,
          "direction": 180
        },
        {
          "trial_number": 10,
          "rt": 1167,
          "correct": true,
          "direction": 0
        },
        {
          "trial_number": 11,
          "rt": 1517,
          "correct": true,
          "direction": 0
        },
        {
          "trial_number": 12,
          "rt": null,
          "correct": false,
          "direction": 0
        },
        {
          "trial_number": 13,
          "rt": 1467,
          "correct": false,
          "direction": 0
        },
        {
          "trial_number": 14,
          "rt": 1317,
          "correct": false,
          "direction": 0
        },
        {
          "trial_number": 15,
          "rt": 1233,
          "correct": false,
          "direction": 180
        },
        {
          "trial_number": 16,
          "rt": 900,
          "correct": true,
          "direction": 180
        },
        {
          "trial_number": 17,
          "rt": 1050,
          "correct": true,
          "direction": 0
        },
        {
          "trial_number": 18,
          "rt": 1383,
          "correct": true,
          "direction": 0
        },
        {
          "trial_number": 19,
          "rt": 800,
          "correct": true,
          "direction": 180
        },
        {
          "trial_number": 20,
          "rt": 1000,
          "correct": true,
          "direction": 0
        },
        {
          "trial_number": 21,
          "rt": 1100,
          "correct": true,
          "direction": 0
        },
        {
          "trial_number": 22,
          "rt": 950,
          "correct": true,
          "direction": 0
        },
        {
          "trial_number": 23,
          "rt": 1300,
          "correct": true,
          "direction": 0
        },
        {
          "trial_number": 24,
          "rt": 1133,
          "correct": false,
          "direction": 0
        },
        {
          "trial_number": 25,
          "rt": 750,
          "correct": true,
          "direction": 180
        },
        {
          "trial_number": 26,
          "rt": 1083,
          "correct": false,
          "direction": 180
        },
        {
          "trial_number": 27,
          "rt": 900,
          "correct": true,
          "direction": 0
        },
        {
          "trial_number": 28,
          "rt": 783,
          "correct": true,
          "direction": 0
        },
        {
          "trial_number": 29,
          "rt": 717,
          "correct": true,
          "direction": 180
        }
      ],
      "meanRT": 1107,
      "accuracy": 67
    }
  }
}