{
  "experiment": "rdk-face-1",
  "UUID": "63989e4a-1da7-4950-b5f3-fc19f928642a",
  "data": {
    "session": {
      "experiment_version": "1.8.6",
      "treatment": "faces_towards_away_catch",
      "file_version": "1.8.6",
      "totalTrials": 120,
      "totalTrialsIncludingCatch": 132,
      "conditions": {
        "gazeTowardsCount": 60,
        "gazeAwayCount": 60,
        "gazeTowardsAccuracy": 95,
        "gazeAwayAccuracy": 95
      },
      "session_group": "default",
      "browserData": {
        "os": "Windows",
        "browser": "Firefox",
        "screenResolution": "1920x1080",
        "browserViewport": "1920x1080",
        "devicePixelRatio": 1,
        "colorDepth": 24,
        "hardwareConcurrency": 12,
        "deviceMemory": "Unknown",
        "gpuRenderer": "ANGLE (AMD, Radeon R9 200 Series Direct3D11 vs_5_0 ps_5_0), or similar",
        "measuredRefreshRateHz": 59
      },
      "attention": {
        "visibilityEvents": [
          {
            "event": "focus",
            "state": "focused",
            "timestamp": 1772765523391
          },
          {
            "event": "blur",
            "state": "blurred",
            "timestamp": 1772765524260
          },
          {
            "event": "visibilitychange",
            "state": "hidden",
            "timestamp": 1772765524563
          },
          {
            "event": "visibilitychange",
            "state": "visible",
            "timestamp": 1772765525268
          },
          {
            "event": "focus",
            "state": "focused",
            "timestamp": 1772765525275
          }
        ]
      },
      "calibration": {
        "monitorWidthCm": 38,
        "viewingDistanceCm": 54,
        "pixelsPerDegree": 50
      },
      "parameters": {
        "coherence": 0.4,
        "apertureDeg": 5,
        "densityDotsPerDeg2": 40,
        "dotDiameterDeg": 0.035,
        "dotSpeedDegPerSec": 3,
        "lifetimeMs": 200,
        "fixationDurationMs": 1500,
        "faceDurationMs": 1500,
        "testDurationMs": 2000,
        "catchResponseMs": 3000
      },
      "prolific": {
        "prolificPid": "5f61d21514125a04c73a2142",
        "studyId": "",
        "sessionId": ""
      },
      "timing": {
        "startTime": "2026-03-06T02:52:02.997Z",
        "endTime": "2026-03-06T03:05:44.846Z",
        "totalElapsedTimeMs": 821849
      }
    },
    "trials": [
      {
        "trial_number": 0,
        "trial_index": 90,
        "rt": null,
        "correct": false,
        "response": null,
        "congruent": true,
        "gazeTowards": true,
        "gazeCondition": "towards",
        "faceOnLeft": true,
        "impliedDirection": 0,
        "testDirection": 0,
        "avgFps": 60,
        "minFps": 55,
        "maxFps": 10000,
        "totalFrames": 120,
        "frameRates": 60
      },
      {
        "trial_number": 1,
        "trial_index": 95,
        "rt": 804,
        "correct": true,
        "response": "ArrowRight",
        "congruent": false,
        "gazeTowards": false,
        "gazeCondition": "away",
        "faceOnLeft": false,
        "impliedDirection": 180,
        "testDirection": 0,
        "avgFps": 62,
        "minFps": 60,
        "maxFps": 12500,
        "totalFrames": 49,
        "frameRates": 62
      },
      {
        "trial_number": 2,
        "trial_index": 100,
        "rt": 769,
        "correct": true,
        "response": "ArrowLeft",
        "congruent": true,
        "gazeTowards": false,
        "gazeCondition": "away",
        "faceOnLeft": false,
        "impliedDirection": 180,
        "testDirection": 180,
        "avgFps": 62,
        "minFps": 60,
        "maxFps": 16667,
        "totalFrames": 47,
        "frameRates": 62
      },
      {
        "trial_number": 3,
        "trial_index": 105,
        "rt": 733,
        "correct": false,
        "response": "ArrowRight",
        "congruent": true,
        "gazeTowards": true,
        "gazeCondition": "towards",
        "faceOnLeft": false,
        "impliedDirection": 180,
        "testDirection": 180,
        "avgFps": 62,
        "minFps": 60,
        "maxFps": 12500,
        "totalFrames": 45,
        "frameRates": 62
      },
      {
        "trial_number": 4,
        "trial_index": 110,
        "rt": 610,
        "correct": true,
        "response": "ArrowRight",
        "congruent": false,
        "gazeTowards": true,
        "gazeCondition": "towards",
        "faceOnLeft": false,
        "impliedDirection": 180,
        "testDirection": 0,
        "avgFps": 63,
        "minFps": 60,
        "maxFps": 12500,
        "totalFrames": 38,
        "frameRates": 63
      },
      {
        "trial_number": 5,
        "trial_index": 115,
        "rt": 747,
        "correct": true,
        "response": "ArrowRight",
        "congruent": true,
        "gazeTowards": false,
        "gazeCondition": "away",
        "faceOnLeft": true,
        "impliedDirection": 0,
        "testDirection": 0,
        "avgFps": 61,
        "minFps": 60,
        "maxFps": 10000,
        "totalFrames": 45,
        "frameRates": 61
      },
      {
        "trial_number": 6,
        "trial_index": 120,
        "rt": 861,
        "correct": true,
        "response": "ArrowLeft",
        "congruent": false,
        "gazeTowards": true,
        "gazeCondition": "towards",
        "faceOnLeft": true,
        "impliedDirection": 0,
        "testDirection": 180,
        "avgFps": 61,
        "minFps": 60,
        "maxFps": 12500,
        "totalFrames": 52,
        "frameRates": 61
      },
      {
        "trial_number": 7,
        "trial_index": 125,
        "rt": 851,
        "correct": false,
        "response": "ArrowRight",
        "congruent": true,
        "gazeTowards": false,
        "gazeCondition": "away",
        "faceOnLeft": false,
        "impliedDirection": 180,
        "testDirection": 180,
        "avgFps": 62,
        "minFps": 60,
        "maxFps": 7143,
        "totalFrames": 52,
        "frameRates": 62
      },
      {
        "trial_number": 8,
        "trial_index": 130,
        "rt": 723,
        "correct": true,
        "response": "ArrowRight",
        "congruent": false,
        "gazeTowards": false,
        "gazeCondition": "away",
        "faceOnLeft": false,
        "impliedDirection": 180,
        "testDirection": 0,
        "avgFps": 62,
        "minFps": 60,
        "maxFps": 12500,
        "totalFrames": 44,
        "frameRates": 62
      },
      {
        "trial_number": 9,
        "trial_index": 135,
        "rt": 792,
        "correct": true,
        "response": "ArrowRight",
        "congruent": false,
        "gazeTowards": false,
        "gazeCondition": "away",
        "faceOnLeft": false,
        "impliedDirection": 180,
        "testDirection": 0,
        "avgFps": 62,
        "minFps": 60,
        "maxFps": 10000,
        "totalFrames": 48,
        "frameRates": 62
      },
      {
        "trial_number": 10,
        "trial_index": 140,
        "rt": 624,
        "correct": true,
        "response": "ArrowRight",
        "congruent": true,
        "gazeTowards": true,
        "gazeCondition": "towards",
        "faceOnLeft": true,
        "impliedDirection": 0,
        "testDirection": 0,
        "avgFps": 63,
        "minFps": 60,
        "maxFps": 6250,
        "totalFrames": 39,
        "frameRates": 63
      },
      {
        "trial_number": 11,
        "trial_index": 145,
        "rt": 556,
        "correct": true,
        "response": "ArrowLeft",
        "congruent": false,
        "gazeTowards": true,
        "gazeCondition": "towards",
        "faceOnLeft": true,
        "impliedDirection": 0,
        "testDirection": 180,
        "avgFps": 63,
        "minFps": 60,
        "maxFps": 16667,
        "totalFrames": 35,
        "frameRates": 63
      },
      {
        "trial_number": 12,
        "trial_index": 150,
        "rt": 589,
        "correct": true,
        "response": "ArrowRight",
        "congruent": true,
        "gazeTowards": false,
        "gazeCondition": "away",
        "faceOnLeft": true,
        "impliedDirection": 0,
        "testDirection": 0,
        "avgFps": 63,
        "minFps": 60,
        "maxFps": 12500,
        "totalFrames": 37,
        "frameRates": 63
      },
      {
        "trial_number": 13,
        "trial_index": 155,
        "rt": 685,
        "correct": true,
        "response": "ArrowRight",
        "congruent": true,
        "gazeTowards": true,
        "gazeCondition": "towards",
        "faceOnLeft": true,
        "impliedDirection": 0,
        "testDirection": 0,
        "avgFps": 62,
        "minFps": 60,
        "maxFps": 7143,
        "totalFrames": 42,
        "frameRates": 62
      },
      {
        "trial_number": 14,
        "trial_index": 160,
        "rt": 627,
        "correct": true,
        "response": "ArrowRight",
        "congruent": true,
        "gazeTowards": false,
        "gazeCondition": "away",
        "faceOnLeft": true,
        "impliedDirection": 0,
        "testDirection": 0,
        "avgFps": 63,
        "minFps": 60,
        "maxFps": 10000,
        "totalFrames": 39,
        "frameRates": 63
      },
      {
        "trial_number": 15,
        "trial_index": 165,
        "rt": 824,
        "correct": true,
        "response": "ArrowLeft",
        "congruent": false,
        "gazeTowards": false,
        "gazeCondition": "away",
        "faceOnLeft": true,
        "impliedDirection": 0,
        "testDirection": 180,
        "avgFps": 62,
        "minFps": 60,
        "maxFps": 16667,
        "totalFrames": 50,
        "frameRates": 62
      },
      {
        "trial_number": 16,
        "trial_index": 170,
        "rt": 577,
        "correct": true,
        "response": "ArrowRight",
        "congruent": true,
        "gazeTowards": true,
        "gazeCondition": "towards",
        "faceOnLeft": true,
        "impliedDirection": 0,
        "testDirection": 0,
        "avgFps": 63,
        "minFps": 60,
        "maxFps": 10000,
        "totalFrames": 35,
        "frameRates": 63
      },
      {
        "trial_number": 17,
        "trial_index": 175,
        "rt": 612,
        "correct": true,
        "response": "ArrowRight",
        "congruent": true,
        "gazeTowards": true,
        "gazeCondition": "towards",
        "faceOnLeft": true,
        "impliedDirection": 0,
        "testDirection": 0,
        "avgFps": 62,
        "minFps": 60,
        "maxFps": 16667,
        "totalFrames": 38,
        "frameRates": 62
      },
      {
        "trial_number": 18,
        "trial_index": 180,
        "rt": 651,
        "correct": true,
        "response": "ArrowLeft",
        "congruent": false,
        "gazeTowards": false,
        "gazeCondition": "away",
        "faceOnLeft": true,
        "impliedDirection": 0,
        "testDirection": 180,
        "avgFps": 62,
        "minFps": 60,
        "maxFps": 6250,
        "totalFrames": 40,
        "frameRates": 62
      },
      {
        "trial_number": 19,
        "trial_index": 188,
        "rt": 702,
        "correct": true,
        "response": "ArrowRight",
        "congruent": true,
        "gazeTowards": false,
        "gazeCondition": "away",
        "faceOnLeft": true,
        "impliedDirection": 0,
        "testDirection": 0,
        "avgFps": 62,
        "minFps": 60,
        "maxFps": 6250,
        "totalFrames": 43,
        "frameRates": 62
      },
      {
        "trial_number": 20,
        "trial_index": 193,
        "rt": 605,
        "correct": true,
        "response": "ArrowRight",
        "congruent": false,
        "gazeTowards": true,
        "gazeCondition": "towards",
        "faceOnLeft": false,
        "impliedDirection": 180,
        "testDirection": 0,
        "avgFps": 63,
        "minFps": 60,
        "maxFps": 10000,
        "totalFrames": 38,
        "frameRates": 63
      },
      {
        "trial_number": 21,
        "trial_index": 198,
        "rt": 843,
        "correct": true,
        "response": "ArrowLeft",
        "congruent": true,
        "gazeTowards": false,
        "gazeCondition": "away",
        "faceOnLeft": false,
        "impliedDirection": 180,
        "testDirection": 180,
        "avgFps": 62,
        "minFps": 60,
        "maxFps": 12500,
        "totalFrames": 52,
        "frameRates": 62
      },
      {
        "trial_number": 22,
        "trial_index": 203,
        "rt": 647,
        "correct": true,
        "response": "ArrowRight",
        "congruent": true,
        "gazeTowards": false,
        "gazeCondition": "away",
        "faceOnLeft": true,
        "impliedDirection": 0,
        "testDirection": 0,
        "avgFps": 62,
        "minFps": 60,
        "maxFps": 12500,
        "totalFrames": 39,
        "frameRates": 62
      },
      {
        "trial_number": 23,
        "trial_index": 208,
        "rt": 611,
        "correct": true,
        "response": "ArrowRight",
        "congruent": true,
        "gazeTowards": false,
        "gazeCondition": "away",
        "faceOnLeft": true,
        "impliedDirection": 0,
        "testDirection": 0,
        "avgFps": 63,
        "minFps": 60,
        "maxFps": 16667,
        "totalFrames": 38,
        "frameRates": 63
      },
      {
        "trial_number": 24,
        "trial_index": 213,
        "rt": 589,
        "correct": true,
        "response": "ArrowLeft",
        "congruent": true,
        "gazeTowards": false,
        "gazeCondition": "away",
        "faceOnLeft": false,
        "impliedDirection": 180,
        "testDirection": 180,
        "avgFps": 63,
        "minFps": 60,
        "maxFps": 12500,
        "totalFrames": 36,
        "frameRates": 63
      },
      {
        "trial_number": 25,
        "trial_index": 218,
        "rt": 776,
        "correct": true,
        "response": "ArrowLeft",
        "congruent": true,
        "gazeTowards": true,
        "gazeCondition": "towards",
        "faceOnLeft": false,
        "impliedDirection": 180,
        "testDirection": 180,
        "avgFps": 61,
        "minFps": 60,
        "maxFps": 5556,
        "totalFrames": 47,
        "frameRates": 61
      },
      {
        "trial_number": 26,
        "trial_index": 223,
        "rt": 750,
        "correct": true,
        "response": "ArrowLeft",
        "congruent": false,
        "gazeTowards": true,
        "gazeCondition": "towards",
        "faceOnLeft": true,
        "impliedDirection": 0,
        "testDirection": 180,
        "avgFps": 62,
        "minFps": 60,
        "maxFps": 12500,
        "totalFrames": 46,
        "frameRates": 62
      },
      {
        "trial_number": 27,
        "trial_index": 228,
        "rt": 855,
        "correct": true,
        "response": "ArrowLeft",
        "congruent": true,
        "gazeTowards": true,
        "gazeCondition": "towards",
        "faceOnLeft": false,
        "impliedDirection": 180,
        "testDirection": 180,
        "avgFps": 62,
        "minFps": 60,
        "maxFps": 16667,
        "totalFrames": 53,
        "frameRates": 62
      },
      {
        "trial_number": 28,
        "trial_index": 233,
        "rt": 562,
        "correct": true,
        "response": "ArrowRight",
        "congruent": false,
        "gazeTowards": true,
        "gazeCondition": "towards",
        "faceOnLeft": false,
        "impliedDirection": 180,
        "testDirection": 0,
        "avgFps": 63,
        "minFps": 60,
        "maxFps": 10000,
        "totalFrames": 35,
        "frameRates": 63
      },
      {
        "trial_number": 29,
        "trial_index": 238,
        "rt": 641,
        "correct": true,
        "response": "ArrowRight",
        "congruent": false,
        "gazeTowards": false,
        "gazeCondition": "away",
        "faceOnLeft": false,
        "impliedDirection": 180,
        "testDirection": 0,
        "avgFps": 62,
        "minFps": 60,
        "maxFps": 12500,
        "totalFrames": 39,
        "frameRates": 62
      },
      {
        "trial_number": 30,
        "trial_index": 243,
        "rt": 745,
        "correct": true,
        "response": "ArrowRight",
        "congruent": false,
        "gazeTowards": false,
        "gazeCondition": "away",
        "faceOnLeft": false,
        "impliedDirection": 180,
        "testDirection": 0,
        "avgFps": 62,
        "minFps": 60,
        "maxFps": 10000,
        "totalFrames": 46,
        "frameRates": 62
      },
      {
        "trial_number": 31,
        "trial_index": 248,
        "rt": 722,
        "correct": true,
        "response": "ArrowRight",
        "congruent": false,
        "gazeTowards": true,
        "gazeCondition": "towards",
        "faceOnLeft": false,
        "impliedDirection": 180,
        "testDirection": 0,
        "avgFps": 62,
        "minFps": 60,
        "maxFps": 12500,
        "totalFrames": 44,
        "frameRates": 62
      },
      {
        "trial_number": 32,
        "trial_index": 254,
        "rt": 649,
        "correct": true,
        "response": "ArrowRight",
        "congruent": false,
        "gazeTowards": true,
        "gazeCondition": "towards",
        "faceOnLeft": false,
        "impliedDirection": 180,
        "testDirection": 0,
        "avgFps": 63,
        "minFps": 60,
        "maxFps": 7143,
        "totalFrames": 40,
        "frameRates": 63
      },
      {
        "trial_number": 33,
        "trial_index": 262,
        "rt": 625,
        "correct": true,
        "response": "ArrowLeft",
        "congruent": false,
        "gazeTowards": false,
        "gazeCondition": "away",
        "faceOnLeft": true,
        "impliedDirection": 0,
        "testDirection": 180,
        "avgFps": 62,
        "minFps": 60,
        "maxFps": 12500,
        "totalFrames": 38,
        "frameRates": 62
      },
      {
        "trial_number": 34,
        "trial_index": 267,
        "rt": 736,
        "correct": true,
        "response": "ArrowLeft",
        "congruent": true,
        "gazeTowards": false,
        "gazeCondition": "away",
        "faceOnLeft": false,
        "impliedDirection": 180,
        "testDirection": 180,
        "avgFps": 61,
        "minFps": 60,
        "maxFps": 10000,
        "totalFrames": 45,
        "frameRates": 61
      },
      {
        "trial_number": 35,
        "trial_index": 272,
        "rt": 764,
        "correct": true,
        "response": "ArrowRight",
        "congruent": true,
        "gazeTowards": true,
        "gazeCondition": "towards",
        "faceOnLeft": true,
        "impliedDirection": 0,
        "testDirection": 0,
        "avgFps": 61,
        "minFps": 54,
        "maxFps": 12500,
        "totalFrames": 46,
        "frameRates": 61
      },
      {
        "trial_number": 36,
        "trial_index": 277,
        "rt": 684,
        "correct": true,
        "response": "ArrowRight",
        "congruent": false,
        "gazeTowards": false,
        "gazeCondition": "away",
        "faceOnLeft": false,
        "impliedDirection": 180,
        "testDirection": 0,
        "avgFps": 63,
        "minFps": 60,
        "maxFps": 16667,
        "totalFrames": 42,
        "frameRates": 63
      },
      {
        "trial_number": 37,
        "trial_index": 282,
        "rt": 721,
        "correct": true,
        "response": "ArrowLeft",
        "congruent": true,
        "gazeTowards": true,
        "gazeCondition": "towards",
        "faceOnLeft": false,
        "impliedDirection": 180,
        "testDirection": 180,
        "avgFps": 62,
        "minFps": 60,
        "maxFps": 3846,
        "totalFrames": 44,
        "frameRates": 62
      },
      {
        "trial_number": 38,
        "trial_index": 287,
        "rt": 650,
        "correct": true,
        "response": "ArrowLeft",
        "congruent": false,
        "gazeTowards": true,
        "gazeCondition": "towards",
        "faceOnLeft": true,
        "impliedDirection": 0,
        "testDirection": 180,
        "avgFps": 61,
        "minFps": 48,
        "maxFps": 12500,
        "totalFrames": 39,
        "frameRates": 61
      },
      {
        "trial_number": 39,
        "trial_index": 292,
        "rt": 601,
        "correct": true,
        "response": "ArrowRight",
        "congruent": false,
        "gazeTowards": true,
        "gazeCondition": "towards",
        "faceOnLeft": false,
        "impliedDirection": 180,
        "testDirection": 0,
        "avgFps": 62,
        "minFps": 60,
        "maxFps": 12500,
        "totalFrames": 37,
        "frameRates": 62
      },
      {
        "trial_number": 40,
        "trial_index": 297,
        "rt": 683,
        "correct": true,
        "response": "ArrowLeft",
        "congruent": true,
        "gazeTowards": true,
        "gazeCondition": "towards",
        "faceOnLeft": false,
        "impliedDirection": 180,
        "testDirection": 180,
        "avgFps": 62,
        "minFps": 60,
        "maxFps": 12500,
        "totalFrames": 42,
        "frameRates": 62
      },
      {
        "trial_number": 41,
        "trial_index": 302,
        "rt": 714,
        "correct": true,
        "response": "ArrowRight",
        "congruent": false,
        "gazeTowards": true,
        "gazeCondition": "towards",
        "faceOnLeft": false,
        "impliedDirection": 180,
        "testDirection": 0,
        "avgFps": 62,
        "minFps": 60,
        "maxFps": 12500,
        "totalFrames": 44,
        "frameRates": 62
      },
      {
        "trial_number": 42,
        "trial_index": 310,
        "rt": 688,
        "correct": true,
        "response": "ArrowRight",
        "congruent": true,
        "gazeTowards": true,
        "gazeCondition": "towards",
        "faceOnLeft": true,
        "impliedDirection": 0,
        "testDirection": 0,
        "avgFps": 62,
        "minFps": 60,
        "maxFps": 16667,
        "totalFrames": 42,
        "frameRates": 62
      },
      {
        "trial_number": 43,
        "trial_index": 315,
        "rt": 861,
        "correct": true,
        "response": "ArrowLeft",
        "congruent": false,
        "gazeTowards": false,
        "gazeCondition": "away",
        "faceOnLeft": true,
        "impliedDirection": 0,
        "testDirection": 180,
        "avgFps": 62,
        "minFps": 60,
        "maxFps": 12500,
        "totalFrames": 53,
        "frameRates": 62
      },
      {
        "trial_number": 44,
        "trial_index": 320,
        "rt": 706,
        "correct": true,
        "response": "ArrowLeft",
        "congruent": true,
        "gazeTowards": false,
        "gazeCondition": "away",
        "faceOnLeft": false,
        "impliedDirection": 180,
        "testDirection": 180,
        "avgFps": 62,
        "minFps": 60,
        "maxFps": 12500,
        "totalFrames": 43,
        "frameRates": 62
      },
      {
        "trial_number": 45,
        "trial_index": 325,
        "rt": 618,
        "correct": true,
        "response": "ArrowRight",
        "congruent": true,
        "gazeTowards": true,
        "gazeCondition": "towards",
        "faceOnLeft": true,
        "impliedDirection": 0,
        "testDirection": 0,
        "avgFps": 62,
        "minFps": 60,
        "maxFps": 12500,
        "totalFrames": 38,
        "frameRates": 62
      },
      {
        "trial_number": 46,
        "trial_index": 330,
        "rt": 736,
        "correct": true,
        "response": "ArrowLeft",
        "congruent": false,
        "gazeTowards": true,
        "gazeCondition": "towards",
        "faceOnLeft": true,
        "impliedDirection": 0,
        "testDirection": 180,
        "avgFps": 61,
        "minFps": 60,
        "maxFps": 16667,
        "totalFrames": 45,
        "frameRates": 61
      },
      {
        "trial_number": 47,
        "trial_index": 335,
        "rt": 558,
        "correct": true,
        "response": "ArrowRight",
        "congruent": false,
        "gazeTowards": false,
        "gazeCondition": "away",
        "faceOnLeft": false,
        "impliedDirection": 180,
        "testDirection": 0,
        "avgFps": 63,
        "minFps": 60,
        "maxFps": 12500,
        "totalFrames": 35,
        "frameRates": 63
      },
      {
        "trial_number": 48,
        "trial_index": 340,
        "rt": 555,
        "correct": true,
        "response": "ArrowLeft",
        "congruent": true,
        "gazeTowards": true,
        "gazeCondition": "towards",
        "faceOnLeft": false,
        "impliedDirection": 180,
        "testDirection": 180,
        "avgFps": 63,
        "minFps": 60,
        "maxFps": 5000,
        "totalFrames": 35,
        "frameRates": 63
      },
      {
        "trial_number": 49,
        "trial_index": 345,
        "rt": 536,
        "correct": true,
        "response": "ArrowRight",
        "congruent": true,
        "gazeTowards": true,
        "gazeCondition": "towards",
        "faceOnLeft": true,
        "impliedDirection": 0,
        "testDirection": 0,
        "avgFps": 63,
        "minFps": 60,
        "maxFps": 12500,
        "totalFrames": 33,
        "frameRates": 63
      },
      {
        "trial_number": 50,
        "trial_index": 353,
        "rt": 529,
        "correct": true,
        "response": "ArrowRight",
        "congruent": false,
        "gazeTowards": true,
        "gazeCondition": "towards",
        "faceOnLeft": false,
        "impliedDirection": 180,
        "testDirection": 0,
        "avgFps": 63,
        "minFps": 60,
        "maxFps": 8333,
        "totalFrames": 33,
        "frameRates": 63
      },
      {
        "trial_number": 51,
        "trial_index": 358,
        "rt": 560,
        "correct": true,
        "response": "ArrowRight",
        "congruent": true,
        "gazeTowards": false,
        "gazeCondition": "away",
        "faceOnLeft": true,
        "impliedDirection": 0,
        "testDirection": 0,
        "avgFps": 63,
        "minFps": 60,
        "maxFps": 7143,
        "totalFrames": 35,
        "frameRates": 63
      },
      {
        "trial_number": 52,
        "trial_index": 363,
        "rt": 510,
        "correct": true,
        "response": "ArrowRight",
        "congruent": true,
        "gazeTowards": true,
        "gazeCondition": "towards",
        "faceOnLeft": true,
        "impliedDirection": 0,
        "testDirection": 0,
        "avgFps": 63,
        "minFps": 60,
        "maxFps": 1852,
        "totalFrames": 32,
        "frameRates": 63
      },
      {
        "trial_number": 53,
        "trial_index": 368,
        "rt": 534,
        "correct": true,
        "response": "ArrowRight",
        "congruent": false,
        "gazeTowards": false,
        "gazeCondition": "away",
        "faceOnLeft": false,
        "impliedDirection": 180,
        "testDirection": 0,
        "avgFps": 62,
        "minFps": 52,
        "maxFps": 12500,
        "totalFrames": 32,
        "frameRates": 62
      },
      {
        "trial_number": 54,
        "trial_index": 376,
        "rt": 641,
        "correct": true,
        "response": "ArrowRight",
        "congruent": true,
        "gazeTowards": false,
        "gazeCondition": "away",
        "faceOnLeft": true,
        "impliedDirection": 0,
        "testDirection": 0,
        "avgFps": 62,
        "minFps": 60,
        "maxFps": 16667,
        "totalFrames": 39,
        "frameRates": 62
      },
      {
        "trial_number": 55,
        "trial_index": 381,
        "rt": 604,
        "correct": true,
        "response": "ArrowRight",
        "congruent": false,
        "gazeTowards": false,
        "gazeCondition": "away",
        "faceOnLeft": false,
        "impliedDirection": 180,
        "testDirection": 0,
        "avgFps": 62,
        "minFps": 60,
        "maxFps": 12500,
        "totalFrames": 37,
        "frameRates": 62
      },
      {
        "trial_number": 56,
        "trial_index": 386,
        "rt": 504,
        "correct": true,
        "response": "ArrowRight",
        "congruent": false,
        "gazeTowards": false,
        "gazeCondition": "away",
        "faceOnLeft": false,
        "impliedDirection": 180,
        "testDirection": 0,
        "avgFps": 63,
        "minFps": 60,
        "maxFps": 12500,
        "totalFrames": 31,
        "frameRates": 63
      },
      {
        "trial_number": 57,
        "trial_index": 391,
        "rt": 776,
        "correct": true,
        "response": "ArrowLeft",
        "congruent": false,
        "gazeTowards": true,
        "gazeCondition": "towards",
        "faceOnLeft": true,
        "impliedDirection": 0,
        "testDirection": 180,
        "avgFps": 62,
        "minFps": 60,
        "maxFps": 7143,
        "totalFrames": 48,
        "frameRates": 62
      },
      {
        "trial_number": 58,
        "trial_index": 399,
        "rt": 487,
        "correct": true,
        "response": "ArrowRight",
        "congruent": true,
        "gazeTowards": true,
        "gazeCondition": "towards",
        "faceOnLeft": true,
        "impliedDirection": 0,
        "testDirection": 0,
        "avgFps": 64,
        "minFps": 60,
        "maxFps": 10000,
        "totalFrames": 30,
        "frameRates": 64
      },
      {
        "trial_number": 59,
        "trial_index": 404,
        "rt": 758,
        "correct": true,
        "response": "ArrowLeft",
        "congruent": false,
        "gazeTowards": true,
        "gazeCondition": "towards",
        "faceOnLeft": true,
        "impliedDirection": 0,
        "testDirection": 180,
        "avgFps": 62,
        "minFps": 60,
        "maxFps": 12500,
        "totalFrames": 46,
        "frameRates": 62
      },
      {
        "trial_number": 60,
        "trial_index": 410,
        "rt": 604,
        "correct": false,
        "response": "ArrowRight",
        "congruent": true,
        "gazeTowards": false,
        "gazeCondition": "away",
        "faceOnLeft": false,
        "impliedDirection": 180,
        "testDirection": 180,
        "avgFps": 63,
        "minFps": 60,
        "maxFps": 10000,
        "totalFrames": 37,
        "frameRates": 63
      },
      {
        "trial_number": 61,
        "trial_index": 418,
        "rt": 654,
        "correct": true,
        "response": "ArrowRight",
        "congruent": true,
        "gazeTowards": false,
        "gazeCondition": "away",
        "faceOnLeft": true,
        "impliedDirection": 0,
        "testDirection": 0,
        "avgFps": 62,
        "minFps": 60,
        "maxFps": 16667,
        "totalFrames": 40,
        "frameRates": 62
      },
      {
        "trial_number": 62,
        "trial_index": 423,
        "rt": 563,
        "correct": true,
        "response": "ArrowRight",
        "congruent": false,
        "gazeTowards": false,
        "gazeCondition": "away",
        "faceOnLeft": false,
        "impliedDirection": 180,
        "testDirection": 0,
        "avgFps": 63,
        "minFps": 60,
        "maxFps": 10000,
        "totalFrames": 35,
        "frameRates": 63
      },
      {
        "trial_number": 63,
        "trial_index": 428,
        "rt": 698,
        "correct": true,
        "response": "ArrowRight",
        "congruent": false,
        "gazeTowards": false,
        "gazeCondition": "away",
        "faceOnLeft": false,
        "impliedDirection": 180,
        "testDirection": 0,
        "avgFps": 62,
        "minFps": 60,
        "maxFps": 10000,
        "totalFrames": 43,
        "frameRates": 62
      },
      {
        "trial_number": 64,
        "trial_index": 433,
        "rt": 744,
        "correct": true,
        "response": "ArrowRight",
        "congruent": true,
        "gazeTowards": true,
        "gazeCondition": "towards",
        "faceOnLeft": true,
        "impliedDirection": 0,
        "testDirection": 0,
        "avgFps": 62,
        "minFps": 60,
        "maxFps": 10000,
        "totalFrames": 45,
        "frameRates": 62
      },
      {
        "trial_number": 65,
        "trial_index": 438,
        "rt": 734,
        "correct": true,
        "response": "ArrowRight",
        "congruent": true,
        "gazeTowards": true,
        "gazeCondition": "towards",
        "faceOnLeft": true,
        "impliedDirection": 0,
        "testDirection": 0,
        "avgFps": 62,
        "minFps": 60,
        "maxFps": 12500,
        "totalFrames": 45,
        "frameRates": 62
      },
      {
        "trial_number": 66,
        "trial_index": 443,
        "rt": 630,
        "correct": true,
        "response": "ArrowLeft",
        "congruent": true,
        "gazeTowards": false,
        "gazeCondition": "away",
        "faceOnLeft": false,
        "impliedDirection": 180,
        "testDirection": 180,
        "avgFps": 62,
        "minFps": 60,
        "maxFps": 12500,
        "totalFrames": 39,
        "frameRates": 62
      },
      {
        "trial_number": 67,
        "trial_index": 451,
        "rt": 1093,
        "correct": true,
        "response": "ArrowRight",
        "congruent": true,
        "gazeTowards": true,
        "gazeCondition": "towards",
        "faceOnLeft": true,
        "impliedDirection": 0,
        "testDirection": 0,
        "avgFps": 61,
        "minFps": 60,
        "maxFps": 16667,
        "totalFrames": 66,
        "frameRates": 61
      },
      {
        "trial_number": 68,
        "trial_index": 456,
        "rt": 820,
        "correct": true,
        "response": "ArrowRight",
        "congruent": false,
        "gazeTowards": true,
        "gazeCondition": "towards",
        "faceOnLeft": false,
        "impliedDirection": 180,
        "testDirection": 0,
        "avgFps": 61,
        "minFps": 49,
        "maxFps": 12500,
        "totalFrames": 50,
        "frameRates": 61
      },
      {
        "trial_number": 69,
        "trial_index": 461,
        "rt": 615,
        "correct": true,
        "response": "ArrowLeft",
        "congruent": false,
        "gazeTowards": false,
        "gazeCondition": "away",
        "faceOnLeft": true,
        "impliedDirection": 0,
        "testDirection": 180,
        "avgFps": 63,
        "minFps": 60,
        "maxFps": 10000,
        "totalFrames": 38,
        "frameRates": 63
      },
      {
        "trial_number": 70,
        "trial_index": 466,
        "rt": 533,
        "correct": true,
        "response": "ArrowRight",
        "congruent": true,
        "gazeTowards": false,
        "gazeCondition": "away",
        "faceOnLeft": true,
        "impliedDirection": 0,
        "testDirection": 0,
        "avgFps": 62,
        "minFps": 60,
        "maxFps": 7143,
        "totalFrames": 33,
        "frameRates": 62
      },
      {
        "trial_number": 71,
        "trial_index": 471,
        "rt": 529,
        "correct": true,
        "response": "ArrowRight",
        "congruent": true,
        "gazeTowards": false,
        "gazeCondition": "away",
        "faceOnLeft": true,
        "impliedDirection": 0,
        "testDirection": 0,
        "avgFps": 63,
        "minFps": 60,
        "maxFps": 10000,
        "totalFrames": 33,
        "frameRates": 63
      },
      {
        "trial_number": 72,
        "trial_index": 476,
        "rt": 549,
        "correct": true,
        "response": "ArrowRight",
        "congruent": false,
        "gazeTowards": false,
        "gazeCondition": "away",
        "faceOnLeft": false,
        "impliedDirection": 180,
        "testDirection": 0,
        "avgFps": 61,
        "minFps": 43,
        "maxFps": 12500,
        "totalFrames": 33,
        "frameRates": 61
      },
      {
        "trial_number": 73,
        "trial_index": 481,
        "rt": 544,
        "correct": true,
        "response": "ArrowRight",
        "congruent": true,
        "gazeTowards": true,
        "gazeCondition": "towards",
        "faceOnLeft": true,
        "impliedDirection": 0,
        "testDirection": 0,
        "avgFps": 63,
        "minFps": 60,
        "maxFps": 12500,
        "totalFrames": 34,
        "frameRates": 63
      },
      {
        "trial_number": 74,
        "trial_index": 486,
        "rt": 772,
        "correct": true,
        "response": "ArrowLeft",
        "congruent": true,
        "gazeTowards": true,
        "gazeCondition": "towards",
        "faceOnLeft": false,
        "impliedDirection": 180,
        "testDirection": 180,
        "avgFps": 62,
        "minFps": 60,
        "maxFps": 12500,
        "totalFrames": 47,
        "frameRates": 62
      },
      {
        "trial_number": 75,
        "trial_index": 491,
        "rt": 671,
        "correct": false,
        "response": "ArrowRight",
        "congruent": true,
        "gazeTowards": false,
        "gazeCondition": "away",
        "faceOnLeft": false,
        "impliedDirection": 180,
        "testDirection": 180,
        "avgFps": 62,
        "minFps": 60,
        "maxFps": 7143,
        "totalFrames": 41,
        "frameRates": 62
      },
      {
        "trial_number": 76,
        "trial_index": 496,
        "rt": 686,
        "correct": true,
        "response": "ArrowLeft",
        "congruent": false,
        "gazeTowards": true,
        "gazeCondition": "towards",
        "faceOnLeft": true,
        "impliedDirection": 0,
        "testDirection": 180,
        "avgFps": 62,
        "minFps": 60,
        "maxFps": 16667,
        "totalFrames": 42,
        "frameRates": 62
      },
      {
        "trial_number": 77,
        "trial_index": 501,
        "rt": 684,
        "correct": true,
        "response": "ArrowLeft",
        "congruent": false,
        "gazeTowards": true,
        "gazeCondition": "towards",
        "faceOnLeft": true,
        "impliedDirection": 0,
        "testDirection": 180,
        "avgFps": 62,
        "minFps": 60,
        "maxFps": 10000,
        "totalFrames": 42,
        "frameRates": 62
      },
      {
        "trial_number": 78,
        "trial_index": 506,
        "rt": 783,
        "correct": true,
        "response": "ArrowLeft",
        "congruent": false,
        "gazeTowards": true,
        "gazeCondition": "towards",
        "faceOnLeft": true,
        "impliedDirection": 0,
        "testDirection": 180,
        "avgFps": 62,
        "minFps": 60,
        "maxFps": 12500,
        "totalFrames": 48,
        "frameRates": 62
      },
      {
        "trial_number": 79,
        "trial_index": 511,
        "rt": 565,
        "correct": true,
        "response": "ArrowRight",
        "congruent": true,
        "gazeTowards": true,
        "gazeCondition": "towards",
        "faceOnLeft": true,
        "impliedDirection": 0,
        "testDirection": 0,
        "avgFps": 62,
        "minFps": 60,
        "maxFps": 12500,
        "totalFrames": 34,
        "frameRates": 62
      },
      {
        "trial_number": 80,
        "trial_index": 516,
        "rt": 781,
        "correct": true,
        "response": "ArrowRight",
        "congruent": false,
        "gazeTowards": false,
        "gazeCondition": "away",
        "faceOnLeft": false,
        "impliedDirection": 180,
        "testDirection": 0,
        "avgFps": 62,
        "minFps": 60,
        "maxFps": 12500,
        "totalFrames": 48,
        "frameRates": 62
      },
      {
        "trial_number": 81,
        "trial_index": 524,
        "rt": 795,
        "correct": true,
        "response": "ArrowLeft",
        "congruent": true,
        "gazeTowards": false,
        "gazeCondition": "away",
        "faceOnLeft": false,
        "impliedDirection": 180,
        "testDirection": 180,
        "avgFps": 62,
        "minFps": 60,
        "maxFps": 5556,
        "totalFrames": 49,
        "frameRates": 62
      },
      {
        "trial_number": 82,
        "trial_index": 529,
        "rt": 493,
        "correct": true,
        "response": "ArrowRight",
        "congruent": true,
        "gazeTowards": false,
        "gazeCondition": "away",
        "faceOnLeft": true,
        "impliedDirection": 0,
        "testDirection": 0,
        "avgFps": 63,
        "minFps": 60,
        "maxFps": 12500,
        "totalFrames": 31,
        "frameRates": 63
      },
      {
        "trial_number": 83,
        "trial_index": 534,
        "rt": 710,
        "correct": true,
        "response": "ArrowLeft",
        "congruent": false,
        "gazeTowards": true,
        "gazeCondition": "towards",
        "faceOnLeft": true,
        "impliedDirection": 0,
        "testDirection": 180,
        "avgFps": 62,
        "minFps": 60,
        "maxFps": 4545,
        "totalFrames": 43,
        "frameRates": 62
      },
      {
        "trial_number": 84,
        "trial_index": 539,
        "rt": 477,
        "correct": true,
        "response": "ArrowRight",
        "congruent": false,
        "gazeTowards": false,
        "gazeCondition": "away",
        "faceOnLeft": false,
        "impliedDirection": 180,
        "testDirection": 0,
        "avgFps": 64,
        "minFps": 60,
        "maxFps": 12500,
        "totalFrames": 30,
        "frameRates": 64
      },
      {
        "trial_number": 85,
        "trial_index": 544,
        "rt": 684,
        "correct": true,
        "response": "ArrowRight",
        "congruent": false,
        "gazeTowards": true,
        "gazeCondition": "towards",
        "faceOnLeft": false,
        "impliedDirection": 180,
        "testDirection": 0,
        "avgFps": 62,
        "minFps": 60,
        "maxFps": 16667,
        "totalFrames": 42,
        "frameRates": 62
      },
      {
        "trial_number": 86,
        "trial_index": 552,
        "rt": 1009,
        "correct": true,
        "response": "ArrowLeft",
        "congruent": true,
        "gazeTowards": false,
        "gazeCondition": "away",
        "faceOnLeft": false,
        "impliedDirection": 180,
        "testDirection": 180,
        "avgFps": 62,
        "minFps": 60,
        "maxFps": 12500,
        "totalFrames": 62,
        "frameRates": 62
      },
      {
        "trial_number": 87,
        "trial_index": 557,
        "rt": 818,
        "correct": false,
        "response": "ArrowRight",
        "congruent": true,
        "gazeTowards": true,
        "gazeCondition": "towards",
        "faceOnLeft": false,
        "impliedDirection": 180,
        "testDirection": 180,
        "avgFps": 61,
        "minFps": 60,
        "maxFps": 12500,
        "totalFrames": 50,
        "frameRates": 61
      },
      {
        "trial_number": 88,
        "trial_index": 562,
        "rt": 629,
        "correct": true,
        "response": "ArrowLeft",
        "congruent": false,
        "gazeTowards": false,
        "gazeCondition": "away",
        "faceOnLeft": true,
        "impliedDirection": 0,
        "testDirection": 180,
        "avgFps": 63,
        "minFps": 60,
        "maxFps": 12500,
        "totalFrames": 39,
        "frameRates": 63
      },
      {
        "trial_number": 89,
        "trial_index": 568,
        "rt": 581,
        "correct": true,
        "response": "ArrowRight",
        "congruent": false,
        "gazeTowards": false,
        "gazeCondition": "away",
        "faceOnLeft": false,
        "impliedDirection": 180,
        "testDirection": 0,
        "avgFps": 62,
        "minFps": 60,
        "maxFps": 12500,
        "totalFrames": 36,
        "frameRates": 62
      },
      {
        "trial_number": 90,
        "trial_index": 573,
        "rt": 548,
        "correct": true,
        "response": "ArrowLeft",
        "congruent": true,
        "gazeTowards": true,
        "gazeCondition": "towards",
        "faceOnLeft": false,
        "impliedDirection": 180,
        "testDirection": 180,
        "avgFps": 63,
        "minFps": 60,
        "maxFps": 16667,
        "totalFrames": 34,
        "frameRates": 63
      },
      {
        "trial_number": 91,
        "trial_index": 578,
        "rt": 618,
        "correct": true,
        "response": "ArrowRight",
        "congruent": true,
        "gazeTowards": false,
        "gazeCondition": "away",
        "faceOnLeft": true,
        "impliedDirection": 0,
        "testDirection": 0,
        "avgFps": 63,
        "minFps": 60,
        "maxFps": 12500,
        "totalFrames": 38,
        "frameRates": 63
      },
      {
        "trial_number": 92,
        "trial_index": 583,
        "rt": 702,
        "correct": true,
        "response": "ArrowRight",
        "congruent": false,
        "gazeTowards": false,
        "gazeCondition": "away",
        "faceOnLeft": false,
        "impliedDirection": 180,
        "testDirection": 0,
        "avgFps": 62,
        "minFps": 60,
        "maxFps": 12500,
        "totalFrames": 43,
        "frameRates": 62
      },
      {
        "trial_number": 93,
        "trial_index": 588,
        "rt": 578,
        "correct": true,
        "response": "ArrowRight",
        "congruent": false,
        "gazeTowards": false,
        "gazeCondition": "away",
        "faceOnLeft": false,
        "impliedDirection": 180,
        "testDirection": 0,
        "avgFps": 63,
        "minFps": 60,
        "maxFps": 16667,
        "totalFrames": 36,
        "frameRates": 63
      },
      {
        "trial_number": 94,
        "trial_index": 596,
        "rt": 611,
        "correct": true,
        "response": "ArrowLeft",
        "congruent": false,
        "gazeTowards": false,
        "gazeCondition": "away",
        "faceOnLeft": true,
        "impliedDirection": 0,
        "testDirection": 180,
        "avgFps": 62,
        "minFps": 60,
        "maxFps": 3571,
        "totalFrames": 38,
        "frameRates": 62
      },
      {
        "trial_number": 95,
        "trial_index": 601,
        "rt": 488,
        "correct": true,
        "response": "ArrowRight",
        "congruent": false,
        "gazeTowards": true,
        "gazeCondition": "towards",
        "faceOnLeft": false,
        "impliedDirection": 180,
        "testDirection": 0,
        "avgFps": 64,
        "minFps": 60,
        "maxFps": 4167,
        "totalFrames": 31,
        "frameRates": 64
      },
      {
        "trial_number": 96,
        "trial_index": 606,
        "rt": 569,
        "correct": true,
        "response": "ArrowLeft",
        "congruent": true,
        "gazeTowards": false,
        "gazeCondition": "away",
        "faceOnLeft": false,
        "impliedDirection": 180,
        "testDirection": 180,
        "avgFps": 62,
        "minFps": 60,
        "maxFps": 10000,
        "totalFrames": 35,
        "frameRates": 62
      },
      {
        "trial_number": 97,
        "trial_index": 611,
        "rt": 622,
        "correct": true,
        "response": "ArrowLeft",
        "congruent": true,
        "gazeTowards": true,
        "gazeCondition": "towards",
        "faceOnLeft": false,
        "impliedDirection": 180,
        "testDirection": 180,
        "avgFps": 62,
        "minFps": 60,
        "maxFps": 12500,
        "totalFrames": 38,
        "frameRates": 62
      },
      {
        "trial_number": 98,
        "trial_index": 616,
        "rt": 548,
        "correct": true,
        "response": "ArrowRight",
        "congruent": true,
        "gazeTowards": false,
        "gazeCondition": "away",
        "faceOnLeft": true,
        "impliedDirection": 0,
        "testDirection": 0,
        "avgFps": 62,
        "minFps": 60,
        "maxFps": 12500,
        "totalFrames": 34,
        "frameRates": 62
      },
      {
        "trial_number": 99,
        "trial_index": 621,
        "rt": 571,
        "correct": true,
        "response": "ArrowLeft",
        "congruent": false,
        "gazeTowards": true,
        "gazeCondition": "towards",
        "faceOnLeft": true,
        "impliedDirection": 0,
        "testDirection": 180,
        "avgFps": 63,
        "minFps": 60,
        "maxFps": 16667,
        "totalFrames": 35,
        "frameRates": 63
      },
      {
        "trial_number": 100,
        "trial_index": 626,
        "rt": 786,
        "correct": true,
        "response": "ArrowLeft",
        "congruent": false,
        "gazeTowards": true,
        "gazeCondition": "towards",
        "faceOnLeft": true,
        "impliedDirection": 0,
        "testDirection": 180,
        "avgFps": 62,
        "minFps": 60,
        "maxFps": 10000,
        "totalFrames": 48,
        "frameRates": 62
      },
      {
        "trial_number": 101,
        "trial_index": 631,
        "rt": 721,
        "correct": true,
        "response": "ArrowLeft",
        "congruent": false,
        "gazeTowards": false,
        "gazeCondition": "away",
        "faceOnLeft": true,
        "impliedDirection": 0,
        "testDirection": 180,
        "avgFps": 61,
        "minFps": 60,
        "maxFps": 12500,
        "totalFrames": 44,
        "frameRates": 61
      },
      {
        "trial_number": 102,
        "trial_index": 639,
        "rt": 718,
        "correct": true,
        "response": "ArrowRight",
        "congruent": false,
        "gazeTowards": true,
        "gazeCondition": "towards",
        "faceOnLeft": false,
        "impliedDirection": 180,
        "testDirection": 0,
        "avgFps": 61,
        "minFps": 60,
        "maxFps": 5000,
        "totalFrames": 44,
        "frameRates": 61
      },
      {
        "trial_number": 103,
        "trial_index": 644,
        "rt": 474,
        "correct": true,
        "response": "ArrowRight",
        "congruent": true,
        "gazeTowards": false,
        "gazeCondition": "away",
        "faceOnLeft": true,
        "impliedDirection": 0,
        "testDirection": 0,
        "avgFps": 64,
        "minFps": 60,
        "maxFps": 5556,
        "totalFrames": 30,
        "frameRates": 64
      },
      {
        "trial_number": 104,
        "trial_index": 649,
        "rt": 486,
        "correct": true,
        "response": "ArrowRight",
        "congruent": false,
        "gazeTowards": false,
        "gazeCondition": "away",
        "faceOnLeft": false,
        "impliedDirection": 180,
        "testDirection": 0,
        "avgFps": 64,
        "minFps": 60,
        "maxFps": 4545,
        "totalFrames": 30,
        "frameRates": 64
      },
      {
        "trial_number": 105,
        "trial_index": 654,
        "rt": 646,
        "correct": true,
        "response": "ArrowLeft",
        "congruent": true,
        "gazeTowards": true,
        "gazeCondition": "towards",
        "faceOnLeft": false,
        "impliedDirection": 180,
        "testDirection": 180,
        "avgFps": 62,
        "minFps": 60,
        "maxFps": 12500,
        "totalFrames": 40,
        "frameRates": 62
      },
      {
        "trial_number": 106,
        "trial_index": 659,
        "rt": 778,
        "correct": true,
        "response": "ArrowLeft",
        "congruent": true,
        "gazeTowards": true,
        "gazeCondition": "towards",
        "faceOnLeft": false,
        "impliedDirection": 180,
        "testDirection": 180,
        "avgFps": 62,
        "minFps": 60,
        "maxFps": 12500,
        "totalFrames": 47,
        "frameRates": 62
      },
      {
        "trial_number": 107,
        "trial_index": 664,
        "rt": 548,
        "correct": true,
        "response": "ArrowRight",
        "congruent": true,
        "gazeTowards": false,
        "gazeCondition": "away",
        "faceOnLeft": true,
        "impliedDirection": 0,
        "testDirection": 0,
        "avgFps": 63,
        "minFps": 60,
        "maxFps": 8333,
        "totalFrames": 34,
        "frameRates": 63
      },
      {
        "trial_number": 108,
        "trial_index": 669,
        "rt": 635,
        "correct": true,
        "response": "ArrowLeft",
        "congruent": true,
        "gazeTowards": false,
        "gazeCondition": "away",
        "faceOnLeft": false,
        "impliedDirection": 180,
        "testDirection": 180,
        "avgFps": 62,
        "minFps": 60,
        "maxFps": 10000,
        "totalFrames": 39,
        "frameRates": 62
      },
      {
        "trial_number": 109,
        "trial_index": 674,
        "rt": 707,
        "correct": true,
        "response": "ArrowLeft",
        "congruent": false,
        "gazeTowards": true,
        "gazeCondition": "towards",
        "faceOnLeft": true,
        "impliedDirection": 0,
        "testDirection": 180,
        "avgFps": 62,
        "minFps": 60,
        "maxFps": 12500,
        "totalFrames": 43,
        "frameRates": 62
      },
      {
        "trial_number": 110,
        "trial_index": 679,
        "rt": 653,
        "correct": true,
        "response": "ArrowRight",
        "congruent": false,
        "gazeTowards": false,
        "gazeCondition": "away",
        "faceOnLeft": false,
        "impliedDirection": 180,
        "testDirection": 0,
        "avgFps": 61,
        "minFps": 32,
        "maxFps": 12500,
        "totalFrames": 40,
        "frameRates": 61
      },
      {
        "trial_number": 111,
        "trial_index": 684,
        "rt": 608,
        "correct": true,
        "response": "ArrowRight",
        "congruent": false,
        "gazeTowards": false,
        "gazeCondition": "away",
        "faceOnLeft": false,
        "impliedDirection": 180,
        "testDirection": 0,
        "avgFps": 63,
        "minFps": 60,
        "maxFps": 16667,
        "totalFrames": 38,
        "frameRates": 63
      },
      {
        "trial_number": 112,
        "trial_index": 689,
        "rt": 505,
        "correct": true,
        "response": "ArrowLeft",
        "congruent": false,
        "gazeTowards": true,
        "gazeCondition": "towards",
        "faceOnLeft": true,
        "impliedDirection": 0,
        "testDirection": 180,
        "avgFps": 62,
        "minFps": 60,
        "maxFps": 6250,
        "totalFrames": 31,
        "frameRates": 62
      },
      {
        "trial_number": 113,
        "trial_index": 694,
        "rt": 582,
        "correct": true,
        "response": "ArrowLeft",
        "congruent": true,
        "gazeTowards": false,
        "gazeCondition": "away",
        "faceOnLeft": false,
        "impliedDirection": 180,
        "testDirection": 180,
        "avgFps": 63,
        "minFps": 60,
        "maxFps": 10000,
        "totalFrames": 36,
        "frameRates": 63
      },
      {
        "trial_number": 114,
        "trial_index": 699,
        "rt": 758,
        "correct": true,
        "response": "ArrowLeft",
        "congruent": true,
        "gazeTowards": true,
        "gazeCondition": "towards",
        "faceOnLeft": false,
        "impliedDirection": 180,
        "testDirection": 180,
        "avgFps": 62,
        "minFps": 60,
        "maxFps": 12500,
        "totalFrames": 47,
        "frameRates": 62
      },
      {
        "trial_number": 115,
        "trial_index": 704,
        "rt": 924,
        "correct": true,
        "response": "ArrowLeft",
        "congruent": false,
        "gazeTowards": true,
        "gazeCondition": "towards",
        "faceOnLeft": true,
        "impliedDirection": 0,
        "testDirection": 180,
        "avgFps": 62,
        "minFps": 60,
        "maxFps": 12500,
        "totalFrames": 57,
        "frameRates": 62
      },
      {
        "trial_number": 116,
        "trial_index": 709,
        "rt": 806,
        "correct": true,
        "response": "ArrowLeft",
        "congruent": false,
        "gazeTowards": false,
        "gazeCondition": "away",
        "faceOnLeft": true,
        "impliedDirection": 0,
        "testDirection": 180,
        "avgFps": 62,
        "minFps": 60,
        "maxFps": 12500,
        "totalFrames": 49,
        "frameRates": 62
      },
      {
        "trial_number": 117,
        "trial_index": 714,
        "rt": 506,
        "correct": true,
        "response": "ArrowRight",
        "congruent": false,
        "gazeTowards": true,
        "gazeCondition": "towards",
        "faceOnLeft": false,
        "impliedDirection": 180,
        "testDirection": 0,
        "avgFps": 63,
        "minFps": 60,
        "maxFps": 10000,
        "totalFrames": 31,
        "frameRates": 63
      },
      {
        "trial_number": 118,
        "trial_index": 719,
        "rt": 770,
        "correct": true,
        "response": "ArrowLeft",
        "congruent": false,
        "gazeTowards": true,
        "gazeCondition": "towards",
        "faceOnLeft": true,
        "impliedDirection": 0,
        "testDirection": 180,
        "avgFps": 61,
        "minFps": 32,
        "maxFps": 12500,
        "totalFrames": 47,
        "frameRates": 61
      },
      {
        "trial_number": 119,
        "trial_index": 724,
        "rt": 538,
        "correct": true,
        "response": "ArrowRight",
        "congruent": true,
        "gazeTowards": true,
        "gazeCondition": "towards",
        "faceOnLeft": true,
        "impliedDirection": 0,
        "testDirection": 0,
        "avgFps": 62,
        "minFps": 60,
        "maxFps": 8333,
        "totalFrames": 33,
        "frameRates": 62
      }
    ],
    "catch": {
      "total": 12,
      "correct": 12,
      "accuracy": 100,
      "meanRT": 688,
      "trials": [
        {
          "trial_number": 0,
          "trial_index": 184,
          "rt": 889,
          "correct": true,
          "colorTarget": "tree",
          "gazeTowards": true,
          "gazeCondition": "towards",
          "faceOnLeft": true
        },
        {
          "trial_number": 1,
          "trial_index": 258,
          "rt": 469,
          "correct": true,
          "colorTarget": "tree",
          "gazeTowards": false,
          "gazeCondition": "away",
          "faceOnLeft": false
        },
        {
          "trial_number": 2,
          "trial_index": 306,
          "rt": 573,
          "correct": true,
          "colorTarget": "tree",
          "gazeTowards": false,
          "gazeCondition": "away",
          "faceOnLeft": true
        },
        {
          "trial_number": 3,
          "trial_index": 349,
          "rt": 768,
          "correct": true,
          "colorTarget": "face",
          "gazeTowards": true,
          "gazeCondition": "towards",
          "faceOnLeft": true
        },
        {
          "trial_number": 4,
          "trial_index": 372,
          "rt": 910,
          "correct": true,
          "colorTarget": "face",
          "gazeTowards": false,
          "gazeCondition": "away",
          "faceOnLeft": true
        },
        {
          "trial_number": 5,
          "trial_index": 395,
          "rt": 587,
          "correct": true,
          "colorTarget": "tree",
          "gazeTowards": false,
          "gazeCondition": "away",
          "faceOnLeft": true
        },
        {
          "trial_number": 6,
          "trial_index": 414,
          "rt": 605,
          "correct": true,
          "colorTarget": "face",
          "gazeTowards": false,
          "gazeCondition": "away",
          "faceOnLeft": false
        },
        {
          "trial_number": 7,
          "trial_index": 447,
          "rt": 652,
          "correct": true,
          "colorTarget": "tree",
          "gazeTowards": true,
          "gazeCondition": "towards",
          "faceOnLeft": true
        },
        {
          "trial_number": 8,
          "trial_index": 520,
          "rt": 933,
          "correct": true,
          "colorTarget": "tree",
          "gazeTowards": false,
          "gazeCondition": "away",
          "faceOnLeft": true
        },
        {
          "trial_number": 9,
          "trial_index": 548,
          "rt": 421,
          "correct": true,
          "colorTarget": "face",
          "gazeTowards": true,
          "gazeCondition": "towards",
          "faceOnLeft": false
        },
        {
          "trial_number": 10,
          "trial_index": 592,
          "rt": 549,
          "correct": true,
          "colorTarget": "face",
          "gazeTowards": false,
          "gazeCondition": "away",
          "faceOnLeft": true
        },
        {
          "trial_number": 11,
          "trial_index": 635,
          "rt": 903,
          "correct": true,
          "colorTarget": "face",
          "gazeTowards": true,
          "gazeCondition": "towards",
          "faceOnLeft": true
        }
      ]
    },
    "practice": {
      "trials": [
        {
          "trial_number": 0,
          "rt": 1296,
          "correct": true,
          "direction": 0
        },
        {
          "trial_number": 1,
          "rt": 1191,
          "correct": true,
          "direction": 0
        },
        {
          "trial_number": 2,
          "rt": 1226,
          "correct": true,
          "direction": 0
        },
        {
          "trial_number": 3,
          "rt": 1471,
          "correct": true,
          "direction": 0
        },
        {
          "trial_number": 4,
          "rt": null,
          "correct": false,
          "direction": 0
        },
        {
          "trial_number": 5,
          "rt": 1276,
          "correct": true,
          "direction": 180
        },
        {
          "trial_number": 6,
          "rt": 1487,
          "correct": false,
          "direction": 180
        },
        {
          "trial_number": 7,
          "rt": 1301,
          "correct": true,
          "direction": 0
        },
        {
          "trial_number": 8,
          "rt": 1052,
          "correct": true,
          "direction": 180
        },
        {
          "trial_number": 9,
          "rt": 988,
          "correct": false,
          "direction": 180
        },
        {
          "trial_number": 10,
          "rt": 693,
          "correct": true,
          "direction": 0
        },
        {
          "trial_number": 11,
          "rt": 820,
          "correct": true,
          "direction": 0
        },
        {
          "trial_number": 12,
          "rt": 846,
          "correct": true,
          "direction": 0
        },
        {
          "trial_number": 13,
          "rt": 902,
          "correct": true,
          "direction": 0
        },
        {
          "trial_number": 14,
          "rt": 992,
          "correct": true,
          "direction": 0
        },
        {
          "trial_number": 15,
          "rt": 803,
          "correct": true,
          "direction": 180
        },
        {
          "trial_number": 16,
          "rt": 1062,
          "correct": true,
          "direction": 180
        },
        {
          "trial_number": 17,
          "rt": 873,
          "correct": true,
          "direction": 0
        },
        {
          "trial_number": 18,
          "rt": 794,
          "correct": true,
          "direction": 180
        },
        {
          "trial_number": 19,
          "rt": 940,
          "correct": false,
          "direction": 180
        }
      ],
      "meanRT": 1053,
      "accuracy": 80
    }
  }
}