{
  "experiment": "rdk-face-1",
  "UUID": "83d8fb31-1c30-4539-abe7-981ece991a31",
  "data": {
    "session": {
      "experiment_version": "1.7",
      "treatment": "faces",
      "file_version": "1.5",
      "totalTrials": 120,
      "session_group": "default",
      "browserData": {
        "os": "Unknown",
        "browser": "Chrome",
        "screenResolution": "1366x768",
        "browserViewport": "1366x768"
      },
      "calibration": {
        "monitorWidthCm": 38,
        "viewingDistanceCm": 54,
        "pixelsPerDegree": 50
      },
      "parameters": {
        "coherence": 0.4,
        "apertureDeg": 5,
        "dotSpeedDegPerSec": 2,
        "lifetimeMs": 200,
        "fixationDurationMs": 1500,
        "faceDurationMs": 1500,
        "testDurationMs": 2000
      },
      "prolific": {
        "prolificPid": "60fe58dabcac84f95b003aa0",
        "studyId": "",
        "sessionId": ""
      },
      "timing": {
        "startTime": "2026-02-19T21:58:15.131Z",
        "endTime": "2026-02-19T22:10:28.274Z",
        "totalElapsedTimeMs": 733143
      }
    },
    "trials": [
      {
        "trial_number": 0,
        "trial_index": 48,
        "rt": 1360,
        "correct": true,
        "response": "ArrowLeft",
        "congruent": false,
        "eyesOpen": false,
        "faceOnLeft": true,
        "impliedDirection": 0,
        "testDirection": 180
      },
      {
        "trial_number": 1,
        "trial_index": 53,
        "rt": 566,
        "correct": true,
        "response": "ArrowRight",
        "congruent": false,
        "eyesOpen": true,
        "faceOnLeft": false,
        "impliedDirection": 180,
        "testDirection": 0
      },
      {
        "trial_number": 2,
        "trial_index": 58,
        "rt": 571,
        "correct": true,
        "response": "ArrowLeft",
        "congruent": true,
        "eyesOpen": true,
        "faceOnLeft": false,
        "impliedDirection": 180,
        "testDirection": 180
      },
      {
        "trial_number": 3,
        "trial_index": 63,
        "rt": 619,
        "correct": true,
        "response": "ArrowRight",
        "congruent": true,
        "eyesOpen": false,
        "faceOnLeft": true,
        "impliedDirection": 0,
        "testDirection": 0
      },
      {
        "trial_number": 4,
        "trial_index": 68,
        "rt": 518,
        "correct": true,
        "response": "ArrowLeft",
        "congruent": false,
        "eyesOpen": true,
        "faceOnLeft": true,
        "impliedDirection": 0,
        "testDirection": 180
      },
      {
        "trial_number": 5,
        "trial_index": 73,
        "rt": 444,
        "correct": true,
        "response": "ArrowRight",
        "congruent": true,
        "eyesOpen": true,
        "faceOnLeft": true,
        "impliedDirection": 0,
        "testDirection": 0
      },
      {
        "trial_number": 6,
        "trial_index": 78,
        "rt": 500,
        "correct": true,
        "response": "ArrowRight",
        "congruent": false,
        "eyesOpen": true,
        "faceOnLeft": false,
        "impliedDirection": 180,
        "testDirection": 0
      },
      {
        "trial_number": 7,
        "trial_index": 83,
        "rt": 449,
        "correct": true,
        "response": "ArrowRight",
        "congruent": false,
        "eyesOpen": true,
        "faceOnLeft": false,
        "impliedDirection": 180,
        "testDirection": 0
      },
      {
        "trial_number": 8,
        "trial_index": 88,
        "rt": 1757,
        "correct": true,
        "response": "ArrowRight",
        "congruent": false,
        "eyesOpen": false,
        "faceOnLeft": false,
        "impliedDirection": 180,
        "testDirection": 0
      },
      {
        "trial_number": 9,
        "trial_index": 93,
        "rt": 419,
        "correct": true,
        "response": "ArrowLeft",
        "congruent": true,
        "eyesOpen": false,
        "faceOnLeft": false,
        "impliedDirection": 180,
        "testDirection": 180
      },
      {
        "trial_number": 10,
        "trial_index": 98,
        "rt": 544,
        "correct": true,
        "response": "ArrowRight",
        "congruent": true,
        "eyesOpen": false,
        "faceOnLeft": true,
        "impliedDirection": 0,
        "testDirection": 0
      },
      {
        "trial_number": 11,
        "trial_index": 103,
        "rt": 411,
        "correct": true,
        "response": "ArrowLeft",
        "congruent": true,
        "eyesOpen": true,
        "faceOnLeft": false,
        "impliedDirection": 180,
        "testDirection": 180
      },
      {
        "trial_number": 12,
        "trial_index": 108,
        "rt": 542,
        "correct": true,
        "response": "ArrowRight",
        "congruent": true,
        "eyesOpen": true,
        "faceOnLeft": true,
        "impliedDirection": 0,
        "testDirection": 0
      },
      {
        "trial_number": 13,
        "trial_index": 113,
        "rt": 501,
        "correct": true,
        "response": "ArrowLeft",
        "congruent": true,
        "eyesOpen": false,
        "faceOnLeft": false,
        "impliedDirection": 180,
        "testDirection": 180
      },
      {
        "trial_number": 14,
        "trial_index": 118,
        "rt": 414,
        "correct": true,
        "response": "ArrowRight",
        "congruent": true,
        "eyesOpen": true,
        "faceOnLeft": true,
        "impliedDirection": 0,
        "testDirection": 0
      },
      {
        "trial_number": 15,
        "trial_index": 123,
        "rt": 483,
        "correct": true,
        "response": "ArrowRight",
        "congruent": true,
        "eyesOpen": true,
        "faceOnLeft": true,
        "impliedDirection": 0,
        "testDirection": 0
      },
      {
        "trial_number": 16,
        "trial_index": 128,
        "rt": 873,
        "correct": true,
        "response": "ArrowRight",
        "congruent": false,
        "eyesOpen": true,
        "faceOnLeft": false,
        "impliedDirection": 180,
        "testDirection": 0
      },
      {
        "trial_number": 17,
        "trial_index": 133,
        "rt": 877,
        "correct": true,
        "response": "ArrowRight",
        "congruent": true,
        "eyesOpen": true,
        "faceOnLeft": true,
        "impliedDirection": 0,
        "testDirection": 0
      },
      {
        "trial_number": 18,
        "trial_index": 138,
        "rt": 430,
        "correct": true,
        "response": "ArrowLeft",
        "congruent": false,
        "eyesOpen": false,
        "faceOnLeft": true,
        "impliedDirection": 0,
        "testDirection": 180
      },
      {
        "trial_number": 19,
        "trial_index": 143,
        "rt": 442,
        "correct": true,
        "response": "ArrowLeft",
        "congruent": false,
        "eyesOpen": true,
        "faceOnLeft": true,
        "impliedDirection": 0,
        "testDirection": 180
      },
      {
        "trial_number": 20,
        "trial_index": 148,
        "rt": 417,
        "correct": true,
        "response": "ArrowRight",
        "congruent": true,
        "eyesOpen": false,
        "faceOnLeft": true,
        "impliedDirection": 0,
        "testDirection": 0
      },
      {
        "trial_number": 21,
        "trial_index": 153,
        "rt": 478,
        "correct": true,
        "response": "ArrowLeft",
        "congruent": false,
        "eyesOpen": true,
        "faceOnLeft": true,
        "impliedDirection": 0,
        "testDirection": 180
      },
      {
        "trial_number": 22,
        "trial_index": 158,
        "rt": 479,
        "correct": true,
        "response": "ArrowLeft",
        "congruent": false,
        "eyesOpen": true,
        "faceOnLeft": true,
        "impliedDirection": 0,
        "testDirection": 180
      },
      {
        "trial_number": 23,
        "trial_index": 163,
        "rt": 535,
        "correct": true,
        "response": "ArrowLeft",
        "congruent": false,
        "eyesOpen": true,
        "faceOnLeft": true,
        "impliedDirection": 0,
        "testDirection": 180
      },
      {
        "trial_number": 24,
        "trial_index": 168,
        "rt": 483,
        "correct": true,
        "response": "ArrowRight",
        "congruent": false,
        "eyesOpen": false,
        "faceOnLeft": false,
        "impliedDirection": 180,
        "testDirection": 0
      },
      {
        "trial_number": 25,
        "trial_index": 173,
        "rt": 454,
        "correct": true,
        "response": "ArrowRight",
        "congruent": true,
        "eyesOpen": true,
        "faceOnLeft": true,
        "impliedDirection": 0,
        "testDirection": 0
      },
      {
        "trial_number": 26,
        "trial_index": 178,
        "rt": 557,
        "correct": true,
        "response": "ArrowRight",
        "congruent": true,
        "eyesOpen": false,
        "faceOnLeft": true,
        "impliedDirection": 0,
        "testDirection": 0
      },
      {
        "trial_number": 27,
        "trial_index": 183,
        "rt": 428,
        "correct": true,
        "response": "ArrowLeft",
        "congruent": true,
        "eyesOpen": false,
        "faceOnLeft": false,
        "impliedDirection": 180,
        "testDirection": 180
      },
      {
        "trial_number": 28,
        "trial_index": 188,
        "rt": 430,
        "correct": true,
        "response": "ArrowRight",
        "congruent": true,
        "eyesOpen": false,
        "faceOnLeft": true,
        "impliedDirection": 0,
        "testDirection": 0
      },
      {
        "trial_number": 29,
        "trial_index": 193,
        "rt": 580,
        "correct": true,
        "response": "ArrowRight",
        "congruent": false,
        "eyesOpen": true,
        "faceOnLeft": false,
        "impliedDirection": 180,
        "testDirection": 0
      },
      {
        "trial_number": 30,
        "trial_index": 199,
        "rt": 437,
        "correct": true,
        "response": "ArrowRight",
        "congruent": false,
        "eyesOpen": true,
        "faceOnLeft": false,
        "impliedDirection": 180,
        "testDirection": 0
      },
      {
        "trial_number": 31,
        "trial_index": 204,
        "rt": 569,
        "correct": true,
        "response": "ArrowRight",
        "congruent": false,
        "eyesOpen": false,
        "faceOnLeft": false,
        "impliedDirection": 180,
        "testDirection": 0
      },
      {
        "trial_number": 32,
        "trial_index": 209,
        "rt": 476,
        "correct": true,
        "response": "ArrowRight",
        "congruent": false,
        "eyesOpen": false,
        "faceOnLeft": false,
        "impliedDirection": 180,
        "testDirection": 0
      },
      {
        "trial_number": 33,
        "trial_index": 214,
        "rt": 431,
        "correct": true,
        "response": "ArrowLeft",
        "congruent": false,
        "eyesOpen": true,
        "faceOnLeft": true,
        "impliedDirection": 0,
        "testDirection": 180
      },
      {
        "trial_number": 34,
        "trial_index": 219,
        "rt": 654,
        "correct": false,
        "response": "ArrowLeft",
        "congruent": false,
        "eyesOpen": false,
        "faceOnLeft": false,
        "impliedDirection": 180,
        "testDirection": 0
      },
      {
        "trial_number": 35,
        "trial_index": 224,
        "rt": 562,
        "correct": true,
        "response": "ArrowRight",
        "congruent": true,
        "eyesOpen": false,
        "faceOnLeft": true,
        "impliedDirection": 0,
        "testDirection": 0
      },
      {
        "trial_number": 36,
        "trial_index": 229,
        "rt": 553,
        "correct": false,
        "response": "ArrowLeft",
        "congruent": true,
        "eyesOpen": true,
        "faceOnLeft": true,
        "impliedDirection": 0,
        "testDirection": 0
      },
      {
        "trial_number": 37,
        "trial_index": 234,
        "rt": 478,
        "correct": true,
        "response": "ArrowLeft",
        "congruent": false,
        "eyesOpen": false,
        "faceOnLeft": true,
        "impliedDirection": 0,
        "testDirection": 180
      },
      {
        "trial_number": 38,
        "trial_index": 239,
        "rt": 480,
        "correct": true,
        "response": "ArrowLeft",
        "congruent": false,
        "eyesOpen": false,
        "faceOnLeft": true,
        "impliedDirection": 0,
        "testDirection": 180
      },
      {
        "trial_number": 39,
        "trial_index": 244,
        "rt": 565,
        "correct": true,
        "response": "ArrowLeft",
        "congruent": false,
        "eyesOpen": false,
        "faceOnLeft": true,
        "impliedDirection": 0,
        "testDirection": 180
      },
      {
        "trial_number": 40,
        "trial_index": 249,
        "rt": 603,
        "correct": false,
        "response": "ArrowRight",
        "congruent": false,
        "eyesOpen": false,
        "faceOnLeft": true,
        "impliedDirection": 0,
        "testDirection": 180
      },
      {
        "trial_number": 41,
        "trial_index": 254,
        "rt": 868,
        "correct": false,
        "response": "ArrowRight",
        "congruent": true,
        "eyesOpen": true,
        "faceOnLeft": false,
        "impliedDirection": 180,
        "testDirection": 180
      },
      {
        "trial_number": 42,
        "trial_index": 259,
        "rt": 988,
        "correct": true,
        "response": "ArrowLeft",
        "congruent": false,
        "eyesOpen": false,
        "faceOnLeft": true,
        "impliedDirection": 0,
        "testDirection": 180
      },
      {
        "trial_number": 43,
        "trial_index": 264,
        "rt": 539,
        "correct": true,
        "response": "ArrowRight",
        "congruent": false,
        "eyesOpen": true,
        "faceOnLeft": false,
        "impliedDirection": 180,
        "testDirection": 0
      },
      {
        "trial_number": 44,
        "trial_index": 269,
        "rt": 511,
        "correct": true,
        "response": "ArrowLeft",
        "congruent": false,
        "eyesOpen": true,
        "faceOnLeft": true,
        "impliedDirection": 0,
        "testDirection": 180
      },
      {
        "trial_number": 45,
        "trial_index": 274,
        "rt": 696,
        "correct": true,
        "response": "ArrowLeft",
        "congruent": true,
        "eyesOpen": true,
        "faceOnLeft": false,
        "impliedDirection": 180,
        "testDirection": 180
      },
      {
        "trial_number": 46,
        "trial_index": 279,
        "rt": 445,
        "correct": true,
        "response": "ArrowRight",
        "congruent": false,
        "eyesOpen": false,
        "faceOnLeft": false,
        "impliedDirection": 180,
        "testDirection": 0
      },
      {
        "trial_number": 47,
        "trial_index": 284,
        "rt": 611,
        "correct": true,
        "response": "ArrowRight",
        "congruent": false,
        "eyesOpen": false,
        "faceOnLeft": false,
        "impliedDirection": 180,
        "testDirection": 0
      },
      {
        "trial_number": 48,
        "trial_index": 289,
        "rt": 484,
        "correct": true,
        "response": "ArrowLeft",
        "congruent": false,
        "eyesOpen": false,
        "faceOnLeft": true,
        "impliedDirection": 0,
        "testDirection": 180
      },
      {
        "trial_number": 49,
        "trial_index": 294,
        "rt": 566,
        "correct": false,
        "response": "ArrowRight",
        "congruent": true,
        "eyesOpen": true,
        "faceOnLeft": false,
        "impliedDirection": 180,
        "testDirection": 180
      },
      {
        "trial_number": 50,
        "trial_index": 299,
        "rt": 717,
        "correct": true,
        "response": "ArrowLeft",
        "congruent": true,
        "eyesOpen": true,
        "faceOnLeft": false,
        "impliedDirection": 180,
        "testDirection": 180
      },
      {
        "trial_number": 51,
        "trial_index": 304,
        "rt": 1772,
        "correct": true,
        "response": "ArrowLeft",
        "congruent": true,
        "eyesOpen": false,
        "faceOnLeft": false,
        "impliedDirection": 180,
        "testDirection": 180
      },
      {
        "trial_number": 52,
        "trial_index": 309,
        "rt": 1000,
        "correct": true,
        "response": "ArrowLeft",
        "congruent": true,
        "eyesOpen": true,
        "faceOnLeft": false,
        "impliedDirection": 180,
        "testDirection": 180
      },
      {
        "trial_number": 53,
        "trial_index": 314,
        "rt": 576,
        "correct": true,
        "response": "ArrowRight",
        "congruent": true,
        "eyesOpen": false,
        "faceOnLeft": true,
        "impliedDirection": 0,
        "testDirection": 0
      },
      {
        "trial_number": 54,
        "trial_index": 319,
        "rt": 546,
        "correct": true,
        "response": "ArrowRight",
        "congruent": true,
        "eyesOpen": true,
        "faceOnLeft": true,
        "impliedDirection": 0,
        "testDirection": 0
      },
      {
        "trial_number": 55,
        "trial_index": 324,
        "rt": 471,
        "correct": true,
        "response": "ArrowRight",
        "congruent": false,
        "eyesOpen": true,
        "faceOnLeft": false,
        "impliedDirection": 180,
        "testDirection": 0
      },
      {
        "trial_number": 56,
        "trial_index": 329,
        "rt": 494,
        "correct": true,
        "response": "ArrowLeft",
        "congruent": true,
        "eyesOpen": true,
        "faceOnLeft": false,
        "impliedDirection": 180,
        "testDirection": 180
      },
      {
        "trial_number": 57,
        "trial_index": 334,
        "rt": 618,
        "correct": true,
        "response": "ArrowRight",
        "congruent": true,
        "eyesOpen": false,
        "faceOnLeft": true,
        "impliedDirection": 0,
        "testDirection": 0
      },
      {
        "trial_number": 58,
        "trial_index": 339,
        "rt": 476,
        "correct": true,
        "response": "ArrowRight",
        "congruent": false,
        "eyesOpen": true,
        "faceOnLeft": false,
        "impliedDirection": 180,
        "testDirection": 0
      },
      {
        "trial_number": 59,
        "trial_index": 344,
        "rt": 560,
        "correct": true,
        "response": "ArrowRight",
        "congruent": false,
        "eyesOpen": false,
        "faceOnLeft": false,
        "impliedDirection": 180,
        "testDirection": 0
      },
      {
        "trial_number": 60,
        "trial_index": 350,
        "rt": 639,
        "correct": true,
        "response": "ArrowRight",
        "congruent": false,
        "eyesOpen": false,
        "faceOnLeft": false,
        "impliedDirection": 180,
        "testDirection": 0
      },
      {
        "trial_number": 61,
        "trial_index": 355,
        "rt": 970,
        "correct": true,
        "response": "ArrowLeft",
        "congruent": false,
        "eyesOpen": false,
        "faceOnLeft": true,
        "impliedDirection": 0,
        "testDirection": 180
      },
      {
        "trial_number": 62,
        "trial_index": 360,
        "rt": 398,
        "correct": true,
        "response": "ArrowRight",
        "congruent": true,
        "eyesOpen": false,
        "faceOnLeft": true,
        "impliedDirection": 0,
        "testDirection": 0
      },
      {
        "trial_number": 63,
        "trial_index": 365,
        "rt": 692,
        "correct": true,
        "response": "ArrowLeft",
        "congruent": true,
        "eyesOpen": true,
        "faceOnLeft": false,
        "impliedDirection": 180,
        "testDirection": 180
      },
      {
        "trial_number": 64,
        "trial_index": 370,
        "rt": 553,
        "correct": true,
        "response": "ArrowLeft",
        "congruent": false,
        "eyesOpen": false,
        "faceOnLeft": true,
        "impliedDirection": 0,
        "testDirection": 180
      },
      {
        "trial_number": 65,
        "trial_index": 375,
        "rt": 423,
        "correct": false,
        "response": "ArrowRight",
        "congruent": true,
        "eyesOpen": false,
        "faceOnLeft": false,
        "impliedDirection": 180,
        "testDirection": 180
      },
      {
        "trial_number": 66,
        "trial_index": 380,
        "rt": 553,
        "correct": true,
        "response": "ArrowRight",
        "congruent": true,
        "eyesOpen": false,
        "faceOnLeft": true,
        "impliedDirection": 0,
        "testDirection": 0
      },
      {
        "trial_number": 67,
        "trial_index": 385,
        "rt": 484,
        "correct": true,
        "response": "ArrowLeft",
        "congruent": true,
        "eyesOpen": true,
        "faceOnLeft": false,
        "impliedDirection": 180,
        "testDirection": 180
      },
      {
        "trial_number": 68,
        "trial_index": 390,
        "rt": 636,
        "correct": true,
        "response": "ArrowRight",
        "congruent": false,
        "eyesOpen": false,
        "faceOnLeft": false,
        "impliedDirection": 180,
        "testDirection": 0
      },
      {
        "trial_number": 69,
        "trial_index": 395,
        "rt": 671,
        "correct": true,
        "response": "ArrowRight",
        "congruent": true,
        "eyesOpen": false,
        "faceOnLeft": true,
        "impliedDirection": 0,
        "testDirection": 0
      },
      {
        "trial_number": 70,
        "trial_index": 400,
        "rt": 503,
        "correct": true,
        "response": "ArrowLeft",
        "congruent": false,
        "eyesOpen": false,
        "faceOnLeft": true,
        "impliedDirection": 0,
        "testDirection": 180
      },
      {
        "trial_number": 71,
        "trial_index": 405,
        "rt": 655,
        "correct": true,
        "response": "ArrowLeft",
        "congruent": false,
        "eyesOpen": true,
        "faceOnLeft": true,
        "impliedDirection": 0,
        "testDirection": 180
      },
      {
        "trial_number": 72,
        "trial_index": 410,
        "rt": 730,
        "correct": true,
        "response": "ArrowLeft",
        "congruent": false,
        "eyesOpen": true,
        "faceOnLeft": true,
        "impliedDirection": 0,
        "testDirection": 180
      },
      {
        "trial_number": 73,
        "trial_index": 415,
        "rt": 585,
        "correct": true,
        "response": "ArrowRight",
        "congruent": false,
        "eyesOpen": true,
        "faceOnLeft": false,
        "impliedDirection": 180,
        "testDirection": 0
      },
      {
        "trial_number": 74,
        "trial_index": 420,
        "rt": 829,
        "correct": false,
        "response": "ArrowRight",
        "congruent": true,
        "eyesOpen": false,
        "faceOnLeft": false,
        "impliedDirection": 180,
        "testDirection": 180
      },
      {
        "trial_number": 75,
        "trial_index": 425,
        "rt": 706,
        "correct": true,
        "response": "ArrowLeft",
        "congruent": false,
        "eyesOpen": true,
        "faceOnLeft": true,
        "impliedDirection": 0,
        "testDirection": 180
      },
      {
        "trial_number": 76,
        "trial_index": 430,
        "rt": 753,
        "correct": false,
        "response": "ArrowRight",
        "congruent": false,
        "eyesOpen": true,
        "faceOnLeft": true,
        "impliedDirection": 0,
        "testDirection": 180
      },
      {
        "trial_number": 77,
        "trial_index": 435,
        "rt": 691,
        "correct": true,
        "response": "ArrowRight",
        "congruent": true,
        "eyesOpen": true,
        "faceOnLeft": true,
        "impliedDirection": 0,
        "testDirection": 0
      },
      {
        "trial_number": 78,
        "trial_index": 440,
        "rt": 839,
        "correct": true,
        "response": "ArrowRight",
        "congruent": true,
        "eyesOpen": true,
        "faceOnLeft": true,
        "impliedDirection": 0,
        "testDirection": 0
      },
      {
        "trial_number": 79,
        "trial_index": 445,
        "rt": 870,
        "correct": true,
        "response": "ArrowLeft",
        "congruent": false,
        "eyesOpen": true,
        "faceOnLeft": true,
        "impliedDirection": 0,
        "testDirection": 180
      },
      {
        "trial_number": 80,
        "trial_index": 450,
        "rt": 597,
        "correct": true,
        "response": "ArrowRight",
        "congruent": false,
        "eyesOpen": true,
        "faceOnLeft": false,
        "impliedDirection": 180,
        "testDirection": 0
      },
      {
        "trial_number": 81,
        "trial_index": 455,
        "rt": 759,
        "correct": true,
        "response": "ArrowRight",
        "congruent": true,
        "eyesOpen": false,
        "faceOnLeft": true,
        "impliedDirection": 0,
        "testDirection": 0
      },
      {
        "trial_number": 82,
        "trial_index": 460,
        "rt": 693,
        "correct": false,
        "response": "ArrowLeft",
        "congruent": true,
        "eyesOpen": false,
        "faceOnLeft": true,
        "impliedDirection": 0,
        "testDirection": 0
      },
      {
        "trial_number": 83,
        "trial_index": 465,
        "rt": 729,
        "correct": true,
        "response": "ArrowRight",
        "congruent": true,
        "eyesOpen": false,
        "faceOnLeft": true,
        "impliedDirection": 0,
        "testDirection": 0
      },
      {
        "trial_number": 84,
        "trial_index": 470,
        "rt": 486,
        "correct": true,
        "response": "ArrowLeft",
        "congruent": true,
        "eyesOpen": true,
        "faceOnLeft": false,
        "impliedDirection": 180,
        "testDirection": 180
      },
      {
        "trial_number": 85,
        "trial_index": 475,
        "rt": 586,
        "correct": true,
        "response": "ArrowRight",
        "congruent": true,
        "eyesOpen": true,
        "faceOnLeft": true,
        "impliedDirection": 0,
        "testDirection": 0
      },
      {
        "trial_number": 86,
        "trial_index": 480,
        "rt": 524,
        "correct": true,
        "response": "ArrowLeft",
        "congruent": false,
        "eyesOpen": true,
        "faceOnLeft": true,
        "impliedDirection": 0,
        "testDirection": 180
      },
      {
        "trial_number": 87,
        "trial_index": 485,
        "rt": 575,
        "correct": true,
        "response": "ArrowLeft",
        "congruent": true,
        "eyesOpen": false,
        "faceOnLeft": false,
        "impliedDirection": 180,
        "testDirection": 180
      },
      {
        "trial_number": 88,
        "trial_index": 490,
        "rt": 669,
        "correct": true,
        "response": "ArrowLeft",
        "congruent": true,
        "eyesOpen": true,
        "faceOnLeft": false,
        "impliedDirection": 180,
        "testDirection": 180
      },
      {
        "trial_number": 89,
        "trial_index": 495,
        "rt": 503,
        "correct": true,
        "response": "ArrowRight",
        "congruent": false,
        "eyesOpen": true,
        "faceOnLeft": false,
        "impliedDirection": 180,
        "testDirection": 0
      },
      {
        "trial_number": 90,
        "trial_index": 501,
        "rt": 476,
        "correct": true,
        "response": "ArrowLeft",
        "congruent": true,
        "eyesOpen": true,
        "faceOnLeft": false,
        "impliedDirection": 180,
        "testDirection": 180
      },
      {
        "trial_number": 91,
        "trial_index": 506,
        "rt": 463,
        "correct": true,
        "response": "ArrowRight",
        "congruent": false,
        "eyesOpen": false,
        "faceOnLeft": false,
        "impliedDirection": 180,
        "testDirection": 0
      },
      {
        "trial_number": 92,
        "trial_index": 511,
        "rt": 605,
        "correct": true,
        "response": "ArrowRight",
        "congruent": false,
        "eyesOpen": true,
        "faceOnLeft": false,
        "impliedDirection": 180,
        "testDirection": 0
      },
      {
        "trial_number": 93,
        "trial_index": 516,
        "rt": 554,
        "correct": true,
        "response": "ArrowLeft",
        "congruent": true,
        "eyesOpen": false,
        "faceOnLeft": false,
        "impliedDirection": 180,
        "testDirection": 180
      },
      {
        "trial_number": 94,
        "trial_index": 521,
        "rt": 538,
        "correct": true,
        "response": "ArrowRight",
        "congruent": true,
        "eyesOpen": true,
        "faceOnLeft": true,
        "impliedDirection": 0,
        "testDirection": 0
      },
      {
        "trial_number": 95,
        "trial_index": 526,
        "rt": 683,
        "correct": false,
        "response": "ArrowLeft",
        "congruent": true,
        "eyesOpen": true,
        "faceOnLeft": true,
        "impliedDirection": 0,
        "testDirection": 0
      },
      {
        "trial_number": 96,
        "trial_index": 531,
        "rt": 569,
        "correct": true,
        "response": "ArrowLeft",
        "congruent": false,
        "eyesOpen": false,
        "faceOnLeft": true,
        "impliedDirection": 0,
        "testDirection": 180
      },
      {
        "trial_number": 97,
        "trial_index": 536,
        "rt": 473,
        "correct": true,
        "response": "ArrowRight",
        "congruent": false,
        "eyesOpen": false,
        "faceOnLeft": false,
        "impliedDirection": 180,
        "testDirection": 0
      },
      {
        "trial_number": 98,
        "trial_index": 541,
        "rt": 967,
        "correct": false,
        "response": "ArrowLeft",
        "congruent": true,
        "eyesOpen": false,
        "faceOnLeft": true,
        "impliedDirection": 0,
        "testDirection": 0
      },
      {
        "trial_number": 99,
        "trial_index": 546,
        "rt": 647,
        "correct": true,
        "response": "ArrowLeft",
        "congruent": true,
        "eyesOpen": true,
        "faceOnLeft": false,
        "impliedDirection": 180,
        "testDirection": 180
      },
      {
        "trial_number": 100,
        "trial_index": 551,
        "rt": 712,
        "correct": true,
        "response": "ArrowRight",
        "congruent": true,
        "eyesOpen": false,
        "faceOnLeft": true,
        "impliedDirection": 0,
        "testDirection": 0
      },
      {
        "trial_number": 101,
        "trial_index": 556,
        "rt": 790,
        "correct": false,
        "response": "ArrowLeft",
        "congruent": true,
        "eyesOpen": false,
        "faceOnLeft": true,
        "impliedDirection": 0,
        "testDirection": 0
      },
      {
        "trial_number": 102,
        "trial_index": 561,
        "rt": 650,
        "correct": true,
        "response": "ArrowLeft",
        "congruent": true,
        "eyesOpen": false,
        "faceOnLeft": false,
        "impliedDirection": 180,
        "testDirection": 180
      },
      {
        "trial_number": 103,
        "trial_index": 566,
        "rt": 1339,
        "correct": false,
        "response": "ArrowRight",
        "congruent": false,
        "eyesOpen": false,
        "faceOnLeft": true,
        "impliedDirection": 0,
        "testDirection": 180
      },
      {
        "trial_number": 104,
        "trial_index": 571,
        "rt": 607,
        "correct": true,
        "response": "ArrowLeft",
        "congruent": false,
        "eyesOpen": true,
        "faceOnLeft": true,
        "impliedDirection": 0,
        "testDirection": 180
      },
      {
        "trial_number": 105,
        "trial_index": 576,
        "rt": 1046,
        "correct": true,
        "response": "ArrowLeft",
        "congruent": false,
        "eyesOpen": false,
        "faceOnLeft": true,
        "impliedDirection": 0,
        "testDirection": 180
      },
      {
        "trial_number": 106,
        "trial_index": 581,
        "rt": null,
        "correct": false,
        "response": null,
        "congruent": true,
        "eyesOpen": false,
        "faceOnLeft": false,
        "impliedDirection": 180,
        "testDirection": 180
      },
      {
        "trial_number": 107,
        "trial_index": 586,
        "rt": 590,
        "correct": false,
        "response": "ArrowRight",
        "congruent": true,
        "eyesOpen": true,
        "faceOnLeft": false,
        "impliedDirection": 180,
        "testDirection": 180
      },
      {
        "trial_number": 108,
        "trial_index": 591,
        "rt": 636,
        "correct": false,
        "response": "ArrowRight",
        "congruent": true,
        "eyesOpen": false,
        "faceOnLeft": false,
        "impliedDirection": 180,
        "testDirection": 180
      },
      {
        "trial_number": 109,
        "trial_index": 596,
        "rt": 593,
        "correct": true,
        "response": "ArrowRight",
        "congruent": true,
        "eyesOpen": false,
        "faceOnLeft": true,
        "impliedDirection": 0,
        "testDirection": 0
      },
      {
        "trial_number": 110,
        "trial_index": 601,
        "rt": 463,
        "correct": true,
        "response": "ArrowLeft",
        "congruent": false,
        "eyesOpen": false,
        "faceOnLeft": true,
        "impliedDirection": 0,
        "testDirection": 180
      },
      {
        "trial_number": 111,
        "trial_index": 606,
        "rt": 491,
        "correct": true,
        "response": "ArrowRight",
        "congruent": true,
        "eyesOpen": true,
        "faceOnLeft": true,
        "impliedDirection": 0,
        "testDirection": 0
      },
      {
        "trial_number": 112,
        "trial_index": 611,
        "rt": 464,
        "correct": true,
        "response": "ArrowLeft",
        "congruent": true,
        "eyesOpen": false,
        "faceOnLeft": false,
        "impliedDirection": 180,
        "testDirection": 180
      },
      {
        "trial_number": 113,
        "trial_index": 616,
        "rt": 461,
        "correct": true,
        "response": "ArrowLeft",
        "congruent": false,
        "eyesOpen": false,
        "faceOnLeft": true,
        "impliedDirection": 0,
        "testDirection": 180
      },
      {
        "trial_number": 114,
        "trial_index": 621,
        "rt": 471,
        "correct": true,
        "response": "ArrowRight",
        "congruent": true,
        "eyesOpen": true,
        "faceOnLeft": true,
        "impliedDirection": 0,
        "testDirection": 0
      },
      {
        "trial_number": 115,
        "trial_index": 626,
        "rt": 430,
        "correct": true,
        "response": "ArrowLeft",
        "congruent": false,
        "eyesOpen": true,
        "faceOnLeft": true,
        "impliedDirection": 0,
        "testDirection": 180
      },
      {
        "trial_number": 116,
        "trial_index": 631,
        "rt": 475,
        "correct": true,
        "response": "ArrowRight",
        "congruent": false,
        "eyesOpen": false,
        "faceOnLeft": false,
        "impliedDirection": 180,
        "testDirection": 0
      },
      {
        "trial_number": 117,
        "trial_index": 636,
        "rt": 421,
        "correct": true,
        "response": "ArrowLeft",
        "congruent": false,
        "eyesOpen": true,
        "faceOnLeft": true,
        "impliedDirection": 0,
        "testDirection": 180
      },
      {
        "trial_number": 118,
        "trial_index": 641,
        "rt": 481,
        "correct": true,
        "response": "ArrowRight",
        "congruent": false,
        "eyesOpen": true,
        "faceOnLeft": false,
        "impliedDirection": 180,
        "testDirection": 0
      },
      {
        "trial_number": 119,
        "trial_index": 646,
        "rt": 489,
        "correct": true,
        "response": "ArrowLeft",
        "congruent": false,
        "eyesOpen": false,
        "faceOnLeft": true,
        "impliedDirection": 0,
        "testDirection": 180
      }
    ],
    "practice": {
      "trials": [
        {
          "trial_number": 0,
          "rt": 1802,
          "correct": false,
          "direction": 0
        },
        {
          "trial_number": 1,
          "rt": 741,
          "correct": true,
          "direction": 0
        },
        {
          "trial_number": 2,
          "rt": 799,
          "correct": true,
          "direction": 180
        },
        {
          "trial_number": 3,
          "rt": 1323,
          "correct": true,
          "direction": 180
        },
        {
          "trial_number": 4,
          "rt": null,
          "correct": false,
          "direction": 180
        },
        {
          "trial_number": 5,
          "rt": 494,
          "correct": true,
          "direction": 0
        },
        {
          "trial_number": 6,
          "rt": 563,
          "correct": true,
          "direction": 0
        },
        {
          "trial_number": 7,
          "rt": 584,
          "correct": true,
          "direction": 0
        },
        {
          "trial_number": 8,
          "rt": 508,
          "correct": true,
          "direction": 180
        },
        {
          "trial_number": 9,
          "rt": 736,
          "correct": true,
          "direction": 180
        }
      ],
      "meanRT": 839,
      "accuracy": 80
    }
  }
}