{
  "experiment": "rdk-face-1",
  "UUID": "1dd6de18-ed71-4fd9-8a7d-34340f64d1c6",
  "data": {
    "session": {
      "experiment_version": "1.8.6",
      "treatment": "faces_towards_away_catch",
      "file_version": "1.8.6",
      "totalTrials": 120,
      "totalTrialsIncludingCatch": 132,
      "conditions": {
        "gazeTowardsCount": 60,
        "gazeAwayCount": 60,
        "gazeTowardsAccuracy": 90,
        "gazeAwayAccuracy": 97
      },
      "session_group": "default",
      "browserData": {
        "os": "Windows",
        "browser": "Firefox",
        "screenResolution": "1536x864",
        "browserViewport": "1536x864",
        "devicePixelRatio": 1.25,
        "colorDepth": 24,
        "hardwareConcurrency": 16,
        "deviceMemory": "Unknown",
        "gpuRenderer": "ANGLE (AMD, Radeon HD 3200 Graphics Direct3D11 vs_5_0 ps_5_0), or similar",
        "measuredRefreshRateHz": 129
      },
      "attention": {
        "visibilityEvents": [
          {
            "event": "focus",
            "state": "focused",
            "timestamp": 1772766467620
          },
          {
            "event": "blur",
            "state": "blurred",
            "timestamp": 1772766469622
          },
          {
            "event": "visibilitychange",
            "state": "hidden",
            "timestamp": 1772766469917
          },
          {
            "event": "focus",
            "state": "focused",
            "timestamp": 1772766471072
          },
          {
            "event": "visibilitychange",
            "state": "visible",
            "timestamp": 1772766471073
          }
        ]
      },
      "calibration": {
        "monitorWidthCm": 38,
        "viewingDistanceCm": 54,
        "pixelsPerDegree": 50
      },
      "parameters": {
        "coherence": 0.4,
        "apertureDeg": 5,
        "densityDotsPerDeg2": 40,
        "dotDiameterDeg": 0.035,
        "dotSpeedDegPerSec": 3,
        "lifetimeMs": 200,
        "fixationDurationMs": 1500,
        "faceDurationMs": 1500,
        "testDurationMs": 2000,
        "catchResponseMs": 3000
      },
      "prolific": {
        "prolificPid": "695fa7f4b57108dcb964ac69",
        "studyId": "",
        "sessionId": ""
      },
      "timing": {
        "startTime": "2026-03-06T03:07:47.609Z",
        "endTime": "2026-03-06T03:24:58.747Z",
        "totalElapsedTimeMs": 1031138
      }
    },
    "trials": [
      {
        "trial_number": 0,
        "trial_index": 90,
        "rt": 1199,
        "correct": true,
        "response": "ArrowRight",
        "congruent": false,
        "gazeTowards": true,
        "gazeCondition": "towards",
        "faceOnLeft": false,
        "impliedDirection": 180,
        "testDirection": 0,
        "avgFps": 145,
        "minFps": 144,
        "maxFps": 1923,
        "totalFrames": 173,
        "frameRates": 145
      },
      {
        "trial_number": 1,
        "trial_index": 95,
        "rt": 1221,
        "correct": true,
        "response": "ArrowRight",
        "congruent": true,
        "gazeTowards": true,
        "gazeCondition": "towards",
        "faceOnLeft": true,
        "impliedDirection": 0,
        "testDirection": 0,
        "avgFps": 139,
        "minFps": 21,
        "maxFps": 2632,
        "totalFrames": 169,
        "frameRates": 139
      },
      {
        "trial_number": 2,
        "trial_index": 100,
        "rt": 1126,
        "correct": true,
        "response": "ArrowRight",
        "congruent": false,
        "gazeTowards": false,
        "gazeCondition": "away",
        "faceOnLeft": false,
        "impliedDirection": 180,
        "testDirection": 0,
        "avgFps": 144,
        "minFps": 61,
        "maxFps": 2500,
        "totalFrames": 161,
        "frameRates": 144
      },
      {
        "trial_number": 3,
        "trial_index": 105,
        "rt": 1172,
        "correct": true,
        "response": "ArrowRight",
        "congruent": false,
        "gazeTowards": true,
        "gazeCondition": "towards",
        "faceOnLeft": false,
        "impliedDirection": 180,
        "testDirection": 0,
        "avgFps": 143,
        "minFps": 42,
        "maxFps": 2000,
        "totalFrames": 167,
        "frameRates": 143
      },
      {
        "trial_number": 4,
        "trial_index": 110,
        "rt": 845,
        "correct": true,
        "response": "ArrowRight",
        "congruent": false,
        "gazeTowards": true,
        "gazeCondition": "towards",
        "faceOnLeft": false,
        "impliedDirection": 180,
        "testDirection": 0,
        "avgFps": 142,
        "minFps": 43,
        "maxFps": 3846,
        "totalFrames": 120,
        "frameRates": 142
      },
      {
        "trial_number": 5,
        "trial_index": 115,
        "rt": 677,
        "correct": true,
        "response": "ArrowLeft",
        "congruent": true,
        "gazeTowards": true,
        "gazeCondition": "towards",
        "faceOnLeft": false,
        "impliedDirection": 180,
        "testDirection": 180,
        "avgFps": 144,
        "minFps": 72,
        "maxFps": 2381,
        "totalFrames": 97,
        "frameRates": 144
      },
      {
        "trial_number": 6,
        "trial_index": 120,
        "rt": 1399,
        "correct": true,
        "response": "ArrowLeft",
        "congruent": false,
        "gazeTowards": false,
        "gazeCondition": "away",
        "faceOnLeft": true,
        "impliedDirection": 0,
        "testDirection": 180,
        "avgFps": 144,
        "minFps": 74,
        "maxFps": 2381,
        "totalFrames": 201,
        "frameRates": 144
      },
      {
        "trial_number": 7,
        "trial_index": 128,
        "rt": 1488,
        "correct": true,
        "response": "ArrowRight",
        "congruent": true,
        "gazeTowards": false,
        "gazeCondition": "away",
        "faceOnLeft": true,
        "impliedDirection": 0,
        "testDirection": 0,
        "avgFps": 143,
        "minFps": 42,
        "maxFps": 2000,
        "totalFrames": 212,
        "frameRates": 143
      },
      {
        "trial_number": 8,
        "trial_index": 133,
        "rt": 992,
        "correct": true,
        "response": "ArrowLeft",
        "congruent": false,
        "gazeTowards": false,
        "gazeCondition": "away",
        "faceOnLeft": true,
        "impliedDirection": 0,
        "testDirection": 180,
        "avgFps": 143,
        "minFps": 43,
        "maxFps": 1471,
        "totalFrames": 141,
        "frameRates": 143
      },
      {
        "trial_number": 9,
        "trial_index": 138,
        "rt": 618,
        "correct": true,
        "response": "ArrowRight",
        "congruent": true,
        "gazeTowards": false,
        "gazeCondition": "away",
        "faceOnLeft": true,
        "impliedDirection": 0,
        "testDirection": 0,
        "avgFps": 144,
        "minFps": 65,
        "maxFps": 2174,
        "totalFrames": 88,
        "frameRates": 144
      },
      {
        "trial_number": 10,
        "trial_index": 143,
        "rt": 1176,
        "correct": true,
        "response": "ArrowRight",
        "congruent": true,
        "gazeTowards": false,
        "gazeCondition": "away",
        "faceOnLeft": true,
        "impliedDirection": 0,
        "testDirection": 0,
        "avgFps": 144,
        "minFps": 71,
        "maxFps": 2273,
        "totalFrames": 169,
        "frameRates": 144
      },
      {
        "trial_number": 11,
        "trial_index": 148,
        "rt": 763,
        "correct": true,
        "response": "ArrowLeft",
        "congruent": false,
        "gazeTowards": true,
        "gazeCondition": "towards",
        "faceOnLeft": true,
        "impliedDirection": 0,
        "testDirection": 180,
        "avgFps": 133,
        "minFps": 29,
        "maxFps": 2083,
        "totalFrames": 101,
        "frameRates": 133
      },
      {
        "trial_number": 12,
        "trial_index": 153,
        "rt": 913,
        "correct": true,
        "response": "ArrowLeft",
        "congruent": true,
        "gazeTowards": true,
        "gazeCondition": "towards",
        "faceOnLeft": false,
        "impliedDirection": 180,
        "testDirection": 180,
        "avgFps": 143,
        "minFps": 56,
        "maxFps": 2500,
        "totalFrames": 130,
        "frameRates": 143
      },
      {
        "trial_number": 13,
        "trial_index": 158,
        "rt": 1077,
        "correct": true,
        "response": "ArrowRight",
        "congruent": false,
        "gazeTowards": true,
        "gazeCondition": "towards",
        "faceOnLeft": false,
        "impliedDirection": 180,
        "testDirection": 0,
        "avgFps": 144,
        "minFps": 68,
        "maxFps": 2273,
        "totalFrames": 154,
        "frameRates": 144
      },
      {
        "trial_number": 14,
        "trial_index": 172,
        "rt": 1362,
        "correct": true,
        "response": "ArrowRight",
        "congruent": true,
        "gazeTowards": true,
        "gazeCondition": "towards",
        "faceOnLeft": true,
        "impliedDirection": 0,
        "testDirection": 0,
        "avgFps": 143,
        "minFps": 44,
        "maxFps": 3571,
        "totalFrames": 194,
        "frameRates": 143
      },
      {
        "trial_number": 15,
        "trial_index": 177,
        "rt": 1354,
        "correct": true,
        "response": "ArrowRight",
        "congruent": true,
        "gazeTowards": false,
        "gazeCondition": "away",
        "faceOnLeft": true,
        "impliedDirection": 0,
        "testDirection": 0,
        "avgFps": 144,
        "minFps": 61,
        "maxFps": 2500,
        "totalFrames": 194,
        "frameRates": 144
      },
      {
        "trial_number": 16,
        "trial_index": 182,
        "rt": 1322,
        "correct": true,
        "response": "ArrowLeft",
        "congruent": true,
        "gazeTowards": false,
        "gazeCondition": "away",
        "faceOnLeft": false,
        "impliedDirection": 180,
        "testDirection": 180,
        "avgFps": 143,
        "minFps": 38,
        "maxFps": 2381,
        "totalFrames": 188,
        "frameRates": 143
      },
      {
        "trial_number": 17,
        "trial_index": 187,
        "rt": 870,
        "correct": true,
        "response": "ArrowRight",
        "congruent": true,
        "gazeTowards": false,
        "gazeCondition": "away",
        "faceOnLeft": true,
        "impliedDirection": 0,
        "testDirection": 0,
        "avgFps": 142,
        "minFps": 41,
        "maxFps": 2381,
        "totalFrames": 123,
        "frameRates": 142
      },
      {
        "trial_number": 18,
        "trial_index": 192,
        "rt": 964,
        "correct": true,
        "response": "ArrowRight",
        "congruent": true,
        "gazeTowards": true,
        "gazeCondition": "towards",
        "faceOnLeft": true,
        "impliedDirection": 0,
        "testDirection": 0,
        "avgFps": 143,
        "minFps": 43,
        "maxFps": 3125,
        "totalFrames": 137,
        "frameRates": 143
      },
      {
        "trial_number": 19,
        "trial_index": 197,
        "rt": 1081,
        "correct": true,
        "response": "ArrowRight",
        "congruent": false,
        "gazeTowards": false,
        "gazeCondition": "away",
        "faceOnLeft": false,
        "impliedDirection": 180,
        "testDirection": 0,
        "avgFps": 142,
        "minFps": 37,
        "maxFps": 2500,
        "totalFrames": 153,
        "frameRates": 142
      },
      {
        "trial_number": 20,
        "trial_index": 202,
        "rt": 1151,
        "correct": true,
        "response": "ArrowRight",
        "congruent": true,
        "gazeTowards": false,
        "gazeCondition": "away",
        "faceOnLeft": true,
        "impliedDirection": 0,
        "testDirection": 0,
        "avgFps": 142,
        "minFps": 33,
        "maxFps": 2381,
        "totalFrames": 163,
        "frameRates": 142
      },
      {
        "trial_number": 21,
        "trial_index": 207,
        "rt": 1654,
        "correct": true,
        "response": "ArrowLeft",
        "congruent": true,
        "gazeTowards": false,
        "gazeCondition": "away",
        "faceOnLeft": false,
        "impliedDirection": 180,
        "testDirection": 180,
        "avgFps": 144,
        "minFps": 66,
        "maxFps": 2381,
        "totalFrames": 238,
        "frameRates": 144
      },
      {
        "trial_number": 22,
        "trial_index": 212,
        "rt": 1358,
        "correct": true,
        "response": "ArrowLeft",
        "congruent": false,
        "gazeTowards": true,
        "gazeCondition": "towards",
        "faceOnLeft": true,
        "impliedDirection": 0,
        "testDirection": 180,
        "avgFps": 144,
        "minFps": 74,
        "maxFps": 2273,
        "totalFrames": 195,
        "frameRates": 144
      },
      {
        "trial_number": 23,
        "trial_index": 217,
        "rt": 874,
        "correct": true,
        "response": "ArrowRight",
        "congruent": false,
        "gazeTowards": false,
        "gazeCondition": "away",
        "faceOnLeft": false,
        "impliedDirection": 180,
        "testDirection": 0,
        "avgFps": 143,
        "minFps": 46,
        "maxFps": 3571,
        "totalFrames": 124,
        "frameRates": 143
      },
      {
        "trial_number": 24,
        "trial_index": 222,
        "rt": 786,
        "correct": true,
        "response": "ArrowLeft",
        "congruent": true,
        "gazeTowards": true,
        "gazeCondition": "towards",
        "faceOnLeft": false,
        "impliedDirection": 180,
        "testDirection": 180,
        "avgFps": 143,
        "minFps": 52,
        "maxFps": 2381,
        "totalFrames": 112,
        "frameRates": 143
      },
      {
        "trial_number": 25,
        "trial_index": 227,
        "rt": 1231,
        "correct": true,
        "response": "ArrowRight",
        "congruent": false,
        "gazeTowards": true,
        "gazeCondition": "towards",
        "faceOnLeft": false,
        "impliedDirection": 180,
        "testDirection": 0,
        "avgFps": 144,
        "minFps": 74,
        "maxFps": 3333,
        "totalFrames": 177,
        "frameRates": 144
      },
      {
        "trial_number": 26,
        "trial_index": 232,
        "rt": 765,
        "correct": true,
        "response": "ArrowLeft",
        "congruent": false,
        "gazeTowards": false,
        "gazeCondition": "away",
        "faceOnLeft": true,
        "impliedDirection": 0,
        "testDirection": 180,
        "avgFps": 143,
        "minFps": 59,
        "maxFps": 3125,
        "totalFrames": 109,
        "frameRates": 143
      },
      {
        "trial_number": 27,
        "trial_index": 237,
        "rt": 1820,
        "correct": true,
        "response": "ArrowRight",
        "congruent": true,
        "gazeTowards": true,
        "gazeCondition": "towards",
        "faceOnLeft": true,
        "impliedDirection": 0,
        "testDirection": 0,
        "avgFps": 143,
        "minFps": 41,
        "maxFps": 2273,
        "totalFrames": 260,
        "frameRates": 143
      },
      {
        "trial_number": 28,
        "trial_index": 242,
        "rt": 1408,
        "correct": true,
        "response": "ArrowRight",
        "congruent": true,
        "gazeTowards": false,
        "gazeCondition": "away",
        "faceOnLeft": true,
        "impliedDirection": 0,
        "testDirection": 0,
        "avgFps": 143,
        "minFps": 40,
        "maxFps": 2500,
        "totalFrames": 201,
        "frameRates": 143
      },
      {
        "trial_number": 29,
        "trial_index": 248,
        "rt": 1119,
        "correct": true,
        "response": "ArrowLeft",
        "congruent": false,
        "gazeTowards": false,
        "gazeCondition": "away",
        "faceOnLeft": true,
        "impliedDirection": 0,
        "testDirection": 180,
        "avgFps": 139,
        "minFps": 29,
        "maxFps": 2500,
        "totalFrames": 156,
        "frameRates": 139
      },
      {
        "trial_number": 30,
        "trial_index": 253,
        "rt": 1261,
        "correct": true,
        "response": "ArrowLeft",
        "congruent": true,
        "gazeTowards": true,
        "gazeCondition": "towards",
        "faceOnLeft": false,
        "impliedDirection": 180,
        "testDirection": 180,
        "avgFps": 143,
        "minFps": 53,
        "maxFps": 2000,
        "totalFrames": 180,
        "frameRates": 143
      },
      {
        "trial_number": 31,
        "trial_index": 258,
        "rt": 807,
        "correct": true,
        "response": "ArrowRight",
        "congruent": false,
        "gazeTowards": true,
        "gazeCondition": "towards",
        "faceOnLeft": false,
        "impliedDirection": 180,
        "testDirection": 0,
        "avgFps": 144,
        "minFps": 63,
        "maxFps": 2083,
        "totalFrames": 115,
        "frameRates": 144
      },
      {
        "trial_number": 32,
        "trial_index": 263,
        "rt": 1685,
        "correct": true,
        "response": "ArrowLeft",
        "congruent": false,
        "gazeTowards": false,
        "gazeCondition": "away",
        "faceOnLeft": true,
        "impliedDirection": 0,
        "testDirection": 180,
        "avgFps": 143,
        "minFps": 46,
        "maxFps": 2778,
        "totalFrames": 241,
        "frameRates": 143
      },
      {
        "trial_number": 33,
        "trial_index": 268,
        "rt": 1132,
        "correct": true,
        "response": "ArrowLeft",
        "congruent": true,
        "gazeTowards": true,
        "gazeCondition": "towards",
        "faceOnLeft": false,
        "impliedDirection": 180,
        "testDirection": 180,
        "avgFps": 143,
        "minFps": 43,
        "maxFps": 3571,
        "totalFrames": 161,
        "frameRates": 143
      },
      {
        "trial_number": 34,
        "trial_index": 273,
        "rt": 1232,
        "correct": true,
        "response": "ArrowLeft",
        "congruent": false,
        "gazeTowards": true,
        "gazeCondition": "towards",
        "faceOnLeft": true,
        "impliedDirection": 0,
        "testDirection": 180,
        "avgFps": 144,
        "minFps": 71,
        "maxFps": 2174,
        "totalFrames": 177,
        "frameRates": 144
      },
      {
        "trial_number": 35,
        "trial_index": 278,
        "rt": 1291,
        "correct": true,
        "response": "ArrowRight",
        "congruent": true,
        "gazeTowards": false,
        "gazeCondition": "away",
        "faceOnLeft": true,
        "impliedDirection": 0,
        "testDirection": 0,
        "avgFps": 144,
        "minFps": 87,
        "maxFps": 2381,
        "totalFrames": 186,
        "frameRates": 144
      },
      {
        "trial_number": 36,
        "trial_index": 283,
        "rt": 1268,
        "correct": true,
        "response": "ArrowLeft",
        "congruent": true,
        "gazeTowards": true,
        "gazeCondition": "towards",
        "faceOnLeft": false,
        "impliedDirection": 180,
        "testDirection": 180,
        "avgFps": 144,
        "minFps": 71,
        "maxFps": 2273,
        "totalFrames": 182,
        "frameRates": 144
      },
      {
        "trial_number": 37,
        "trial_index": 288,
        "rt": 1178,
        "correct": true,
        "response": "ArrowLeft",
        "congruent": false,
        "gazeTowards": true,
        "gazeCondition": "towards",
        "faceOnLeft": true,
        "impliedDirection": 0,
        "testDirection": 180,
        "avgFps": 144,
        "minFps": 62,
        "maxFps": 2174,
        "totalFrames": 169,
        "frameRates": 144
      },
      {
        "trial_number": 38,
        "trial_index": 293,
        "rt": 1111,
        "correct": true,
        "response": "ArrowLeft",
        "congruent": false,
        "gazeTowards": true,
        "gazeCondition": "towards",
        "faceOnLeft": true,
        "impliedDirection": 0,
        "testDirection": 180,
        "avgFps": 143,
        "minFps": 53,
        "maxFps": 2500,
        "totalFrames": 159,
        "frameRates": 143
      },
      {
        "trial_number": 39,
        "trial_index": 298,
        "rt": 1449,
        "correct": true,
        "response": "ArrowRight",
        "congruent": false,
        "gazeTowards": true,
        "gazeCondition": "towards",
        "faceOnLeft": false,
        "impliedDirection": 180,
        "testDirection": 0,
        "avgFps": 143,
        "minFps": 51,
        "maxFps": 2778,
        "totalFrames": 207,
        "frameRates": 143
      },
      {
        "trial_number": 40,
        "trial_index": 303,
        "rt": 1062,
        "correct": true,
        "response": "ArrowLeft",
        "congruent": true,
        "gazeTowards": false,
        "gazeCondition": "away",
        "faceOnLeft": false,
        "impliedDirection": 180,
        "testDirection": 180,
        "avgFps": 144,
        "minFps": 86,
        "maxFps": 2381,
        "totalFrames": 153,
        "frameRates": 144
      },
      {
        "trial_number": 41,
        "trial_index": 308,
        "rt": 1353,
        "correct": true,
        "response": "ArrowRight",
        "congruent": false,
        "gazeTowards": true,
        "gazeCondition": "towards",
        "faceOnLeft": false,
        "impliedDirection": 180,
        "testDirection": 0,
        "avgFps": 140,
        "minFps": 24,
        "maxFps": 2632,
        "totalFrames": 189,
        "frameRates": 140
      },
      {
        "trial_number": 42,
        "trial_index": 313,
        "rt": 1026,
        "correct": true,
        "response": "ArrowRight",
        "congruent": true,
        "gazeTowards": true,
        "gazeCondition": "towards",
        "faceOnLeft": true,
        "impliedDirection": 0,
        "testDirection": 0,
        "avgFps": 143,
        "minFps": 47,
        "maxFps": 2778,
        "totalFrames": 146,
        "frameRates": 143
      },
      {
        "trial_number": 43,
        "trial_index": 318,
        "rt": 1187,
        "correct": true,
        "response": "ArrowRight",
        "congruent": false,
        "gazeTowards": false,
        "gazeCondition": "away",
        "faceOnLeft": false,
        "impliedDirection": 180,
        "testDirection": 0,
        "avgFps": 143,
        "minFps": 49,
        "maxFps": 2941,
        "totalFrames": 170,
        "frameRates": 143
      },
      {
        "trial_number": 44,
        "trial_index": 323,
        "rt": 1474,
        "correct": true,
        "response": "ArrowLeft",
        "congruent": true,
        "gazeTowards": true,
        "gazeCondition": "towards",
        "faceOnLeft": false,
        "impliedDirection": 180,
        "testDirection": 180,
        "avgFps": 144,
        "minFps": 60,
        "maxFps": 2381,
        "totalFrames": 211,
        "frameRates": 144
      },
      {
        "trial_number": 45,
        "trial_index": 328,
        "rt": 845,
        "correct": true,
        "response": "ArrowRight",
        "congruent": false,
        "gazeTowards": false,
        "gazeCondition": "away",
        "faceOnLeft": false,
        "impliedDirection": 180,
        "testDirection": 0,
        "avgFps": 143,
        "minFps": 46,
        "maxFps": 2381,
        "totalFrames": 120,
        "frameRates": 143
      },
      {
        "trial_number": 46,
        "trial_index": 333,
        "rt": 1672,
        "correct": false,
        "response": "ArrowRight",
        "congruent": false,
        "gazeTowards": true,
        "gazeCondition": "towards",
        "faceOnLeft": true,
        "impliedDirection": 0,
        "testDirection": 180,
        "avgFps": 143,
        "minFps": 42,
        "maxFps": 2500,
        "totalFrames": 239,
        "frameRates": 143
      },
      {
        "trial_number": 47,
        "trial_index": 341,
        "rt": 1571,
        "correct": true,
        "response": "ArrowLeft",
        "congruent": true,
        "gazeTowards": true,
        "gazeCondition": "towards",
        "faceOnLeft": false,
        "impliedDirection": 180,
        "testDirection": 180,
        "avgFps": 144,
        "minFps": 77,
        "maxFps": 2273,
        "totalFrames": 226,
        "frameRates": 144
      },
      {
        "trial_number": 48,
        "trial_index": 346,
        "rt": 1242,
        "correct": true,
        "response": "ArrowRight",
        "congruent": false,
        "gazeTowards": true,
        "gazeCondition": "towards",
        "faceOnLeft": false,
        "impliedDirection": 180,
        "testDirection": 0,
        "avgFps": 144,
        "minFps": 92,
        "maxFps": 2273,
        "totalFrames": 179,
        "frameRates": 144
      },
      {
        "trial_number": 49,
        "trial_index": 351,
        "rt": 892,
        "correct": true,
        "response": "ArrowRight",
        "congruent": false,
        "gazeTowards": false,
        "gazeCondition": "away",
        "faceOnLeft": false,
        "impliedDirection": 180,
        "testDirection": 0,
        "avgFps": 144,
        "minFps": 64,
        "maxFps": 2500,
        "totalFrames": 128,
        "frameRates": 144
      },
      {
        "trial_number": 50,
        "trial_index": 356,
        "rt": 1700,
        "correct": true,
        "response": "ArrowLeft",
        "congruent": false,
        "gazeTowards": false,
        "gazeCondition": "away",
        "faceOnLeft": true,
        "impliedDirection": 0,
        "testDirection": 180,
        "avgFps": 144,
        "minFps": 77,
        "maxFps": 2500,
        "totalFrames": 244,
        "frameRates": 144
      },
      {
        "trial_number": 51,
        "trial_index": 361,
        "rt": 846,
        "correct": true,
        "response": "ArrowRight",
        "congruent": true,
        "gazeTowards": true,
        "gazeCondition": "towards",
        "faceOnLeft": true,
        "impliedDirection": 0,
        "testDirection": 0,
        "avgFps": 138,
        "minFps": 24,
        "maxFps": 2500,
        "totalFrames": 117,
        "frameRates": 138
      },
      {
        "trial_number": 52,
        "trial_index": 366,
        "rt": 1065,
        "correct": true,
        "response": "ArrowLeft",
        "congruent": false,
        "gazeTowards": true,
        "gazeCondition": "towards",
        "faceOnLeft": true,
        "impliedDirection": 0,
        "testDirection": 180,
        "avgFps": 143,
        "minFps": 44,
        "maxFps": 2174,
        "totalFrames": 152,
        "frameRates": 143
      },
      {
        "trial_number": 53,
        "trial_index": 371,
        "rt": 1466,
        "correct": true,
        "response": "ArrowLeft",
        "congruent": true,
        "gazeTowards": true,
        "gazeCondition": "towards",
        "faceOnLeft": false,
        "impliedDirection": 180,
        "testDirection": 180,
        "avgFps": 143,
        "minFps": 43,
        "maxFps": 2941,
        "totalFrames": 209,
        "frameRates": 143
      },
      {
        "trial_number": 54,
        "trial_index": 376,
        "rt": 1425,
        "correct": true,
        "response": "ArrowLeft",
        "congruent": true,
        "gazeTowards": true,
        "gazeCondition": "towards",
        "faceOnLeft": false,
        "impliedDirection": 180,
        "testDirection": 180,
        "avgFps": 144,
        "minFps": 55,
        "maxFps": 1923,
        "totalFrames": 204,
        "frameRates": 144
      },
      {
        "trial_number": 55,
        "trial_index": 381,
        "rt": 1467,
        "correct": true,
        "response": "ArrowLeft",
        "congruent": false,
        "gazeTowards": true,
        "gazeCondition": "towards",
        "faceOnLeft": true,
        "impliedDirection": 0,
        "testDirection": 180,
        "avgFps": 144,
        "minFps": 65,
        "maxFps": 2500,
        "totalFrames": 210,
        "frameRates": 144
      },
      {
        "trial_number": 56,
        "trial_index": 386,
        "rt": 925,
        "correct": true,
        "response": "ArrowLeft",
        "congruent": true,
        "gazeTowards": false,
        "gazeCondition": "away",
        "faceOnLeft": false,
        "impliedDirection": 180,
        "testDirection": 180,
        "avgFps": 143,
        "minFps": 57,
        "maxFps": 2632,
        "totalFrames": 132,
        "frameRates": 143
      },
      {
        "trial_number": 57,
        "trial_index": 391,
        "rt": 1236,
        "correct": true,
        "response": "ArrowLeft",
        "congruent": false,
        "gazeTowards": true,
        "gazeCondition": "towards",
        "faceOnLeft": true,
        "impliedDirection": 0,
        "testDirection": 180,
        "avgFps": 143,
        "minFps": 54,
        "maxFps": 2500,
        "totalFrames": 177,
        "frameRates": 143
      },
      {
        "trial_number": 58,
        "trial_index": 396,
        "rt": 1302,
        "correct": true,
        "response": "ArrowLeft",
        "congruent": false,
        "gazeTowards": false,
        "gazeCondition": "away",
        "faceOnLeft": true,
        "impliedDirection": 0,
        "testDirection": 180,
        "avgFps": 143,
        "minFps": 51,
        "maxFps": 3125,
        "totalFrames": 186,
        "frameRates": 143
      },
      {
        "trial_number": 59,
        "trial_index": 401,
        "rt": 1630,
        "correct": true,
        "response": "ArrowLeft",
        "congruent": false,
        "gazeTowards": true,
        "gazeCondition": "towards",
        "faceOnLeft": true,
        "impliedDirection": 0,
        "testDirection": 180,
        "avgFps": 144,
        "minFps": 55,
        "maxFps": 2273,
        "totalFrames": 234,
        "frameRates": 144
      },
      {
        "trial_number": 60,
        "trial_index": 410,
        "rt": 1336,
        "correct": true,
        "response": "ArrowRight",
        "congruent": false,
        "gazeTowards": false,
        "gazeCondition": "away",
        "faceOnLeft": false,
        "impliedDirection": 180,
        "testDirection": 0,
        "avgFps": 143,
        "minFps": 51,
        "maxFps": 2381,
        "totalFrames": 191,
        "frameRates": 143
      },
      {
        "trial_number": 61,
        "trial_index": 415,
        "rt": 1230,
        "correct": true,
        "response": "ArrowRight",
        "congruent": false,
        "gazeTowards": true,
        "gazeCondition": "towards",
        "faceOnLeft": false,
        "impliedDirection": 180,
        "testDirection": 0,
        "avgFps": 143,
        "minFps": 47,
        "maxFps": 2083,
        "totalFrames": 175,
        "frameRates": 143
      },
      {
        "trial_number": 62,
        "trial_index": 426,
        "rt": 1884,
        "correct": true,
        "response": "ArrowLeft",
        "congruent": true,
        "gazeTowards": false,
        "gazeCondition": "away",
        "faceOnLeft": false,
        "impliedDirection": 180,
        "testDirection": 180,
        "avgFps": 144,
        "minFps": 71,
        "maxFps": 2632,
        "totalFrames": 271,
        "frameRates": 144
      },
      {
        "trial_number": 63,
        "trial_index": 431,
        "rt": 1518,
        "correct": true,
        "response": "ArrowRight",
        "congruent": false,
        "gazeTowards": false,
        "gazeCondition": "away",
        "faceOnLeft": false,
        "impliedDirection": 180,
        "testDirection": 0,
        "avgFps": 144,
        "minFps": 71,
        "maxFps": 2273,
        "totalFrames": 218,
        "frameRates": 144
      },
      {
        "trial_number": 64,
        "trial_index": 436,
        "rt": 1524,
        "correct": true,
        "response": "ArrowRight",
        "congruent": false,
        "gazeTowards": true,
        "gazeCondition": "towards",
        "faceOnLeft": false,
        "impliedDirection": 180,
        "testDirection": 0,
        "avgFps": 144,
        "minFps": 59,
        "maxFps": 2273,
        "totalFrames": 218,
        "frameRates": 144
      },
      {
        "trial_number": 65,
        "trial_index": 441,
        "rt": 1422,
        "correct": true,
        "response": "ArrowLeft",
        "congruent": true,
        "gazeTowards": false,
        "gazeCondition": "away",
        "faceOnLeft": false,
        "impliedDirection": 180,
        "testDirection": 180,
        "avgFps": 144,
        "minFps": 56,
        "maxFps": 2632,
        "totalFrames": 204,
        "frameRates": 144
      },
      {
        "trial_number": 66,
        "trial_index": 446,
        "rt": 1188,
        "correct": true,
        "response": "ArrowLeft",
        "congruent": false,
        "gazeTowards": false,
        "gazeCondition": "away",
        "faceOnLeft": true,
        "impliedDirection": 0,
        "testDirection": 180,
        "avgFps": 143,
        "minFps": 41,
        "maxFps": 2174,
        "totalFrames": 169,
        "frameRates": 143
      },
      {
        "trial_number": 67,
        "trial_index": 451,
        "rt": 1471,
        "correct": true,
        "response": "ArrowLeft",
        "congruent": true,
        "gazeTowards": true,
        "gazeCondition": "towards",
        "faceOnLeft": false,
        "impliedDirection": 180,
        "testDirection": 180,
        "avgFps": 143,
        "minFps": 44,
        "maxFps": 2381,
        "totalFrames": 210,
        "frameRates": 143
      },
      {
        "trial_number": 68,
        "trial_index": 456,
        "rt": 1438,
        "correct": true,
        "response": "ArrowRight",
        "congruent": true,
        "gazeTowards": false,
        "gazeCondition": "away",
        "faceOnLeft": true,
        "impliedDirection": 0,
        "testDirection": 0,
        "avgFps": 143,
        "minFps": 44,
        "maxFps": 1923,
        "totalFrames": 205,
        "frameRates": 143
      },
      {
        "trial_number": 69,
        "trial_index": 461,
        "rt": 1676,
        "correct": true,
        "response": "ArrowLeft",
        "congruent": false,
        "gazeTowards": false,
        "gazeCondition": "away",
        "faceOnLeft": true,
        "impliedDirection": 0,
        "testDirection": 180,
        "avgFps": 143,
        "minFps": 49,
        "maxFps": 2273,
        "totalFrames": 240,
        "frameRates": 143
      },
      {
        "trial_number": 70,
        "trial_index": 466,
        "rt": 1309,
        "correct": true,
        "response": "ArrowRight",
        "congruent": false,
        "gazeTowards": true,
        "gazeCondition": "towards",
        "faceOnLeft": false,
        "impliedDirection": 180,
        "testDirection": 0,
        "avgFps": 143,
        "minFps": 47,
        "maxFps": 2500,
        "totalFrames": 187,
        "frameRates": 143
      },
      {
        "trial_number": 71,
        "trial_index": 471,
        "rt": 1503,
        "correct": true,
        "response": "ArrowLeft",
        "congruent": true,
        "gazeTowards": true,
        "gazeCondition": "towards",
        "faceOnLeft": false,
        "impliedDirection": 180,
        "testDirection": 180,
        "avgFps": 144,
        "minFps": 87,
        "maxFps": 3125,
        "totalFrames": 216,
        "frameRates": 144
      },
      {
        "trial_number": 72,
        "trial_index": 476,
        "rt": 1501,
        "correct": true,
        "response": "ArrowLeft",
        "congruent": true,
        "gazeTowards": false,
        "gazeCondition": "away",
        "faceOnLeft": false,
        "impliedDirection": 180,
        "testDirection": 180,
        "avgFps": 143,
        "minFps": 38,
        "maxFps": 2273,
        "totalFrames": 214,
        "frameRates": 143
      },
      {
        "trial_number": 73,
        "trial_index": 481,
        "rt": 817,
        "correct": true,
        "response": "ArrowRight",
        "congruent": false,
        "gazeTowards": true,
        "gazeCondition": "towards",
        "faceOnLeft": false,
        "impliedDirection": 180,
        "testDirection": 0,
        "avgFps": 143,
        "minFps": 58,
        "maxFps": 3846,
        "totalFrames": 117,
        "frameRates": 143
      },
      {
        "trial_number": 74,
        "trial_index": 486,
        "rt": 1276,
        "correct": true,
        "response": "ArrowRight",
        "congruent": false,
        "gazeTowards": false,
        "gazeCondition": "away",
        "faceOnLeft": false,
        "impliedDirection": 180,
        "testDirection": 0,
        "avgFps": 143,
        "minFps": 51,
        "maxFps": 2273,
        "totalFrames": 182,
        "frameRates": 143
      },
      {
        "trial_number": 75,
        "trial_index": 491,
        "rt": 1399,
        "correct": true,
        "response": "ArrowRight",
        "congruent": false,
        "gazeTowards": false,
        "gazeCondition": "away",
        "faceOnLeft": false,
        "impliedDirection": 180,
        "testDirection": 0,
        "avgFps": 143,
        "minFps": 37,
        "maxFps": 2632,
        "totalFrames": 199,
        "frameRates": 143
      },
      {
        "trial_number": 76,
        "trial_index": 496,
        "rt": 1316,
        "correct": true,
        "response": "ArrowLeft",
        "congruent": true,
        "gazeTowards": false,
        "gazeCondition": "away",
        "faceOnLeft": false,
        "impliedDirection": 180,
        "testDirection": 180,
        "avgFps": 144,
        "minFps": 60,
        "maxFps": 2000,
        "totalFrames": 189,
        "frameRates": 144
      },
      {
        "trial_number": 77,
        "trial_index": 504,
        "rt": 1256,
        "correct": true,
        "response": "ArrowRight",
        "congruent": false,
        "gazeTowards": false,
        "gazeCondition": "away",
        "faceOnLeft": false,
        "impliedDirection": 180,
        "testDirection": 0,
        "avgFps": 144,
        "minFps": 81,
        "maxFps": 2632,
        "totalFrames": 181,
        "frameRates": 144
      },
      {
        "trial_number": 78,
        "trial_index": 509,
        "rt": 1239,
        "correct": true,
        "response": "ArrowRight",
        "congruent": false,
        "gazeTowards": false,
        "gazeCondition": "away",
        "faceOnLeft": false,
        "impliedDirection": 180,
        "testDirection": 0,
        "avgFps": 144,
        "minFps": 62,
        "maxFps": 2083,
        "totalFrames": 178,
        "frameRates": 144
      },
      {
        "trial_number": 79,
        "trial_index": 514,
        "rt": 1530,
        "correct": true,
        "response": "ArrowRight",
        "congruent": false,
        "gazeTowards": true,
        "gazeCondition": "towards",
        "faceOnLeft": false,
        "impliedDirection": 180,
        "testDirection": 0,
        "avgFps": 143,
        "minFps": 46,
        "maxFps": 2500,
        "totalFrames": 219,
        "frameRates": 143
      },
      {
        "trial_number": 80,
        "trial_index": 519,
        "rt": 1247,
        "correct": true,
        "response": "ArrowRight",
        "congruent": false,
        "gazeTowards": true,
        "gazeCondition": "towards",
        "faceOnLeft": false,
        "impliedDirection": 180,
        "testDirection": 0,
        "avgFps": 144,
        "minFps": 87,
        "maxFps": 1000,
        "totalFrames": 179,
        "frameRates": 144
      },
      {
        "trial_number": 81,
        "trial_index": 524,
        "rt": 1443,
        "correct": true,
        "response": "ArrowRight",
        "congruent": true,
        "gazeTowards": true,
        "gazeCondition": "towards",
        "faceOnLeft": true,
        "impliedDirection": 0,
        "testDirection": 0,
        "avgFps": 141,
        "minFps": 36,
        "maxFps": 1000,
        "totalFrames": 203,
        "frameRates": 141
      },
      {
        "trial_number": 82,
        "trial_index": 529,
        "rt": 1263,
        "correct": true,
        "response": "ArrowRight",
        "congruent": true,
        "gazeTowards": false,
        "gazeCondition": "away",
        "faceOnLeft": true,
        "impliedDirection": 0,
        "testDirection": 0,
        "avgFps": 143,
        "minFps": 43,
        "maxFps": 2632,
        "totalFrames": 180,
        "frameRates": 143
      },
      {
        "trial_number": 83,
        "trial_index": 534,
        "rt": 1258,
        "correct": true,
        "response": "ArrowLeft",
        "congruent": true,
        "gazeTowards": true,
        "gazeCondition": "towards",
        "faceOnLeft": false,
        "impliedDirection": 180,
        "testDirection": 180,
        "avgFps": 144,
        "minFps": 95,
        "maxFps": 2632,
        "totalFrames": 181,
        "frameRates": 144
      },
      {
        "trial_number": 84,
        "trial_index": 539,
        "rt": 942,
        "correct": true,
        "response": "ArrowRight",
        "congruent": true,
        "gazeTowards": false,
        "gazeCondition": "away",
        "faceOnLeft": true,
        "impliedDirection": 0,
        "testDirection": 0,
        "avgFps": 142,
        "minFps": 38,
        "maxFps": 2500,
        "totalFrames": 133,
        "frameRates": 142
      },
      {
        "trial_number": 85,
        "trial_index": 544,
        "rt": 1248,
        "correct": true,
        "response": "ArrowRight",
        "congruent": false,
        "gazeTowards": false,
        "gazeCondition": "away",
        "faceOnLeft": false,
        "impliedDirection": 180,
        "testDirection": 0,
        "avgFps": 144,
        "minFps": 60,
        "maxFps": 2000,
        "totalFrames": 179,
        "frameRates": 144
      },
      {
        "trial_number": 86,
        "trial_index": 549,
        "rt": 1356,
        "correct": true,
        "response": "ArrowRight",
        "congruent": false,
        "gazeTowards": false,
        "gazeCondition": "away",
        "faceOnLeft": false,
        "impliedDirection": 180,
        "testDirection": 0,
        "avgFps": 143,
        "minFps": 37,
        "maxFps": 4545,
        "totalFrames": 193,
        "frameRates": 143
      },
      {
        "trial_number": 87,
        "trial_index": 554,
        "rt": 1508,
        "correct": true,
        "response": "ArrowLeft",
        "congruent": true,
        "gazeTowards": true,
        "gazeCondition": "towards",
        "faceOnLeft": false,
        "impliedDirection": 180,
        "testDirection": 180,
        "avgFps": 143,
        "minFps": 49,
        "maxFps": 2381,
        "totalFrames": 216,
        "frameRates": 143
      },
      {
        "trial_number": 88,
        "trial_index": 562,
        "rt": 1642,
        "correct": true,
        "response": "ArrowLeft",
        "congruent": true,
        "gazeTowards": false,
        "gazeCondition": "away",
        "faceOnLeft": false,
        "impliedDirection": 180,
        "testDirection": 180,
        "avgFps": 143,
        "minFps": 45,
        "maxFps": 2500,
        "totalFrames": 235,
        "frameRates": 143
      },
      {
        "trial_number": 89,
        "trial_index": 568,
        "rt": 1709,
        "correct": true,
        "response": "ArrowLeft",
        "congruent": true,
        "gazeTowards": true,
        "gazeCondition": "towards",
        "faceOnLeft": false,
        "impliedDirection": 180,
        "testDirection": 180,
        "avgFps": 144,
        "minFps": 62,
        "maxFps": 2632,
        "totalFrames": 245,
        "frameRates": 144
      },
      {
        "trial_number": 90,
        "trial_index": 573,
        "rt": 1959,
        "correct": true,
        "response": "ArrowLeft",
        "congruent": true,
        "gazeTowards": false,
        "gazeCondition": "away",
        "faceOnLeft": false,
        "impliedDirection": 180,
        "testDirection": 180,
        "avgFps": 144,
        "minFps": 92,
        "maxFps": 2273,
        "totalFrames": 282,
        "frameRates": 144
      },
      {
        "trial_number": 91,
        "trial_index": 578,
        "rt": 1763,
        "correct": true,
        "response": "ArrowRight",
        "congruent": false,
        "gazeTowards": false,
        "gazeCondition": "away",
        "faceOnLeft": false,
        "impliedDirection": 180,
        "testDirection": 0,
        "avgFps": 141,
        "minFps": 29,
        "maxFps": 2381,
        "totalFrames": 248,
        "frameRates": 141
      },
      {
        "trial_number": 92,
        "trial_index": 583,
        "rt": 1815,
        "correct": true,
        "response": "ArrowRight",
        "congruent": true,
        "gazeTowards": false,
        "gazeCondition": "away",
        "faceOnLeft": true,
        "impliedDirection": 0,
        "testDirection": 0,
        "avgFps": 143,
        "minFps": 49,
        "maxFps": 2273,
        "totalFrames": 260,
        "frameRates": 143
      },
      {
        "trial_number": 93,
        "trial_index": 588,
        "rt": 1514,
        "correct": true,
        "response": "ArrowLeft",
        "congruent": true,
        "gazeTowards": true,
        "gazeCondition": "towards",
        "faceOnLeft": false,
        "impliedDirection": 180,
        "testDirection": 180,
        "avgFps": 143,
        "minFps": 42,
        "maxFps": 2174,
        "totalFrames": 216,
        "frameRates": 143
      },
      {
        "trial_number": 94,
        "trial_index": 593,
        "rt": 1338,
        "correct": true,
        "response": "ArrowLeft",
        "congruent": true,
        "gazeTowards": false,
        "gazeCondition": "away",
        "faceOnLeft": false,
        "impliedDirection": 180,
        "testDirection": 180,
        "avgFps": 143,
        "minFps": 48,
        "maxFps": 2273,
        "totalFrames": 191,
        "frameRates": 143
      },
      {
        "trial_number": 95,
        "trial_index": 598,
        "rt": 1475,
        "correct": true,
        "response": "ArrowLeft",
        "congruent": true,
        "gazeTowards": false,
        "gazeCondition": "away",
        "faceOnLeft": false,
        "impliedDirection": 180,
        "testDirection": 180,
        "avgFps": 143,
        "minFps": 46,
        "maxFps": 2174,
        "totalFrames": 211,
        "frameRates": 143
      },
      {
        "trial_number": 96,
        "trial_index": 603,
        "rt": 1358,
        "correct": true,
        "response": "ArrowLeft",
        "congruent": false,
        "gazeTowards": false,
        "gazeCondition": "away",
        "faceOnLeft": true,
        "impliedDirection": 0,
        "testDirection": 180,
        "avgFps": 144,
        "minFps": 57,
        "maxFps": 2381,
        "totalFrames": 194,
        "frameRates": 144
      },
      {
        "trial_number": 97,
        "trial_index": 608,
        "rt": 1642,
        "correct": true,
        "response": "ArrowRight",
        "congruent": false,
        "gazeTowards": false,
        "gazeCondition": "away",
        "faceOnLeft": false,
        "impliedDirection": 180,
        "testDirection": 0,
        "avgFps": 144,
        "minFps": 88,
        "maxFps": 2381,
        "totalFrames": 236,
        "frameRates": 144
      },
      {
        "trial_number": 98,
        "trial_index": 613,
        "rt": 1585,
        "correct": true,
        "response": "ArrowLeft",
        "congruent": false,
        "gazeTowards": true,
        "gazeCondition": "towards",
        "faceOnLeft": true,
        "impliedDirection": 0,
        "testDirection": 180,
        "avgFps": 143,
        "minFps": 39,
        "maxFps": 2273,
        "totalFrames": 226,
        "frameRates": 143
      },
      {
        "trial_number": 99,
        "trial_index": 618,
        "rt": 1721,
        "correct": true,
        "response": "ArrowRight",
        "congruent": true,
        "gazeTowards": true,
        "gazeCondition": "towards",
        "faceOnLeft": true,
        "impliedDirection": 0,
        "testDirection": 0,
        "avgFps": 144,
        "minFps": 61,
        "maxFps": 2273,
        "totalFrames": 247,
        "frameRates": 144
      },
      {
        "trial_number": 100,
        "trial_index": 623,
        "rt": 1614,
        "correct": true,
        "response": "ArrowLeft",
        "congruent": true,
        "gazeTowards": false,
        "gazeCondition": "away",
        "faceOnLeft": false,
        "impliedDirection": 180,
        "testDirection": 180,
        "avgFps": 143,
        "minFps": 41,
        "maxFps": 2273,
        "totalFrames": 230,
        "frameRates": 143
      },
      {
        "trial_number": 101,
        "trial_index": 628,
        "rt": 1726,
        "correct": false,
        "response": "ArrowRight",
        "congruent": false,
        "gazeTowards": true,
        "gazeCondition": "towards",
        "faceOnLeft": true,
        "impliedDirection": 0,
        "testDirection": 180,
        "avgFps": 141,
        "minFps": 29,
        "maxFps": 2500,
        "totalFrames": 243,
        "frameRates": 141
      },
      {
        "trial_number": 102,
        "trial_index": 633,
        "rt": 1701,
        "correct": true,
        "response": "ArrowRight",
        "congruent": true,
        "gazeTowards": true,
        "gazeCondition": "towards",
        "faceOnLeft": true,
        "impliedDirection": 0,
        "testDirection": 0,
        "avgFps": 143,
        "minFps": 46,
        "maxFps": 2174,
        "totalFrames": 243,
        "frameRates": 143
      },
      {
        "trial_number": 103,
        "trial_index": 638,
        "rt": 1725,
        "correct": true,
        "response": "ArrowRight",
        "congruent": false,
        "gazeTowards": false,
        "gazeCondition": "away",
        "faceOnLeft": false,
        "impliedDirection": 180,
        "testDirection": 0,
        "avgFps": 143,
        "minFps": 47,
        "maxFps": 2273,
        "totalFrames": 247,
        "frameRates": 143
      },
      {
        "trial_number": 104,
        "trial_index": 646,
        "rt": null,
        "correct": false,
        "response": null,
        "congruent": true,
        "gazeTowards": true,
        "gazeCondition": "towards",
        "faceOnLeft": false,
        "impliedDirection": 180,
        "testDirection": 180,
        "avgFps": 144,
        "minFps": 63,
        "maxFps": 2381,
        "totalFrames": 288,
        "frameRates": 144
      },
      {
        "trial_number": 105,
        "trial_index": 651,
        "rt": 963,
        "correct": true,
        "response": "ArrowLeft",
        "congruent": true,
        "gazeTowards": true,
        "gazeCondition": "towards",
        "faceOnLeft": false,
        "impliedDirection": 180,
        "testDirection": 180,
        "avgFps": 143,
        "minFps": 43,
        "maxFps": 2381,
        "totalFrames": 137,
        "frameRates": 143
      },
      {
        "trial_number": 106,
        "trial_index": 656,
        "rt": 903,
        "correct": true,
        "response": "ArrowRight",
        "congruent": false,
        "gazeTowards": false,
        "gazeCondition": "away",
        "faceOnLeft": false,
        "impliedDirection": 180,
        "testDirection": 0,
        "avgFps": 144,
        "minFps": 66,
        "maxFps": 2500,
        "totalFrames": 129,
        "frameRates": 144
      },
      {
        "trial_number": 107,
        "trial_index": 661,
        "rt": 1269,
        "correct": false,
        "response": "ArrowRight",
        "congruent": false,
        "gazeTowards": true,
        "gazeCondition": "towards",
        "faceOnLeft": true,
        "impliedDirection": 0,
        "testDirection": 180,
        "avgFps": 144,
        "minFps": 64,
        "maxFps": 2632,
        "totalFrames": 182,
        "frameRates": 144
      },
      {
        "trial_number": 108,
        "trial_index": 666,
        "rt": 681,
        "correct": true,
        "response": "ArrowLeft",
        "congruent": true,
        "gazeTowards": true,
        "gazeCondition": "towards",
        "faceOnLeft": false,
        "impliedDirection": 180,
        "testDirection": 180,
        "avgFps": 144,
        "minFps": 64,
        "maxFps": 2381,
        "totalFrames": 97,
        "frameRates": 144
      },
      {
        "trial_number": 109,
        "trial_index": 671,
        "rt": 561,
        "correct": true,
        "response": "ArrowRight",
        "congruent": true,
        "gazeTowards": false,
        "gazeCondition": "away",
        "faceOnLeft": true,
        "impliedDirection": 0,
        "testDirection": 0,
        "avgFps": 143,
        "minFps": 59,
        "maxFps": 2632,
        "totalFrames": 80,
        "frameRates": 143
      },
      {
        "trial_number": 110,
        "trial_index": 676,
        "rt": 985,
        "correct": true,
        "response": "ArrowRight",
        "congruent": true,
        "gazeTowards": false,
        "gazeCondition": "away",
        "faceOnLeft": true,
        "impliedDirection": 0,
        "testDirection": 0,
        "avgFps": 144,
        "minFps": 59,
        "maxFps": 2778,
        "totalFrames": 141,
        "frameRates": 144
      },
      {
        "trial_number": 111,
        "trial_index": 681,
        "rt": 670,
        "correct": false,
        "response": "ArrowLeft",
        "congruent": true,
        "gazeTowards": true,
        "gazeCondition": "towards",
        "faceOnLeft": true,
        "impliedDirection": 0,
        "testDirection": 0,
        "avgFps": 136,
        "minFps": 24,
        "maxFps": 2632,
        "totalFrames": 91,
        "frameRates": 136
      },
      {
        "trial_number": 112,
        "trial_index": 686,
        "rt": 831,
        "correct": false,
        "response": "ArrowRight",
        "congruent": false,
        "gazeTowards": true,
        "gazeCondition": "towards",
        "faceOnLeft": true,
        "impliedDirection": 0,
        "testDirection": 180,
        "avgFps": 144,
        "minFps": 76,
        "maxFps": 2083,
        "totalFrames": 119,
        "frameRates": 144
      },
      {
        "trial_number": 113,
        "trial_index": 691,
        "rt": 1278,
        "correct": false,
        "response": "ArrowRight",
        "congruent": false,
        "gazeTowards": false,
        "gazeCondition": "away",
        "faceOnLeft": true,
        "impliedDirection": 0,
        "testDirection": 180,
        "avgFps": 144,
        "minFps": 62,
        "maxFps": 2174,
        "totalFrames": 183,
        "frameRates": 144
      },
      {
        "trial_number": 114,
        "trial_index": 696,
        "rt": 1072,
        "correct": true,
        "response": "ArrowLeft",
        "congruent": false,
        "gazeTowards": false,
        "gazeCondition": "away",
        "faceOnLeft": true,
        "impliedDirection": 0,
        "testDirection": 180,
        "avgFps": 144,
        "minFps": 86,
        "maxFps": 1429,
        "totalFrames": 154,
        "frameRates": 144
      },
      {
        "trial_number": 115,
        "trial_index": 704,
        "rt": 1192,
        "correct": false,
        "response": "ArrowRight",
        "congruent": true,
        "gazeTowards": false,
        "gazeCondition": "away",
        "faceOnLeft": false,
        "impliedDirection": 180,
        "testDirection": 180,
        "avgFps": 144,
        "minFps": 92,
        "maxFps": 2273,
        "totalFrames": 171,
        "frameRates": 144
      },
      {
        "trial_number": 116,
        "trial_index": 709,
        "rt": 617,
        "correct": true,
        "response": "ArrowRight",
        "congruent": true,
        "gazeTowards": false,
        "gazeCondition": "away",
        "faceOnLeft": true,
        "impliedDirection": 0,
        "testDirection": 0,
        "avgFps": 144,
        "minFps": 67,
        "maxFps": 2273,
        "totalFrames": 88,
        "frameRates": 144
      },
      {
        "trial_number": 117,
        "trial_index": 714,
        "rt": 671,
        "correct": true,
        "response": "ArrowLeft",
        "congruent": true,
        "gazeTowards": true,
        "gazeCondition": "towards",
        "faceOnLeft": false,
        "impliedDirection": 180,
        "testDirection": 180,
        "avgFps": 142,
        "minFps": 48,
        "maxFps": 2381,
        "totalFrames": 95,
        "frameRates": 142
      },
      {
        "trial_number": 118,
        "trial_index": 719,
        "rt": 707,
        "correct": true,
        "response": "ArrowRight",
        "congruent": true,
        "gazeTowards": false,
        "gazeCondition": "away",
        "faceOnLeft": true,
        "impliedDirection": 0,
        "testDirection": 0,
        "avgFps": 142,
        "minFps": 47,
        "maxFps": 2273,
        "totalFrames": 100,
        "frameRates": 142
      },
      {
        "trial_number": 119,
        "trial_index": 724,
        "rt": 660,
        "correct": true,
        "response": "ArrowRight",
        "congruent": false,
        "gazeTowards": true,
        "gazeCondition": "towards",
        "faceOnLeft": false,
        "impliedDirection": 180,
        "testDirection": 0,
        "avgFps": 143,
        "minFps": 58,
        "maxFps": 2174,
        "totalFrames": 94,
        "frameRates": 143
      }
    ],
    "catch": {
      "total": 12,
      "correct": 12,
      "accuracy": 100,
      "meanRT": 671,
      "trials": [
        {
          "trial_number": 0,
          "trial_index": 124,
          "rt": 800,
          "correct": true,
          "colorTarget": "face",
          "gazeTowards": true,
          "gazeCondition": "towards",
          "faceOnLeft": true
        },
        {
          "trial_number": 1,
          "trial_index": 162,
          "rt": 551,
          "correct": true,
          "colorTarget": "face",
          "gazeTowards": true,
          "gazeCondition": "towards",
          "faceOnLeft": true
        },
        {
          "trial_number": 2,
          "trial_index": 165,
          "rt": 715,
          "correct": true,
          "colorTarget": "face",
          "gazeTowards": true,
          "gazeCondition": "towards",
          "faceOnLeft": false
        },
        {
          "trial_number": 3,
          "trial_index": 168,
          "rt": 925,
          "correct": true,
          "colorTarget": "tree",
          "gazeTowards": true,
          "gazeCondition": "towards",
          "faceOnLeft": true
        },
        {
          "trial_number": 4,
          "trial_index": 337,
          "rt": 646,
          "correct": true,
          "colorTarget": "tree",
          "gazeTowards": false,
          "gazeCondition": "away",
          "faceOnLeft": false
        },
        {
          "trial_number": 5,
          "trial_index": 405,
          "rt": 812,
          "correct": true,
          "colorTarget": "face",
          "gazeTowards": false,
          "gazeCondition": "away",
          "faceOnLeft": true
        },
        {
          "trial_number": 6,
          "trial_index": 419,
          "rt": 599,
          "correct": true,
          "colorTarget": "face",
          "gazeTowards": true,
          "gazeCondition": "towards",
          "faceOnLeft": true
        },
        {
          "trial_number": 7,
          "trial_index": 422,
          "rt": 554,
          "correct": true,
          "colorTarget": "tree",
          "gazeTowards": false,
          "gazeCondition": "away",
          "faceOnLeft": true
        },
        {
          "trial_number": 8,
          "trial_index": 500,
          "rt": 531,
          "correct": true,
          "colorTarget": "tree",
          "gazeTowards": false,
          "gazeCondition": "away",
          "faceOnLeft": false
        },
        {
          "trial_number": 9,
          "trial_index": 558,
          "rt": 628,
          "correct": true,
          "colorTarget": "tree",
          "gazeTowards": false,
          "gazeCondition": "away",
          "faceOnLeft": false
        },
        {
          "trial_number": 10,
          "trial_index": 642,
          "rt": 643,
          "correct": true,
          "colorTarget": "tree",
          "gazeTowards": true,
          "gazeCondition": "towards",
          "faceOnLeft": false
        },
        {
          "trial_number": 11,
          "trial_index": 700,
          "rt": 643,
          "correct": true,
          "colorTarget": "face",
          "gazeTowards": false,
          "gazeCondition": "away",
          "faceOnLeft": true
        }
      ]
    },
    "practice": {
      "trials": [
        {
          "trial_number": 0,
          "rt": null,
          "correct": false,
          "direction": 0
        },
        {
          "trial_number": 1,
          "rt": 1372,
          "correct": true,
          "direction": 0
        },
        {
          "trial_number": 2,
          "rt": 1941,
          "correct": false,
          "direction": 0
        },
        {
          "trial_number": 3,
          "rt": 2185,
          "correct": true,
          "direction": 180
        },
        {
          "trial_number": 4,
          "rt": null,
          "correct": false,
          "direction": 180
        },
        {
          "trial_number": 5,
          "rt": 1165,
          "correct": true,
          "direction": 0
        },
        {
          "trial_number": 6,
          "rt": 784,
          "correct": true,
          "direction": 180
        },
        {
          "trial_number": 7,
          "rt": 1225,
          "correct": true,
          "direction": 180
        },
        {
          "trial_number": 8,
          "rt": 1242,
          "correct": true,
          "direction": 180
        },
        {
          "trial_number": 9,
          "rt": 1391,
          "correct": true,
          "direction": 180
        },
        {
          "trial_number": 10,
          "rt": 976,
          "correct": true,
          "direction": 0
        },
        {
          "trial_number": 11,
          "rt": 1137,
          "correct": true,
          "direction": 0
        },
        {
          "trial_number": 12,
          "rt": 1425,
          "correct": true,
          "direction": 0
        },
        {
          "trial_number": 13,
          "rt": 816,
          "correct": true,
          "direction": 180
        },
        {
          "trial_number": 14,
          "rt": 759,
          "correct": true,
          "direction": 180
        },
        {
          "trial_number": 15,
          "rt": 586,
          "correct": true,
          "direction": 0
        },
        {
          "trial_number": 16,
          "rt": 751,
          "correct": true,
          "direction": 180
        },
        {
          "trial_number": 17,
          "rt": 1115,
          "correct": true,
          "direction": 180
        },
        {
          "trial_number": 18,
          "rt": 1183,
          "correct": true,
          "direction": 180
        },
        {
          "trial_number": 19,
          "rt": 1222,
          "correct": true,
          "direction": 180
        }
      ],
      "meanRT": 1182,
      "accuracy": 85
    }
  }
}