{
  "experiment": "rdk-face-1",
  "UUID": "55997362-ad2e-4b92-9645-3a2813164574",
  "data": {
    "session": {
      "experiment_version": "1.8.6",
      "treatment": "faces_towards_away_catch",
      "file_version": "1.8.6",
      "totalTrials": 120,
      "totalTrialsIncludingCatch": 132,
      "conditions": {
        "gazeTowardsCount": 60,
        "gazeAwayCount": 60,
        "gazeTowardsAccuracy": 88,
        "gazeAwayAccuracy": 78
      },
      "session_group": "default",
      "browserData": {
        "os": "Mac",
        "browser": "Firefox",
        "screenResolution": "1440x900",
        "browserViewport": "1440x900",
        "devicePixelRatio": 2,
        "colorDepth": 30,
        "hardwareConcurrency": 4,
        "deviceMemory": "Unknown",
        "gpuRenderer": "Intel(R) HD Graphics, or similar",
        "measuredRefreshRateHz": 55
      },
      "attention": {
        "visibilityEvents": [
          {
            "event": "focus",
            "state": "focused",
            "timestamp": 1772767572899
          },
          {
            "event": "visibilitychange",
            "state": "hidden",
            "timestamp": 1772767618226
          },
          {
            "event": "visibilitychange",
            "state": "visible",
            "timestamp": 1772767618231
          }
        ]
      },
      "calibration": {
        "monitorWidthCm": 38,
        "viewingDistanceCm": 54,
        "pixelsPerDegree": 50
      },
      "parameters": {
        "coherence": 0.4,
        "apertureDeg": 5,
        "densityDotsPerDeg2": 40,
        "dotDiameterDeg": 0.035,
        "dotSpeedDegPerSec": 3,
        "lifetimeMs": 200,
        "fixationDurationMs": 1500,
        "faceDurationMs": 1500,
        "testDurationMs": 2000,
        "catchResponseMs": 3000
      },
      "prolific": {
        "prolificPid": "6632e71b65934c5810fb2eff",
        "studyId": "",
        "sessionId": ""
      },
      "timing": {
        "startTime": "2026-03-06T03:26:12.848Z",
        "endTime": "2026-03-06T03:41:20.980Z",
        "totalElapsedTimeMs": 908132
      }
    },
    "trials": [
      {
        "trial_number": 0,
        "trial_index": 90,
        "rt": 607,
        "correct": true,
        "response": "ArrowRight",
        "congruent": false,
        "gazeTowards": true,
        "gazeCondition": "towards",
        "faceOnLeft": false,
        "impliedDirection": 180,
        "testDirection": 0,
        "avgFps": 60,
        "minFps": 33,
        "maxFps": 2083,
        "totalFrames": 36,
        "frameRates": 60
      },
      {
        "trial_number": 1,
        "trial_index": 95,
        "rt": 919,
        "correct": true,
        "response": "ArrowRight",
        "congruent": true,
        "gazeTowards": false,
        "gazeCondition": "away",
        "faceOnLeft": true,
        "impliedDirection": 0,
        "testDirection": 0,
        "avgFps": 61,
        "minFps": 44,
        "maxFps": 1724,
        "totalFrames": 55,
        "frameRates": 61
      },
      {
        "trial_number": 2,
        "trial_index": 100,
        "rt": 576,
        "correct": true,
        "response": "ArrowLeft",
        "congruent": false,
        "gazeTowards": true,
        "gazeCondition": "towards",
        "faceOnLeft": true,
        "impliedDirection": 0,
        "testDirection": 180,
        "avgFps": 60,
        "minFps": 32,
        "maxFps": 2000,
        "totalFrames": 34,
        "frameRates": 60
      },
      {
        "trial_number": 3,
        "trial_index": 105,
        "rt": 626,
        "correct": true,
        "response": "ArrowLeft",
        "congruent": false,
        "gazeTowards": true,
        "gazeCondition": "towards",
        "faceOnLeft": true,
        "impliedDirection": 0,
        "testDirection": 180,
        "avgFps": 61,
        "minFps": 40,
        "maxFps": 2083,
        "totalFrames": 38,
        "frameRates": 61
      },
      {
        "trial_number": 4,
        "trial_index": 110,
        "rt": 582,
        "correct": true,
        "response": "ArrowLeft",
        "congruent": true,
        "gazeTowards": false,
        "gazeCondition": "away",
        "faceOnLeft": false,
        "impliedDirection": 180,
        "testDirection": 180,
        "avgFps": 61,
        "minFps": 44,
        "maxFps": 2000,
        "totalFrames": 35,
        "frameRates": 61
      },
      {
        "trial_number": 5,
        "trial_index": 115,
        "rt": 453,
        "correct": false,
        "response": "ArrowRight",
        "congruent": false,
        "gazeTowards": false,
        "gazeCondition": "away",
        "faceOnLeft": true,
        "impliedDirection": 0,
        "testDirection": 180,
        "avgFps": 61,
        "minFps": 36,
        "maxFps": 1724,
        "totalFrames": 27,
        "frameRates": 61
      },
      {
        "trial_number": 6,
        "trial_index": 120,
        "rt": 537,
        "correct": true,
        "response": "ArrowLeft",
        "congruent": true,
        "gazeTowards": false,
        "gazeCondition": "away",
        "faceOnLeft": false,
        "impliedDirection": 180,
        "testDirection": 180,
        "avgFps": 59,
        "minFps": 24,
        "maxFps": 1064,
        "totalFrames": 31,
        "frameRates": 59
      },
      {
        "trial_number": 7,
        "trial_index": 125,
        "rt": 788,
        "correct": false,
        "response": "ArrowRight",
        "congruent": false,
        "gazeTowards": false,
        "gazeCondition": "away",
        "faceOnLeft": true,
        "impliedDirection": 0,
        "testDirection": 180,
        "avgFps": 60,
        "minFps": 28,
        "maxFps": 2000,
        "totalFrames": 47,
        "frameRates": 60
      },
      {
        "trial_number": 8,
        "trial_index": 130,
        "rt": 546,
        "correct": true,
        "response": "ArrowLeft",
        "congruent": true,
        "gazeTowards": false,
        "gazeCondition": "away",
        "faceOnLeft": false,
        "impliedDirection": 180,
        "testDirection": 180,
        "avgFps": 61,
        "minFps": 47,
        "maxFps": 2273,
        "totalFrames": 33,
        "frameRates": 61
      },
      {
        "trial_number": 9,
        "trial_index": 135,
        "rt": 645,
        "correct": true,
        "response": "ArrowRight",
        "congruent": true,
        "gazeTowards": false,
        "gazeCondition": "away",
        "faceOnLeft": true,
        "impliedDirection": 0,
        "testDirection": 0,
        "avgFps": 60,
        "minFps": 28,
        "maxFps": 1786,
        "totalFrames": 38,
        "frameRates": 60
      },
      {
        "trial_number": 10,
        "trial_index": 140,
        "rt": 663,
        "correct": true,
        "response": "ArrowRight",
        "congruent": false,
        "gazeTowards": true,
        "gazeCondition": "towards",
        "faceOnLeft": false,
        "impliedDirection": 180,
        "testDirection": 0,
        "avgFps": 58,
        "minFps": 19,
        "maxFps": 2083,
        "totalFrames": 38,
        "frameRates": 58
      },
      {
        "trial_number": 11,
        "trial_index": 145,
        "rt": 626,
        "correct": true,
        "response": "ArrowRight",
        "congruent": false,
        "gazeTowards": true,
        "gazeCondition": "towards",
        "faceOnLeft": false,
        "impliedDirection": 180,
        "testDirection": 0,
        "avgFps": 60,
        "minFps": 27,
        "maxFps": 1786,
        "totalFrames": 37,
        "frameRates": 60
      },
      {
        "trial_number": 12,
        "trial_index": 150,
        "rt": 1100,
        "correct": true,
        "response": "ArrowRight",
        "congruent": false,
        "gazeTowards": true,
        "gazeCondition": "towards",
        "faceOnLeft": false,
        "impliedDirection": 180,
        "testDirection": 0,
        "avgFps": 61,
        "minFps": 46,
        "maxFps": 1429,
        "totalFrames": 66,
        "frameRates": 61
      },
      {
        "trial_number": 13,
        "trial_index": 155,
        "rt": 835,
        "correct": false,
        "response": "ArrowLeft",
        "congruent": true,
        "gazeTowards": true,
        "gazeCondition": "towards",
        "faceOnLeft": true,
        "impliedDirection": 0,
        "testDirection": 0,
        "avgFps": 58,
        "minFps": 17,
        "maxFps": 2778,
        "totalFrames": 48,
        "frameRates": 58
      },
      {
        "trial_number": 14,
        "trial_index": 160,
        "rt": 803,
        "correct": true,
        "response": "ArrowLeft",
        "congruent": false,
        "gazeTowards": false,
        "gazeCondition": "away",
        "faceOnLeft": true,
        "impliedDirection": 0,
        "testDirection": 180,
        "avgFps": 61,
        "minFps": 47,
        "maxFps": 2273,
        "totalFrames": 48,
        "frameRates": 61
      },
      {
        "trial_number": 15,
        "trial_index": 165,
        "rt": 1126,
        "correct": true,
        "response": "ArrowRight",
        "congruent": true,
        "gazeTowards": true,
        "gazeCondition": "towards",
        "faceOnLeft": true,
        "impliedDirection": 0,
        "testDirection": 0,
        "avgFps": 61,
        "minFps": 42,
        "maxFps": 3125,
        "totalFrames": 68,
        "frameRates": 61
      },
      {
        "trial_number": 16,
        "trial_index": 170,
        "rt": 1351,
        "correct": false,
        "response": "ArrowLeft",
        "congruent": false,
        "gazeTowards": false,
        "gazeCondition": "away",
        "faceOnLeft": false,
        "impliedDirection": 180,
        "testDirection": 0,
        "avgFps": 60,
        "minFps": 35,
        "maxFps": 1786,
        "totalFrames": 81,
        "frameRates": 60
      },
      {
        "trial_number": 17,
        "trial_index": 175,
        "rt": 748,
        "correct": true,
        "response": "ArrowLeft",
        "congruent": false,
        "gazeTowards": true,
        "gazeCondition": "towards",
        "faceOnLeft": true,
        "impliedDirection": 0,
        "testDirection": 180,
        "avgFps": 60,
        "minFps": 35,
        "maxFps": 658,
        "totalFrames": 45,
        "frameRates": 60
      },
      {
        "trial_number": 18,
        "trial_index": 180,
        "rt": 619,
        "correct": true,
        "response": "ArrowLeft",
        "congruent": true,
        "gazeTowards": false,
        "gazeCondition": "away",
        "faceOnLeft": false,
        "impliedDirection": 180,
        "testDirection": 180,
        "avgFps": 61,
        "minFps": 38,
        "maxFps": 704,
        "totalFrames": 37,
        "frameRates": 61
      },
      {
        "trial_number": 19,
        "trial_index": 185,
        "rt": 829,
        "correct": true,
        "response": "ArrowLeft",
        "congruent": true,
        "gazeTowards": false,
        "gazeCondition": "away",
        "faceOnLeft": false,
        "impliedDirection": 180,
        "testDirection": 180,
        "avgFps": 60,
        "minFps": 29,
        "maxFps": 2381,
        "totalFrames": 49,
        "frameRates": 60
      },
      {
        "trial_number": 20,
        "trial_index": 190,
        "rt": 502,
        "correct": true,
        "response": "ArrowLeft",
        "congruent": true,
        "gazeTowards": false,
        "gazeCondition": "away",
        "faceOnLeft": false,
        "impliedDirection": 180,
        "testDirection": 180,
        "avgFps": 60,
        "minFps": 28,
        "maxFps": 1064,
        "totalFrames": 30,
        "frameRates": 60
      },
      {
        "trial_number": 21,
        "trial_index": 195,
        "rt": 644,
        "correct": true,
        "response": "ArrowRight",
        "congruent": false,
        "gazeTowards": true,
        "gazeCondition": "towards",
        "faceOnLeft": false,
        "impliedDirection": 180,
        "testDirection": 0,
        "avgFps": 60,
        "minFps": 30,
        "maxFps": 1786,
        "totalFrames": 38,
        "frameRates": 60
      },
      {
        "trial_number": 22,
        "trial_index": 200,
        "rt": 495,
        "correct": true,
        "response": "ArrowRight",
        "congruent": true,
        "gazeTowards": false,
        "gazeCondition": "away",
        "faceOnLeft": true,
        "impliedDirection": 0,
        "testDirection": 0,
        "avgFps": 61,
        "minFps": 48,
        "maxFps": 781,
        "totalFrames": 30,
        "frameRates": 61
      },
      {
        "trial_number": 23,
        "trial_index": 205,
        "rt": 722,
        "correct": false,
        "response": "ArrowLeft",
        "congruent": false,
        "gazeTowards": false,
        "gazeCondition": "away",
        "faceOnLeft": false,
        "impliedDirection": 180,
        "testDirection": 0,
        "avgFps": 61,
        "minFps": 43,
        "maxFps": 847,
        "totalFrames": 43,
        "frameRates": 61
      },
      {
        "trial_number": 24,
        "trial_index": 210,
        "rt": 484,
        "correct": true,
        "response": "ArrowLeft",
        "congruent": false,
        "gazeTowards": true,
        "gazeCondition": "towards",
        "faceOnLeft": true,
        "impliedDirection": 0,
        "testDirection": 180,
        "avgFps": 61,
        "minFps": 46,
        "maxFps": 2381,
        "totalFrames": 29,
        "frameRates": 61
      },
      {
        "trial_number": 25,
        "trial_index": 215,
        "rt": 930,
        "correct": true,
        "response": "ArrowLeft",
        "congruent": false,
        "gazeTowards": false,
        "gazeCondition": "away",
        "faceOnLeft": true,
        "impliedDirection": 0,
        "testDirection": 180,
        "avgFps": 61,
        "minFps": 47,
        "maxFps": 2174,
        "totalFrames": 56,
        "frameRates": 61
      },
      {
        "trial_number": 26,
        "trial_index": 220,
        "rt": 627,
        "correct": true,
        "response": "ArrowLeft",
        "congruent": true,
        "gazeTowards": false,
        "gazeCondition": "away",
        "faceOnLeft": false,
        "impliedDirection": 180,
        "testDirection": 180,
        "avgFps": 61,
        "minFps": 40,
        "maxFps": 1852,
        "totalFrames": 38,
        "frameRates": 61
      },
      {
        "trial_number": 27,
        "trial_index": 225,
        "rt": 1488,
        "correct": false,
        "response": "ArrowRight",
        "congruent": true,
        "gazeTowards": false,
        "gazeCondition": "away",
        "faceOnLeft": false,
        "impliedDirection": 180,
        "testDirection": 180,
        "avgFps": 60,
        "minFps": 28,
        "maxFps": 1724,
        "totalFrames": 89,
        "frameRates": 60
      },
      {
        "trial_number": 28,
        "trial_index": 230,
        "rt": 613,
        "correct": true,
        "response": "ArrowRight",
        "congruent": false,
        "gazeTowards": false,
        "gazeCondition": "away",
        "faceOnLeft": false,
        "impliedDirection": 180,
        "testDirection": 0,
        "avgFps": 58,
        "minFps": 19,
        "maxFps": 2381,
        "totalFrames": 35,
        "frameRates": 58
      },
      {
        "trial_number": 29,
        "trial_index": 238,
        "rt": 1284,
        "correct": false,
        "response": "ArrowLeft",
        "congruent": false,
        "gazeTowards": false,
        "gazeCondition": "away",
        "faceOnLeft": false,
        "impliedDirection": 180,
        "testDirection": 0,
        "avgFps": 60,
        "minFps": 41,
        "maxFps": 1562,
        "totalFrames": 77,
        "frameRates": 60
      },
      {
        "trial_number": 30,
        "trial_index": 243,
        "rt": 749,
        "correct": true,
        "response": "ArrowLeft",
        "congruent": true,
        "gazeTowards": false,
        "gazeCondition": "away",
        "faceOnLeft": false,
        "impliedDirection": 180,
        "testDirection": 180,
        "avgFps": 61,
        "minFps": 47,
        "maxFps": 1667,
        "totalFrames": 45,
        "frameRates": 61
      },
      {
        "trial_number": 31,
        "trial_index": 248,
        "rt": 1431,
        "correct": false,
        "response": "ArrowRight",
        "congruent": true,
        "gazeTowards": true,
        "gazeCondition": "towards",
        "faceOnLeft": false,
        "impliedDirection": 180,
        "testDirection": 180,
        "avgFps": 60,
        "minFps": 27,
        "maxFps": 2000,
        "totalFrames": 85,
        "frameRates": 60
      },
      {
        "trial_number": 32,
        "trial_index": 254,
        "rt": 1100,
        "correct": false,
        "response": "ArrowRight",
        "congruent": false,
        "gazeTowards": false,
        "gazeCondition": "away",
        "faceOnLeft": true,
        "impliedDirection": 0,
        "testDirection": 180,
        "avgFps": 61,
        "minFps": 42,
        "maxFps": 1923,
        "totalFrames": 66,
        "frameRates": 61
      },
      {
        "trial_number": 33,
        "trial_index": 259,
        "rt": 563,
        "correct": false,
        "response": "ArrowLeft",
        "congruent": true,
        "gazeTowards": true,
        "gazeCondition": "towards",
        "faceOnLeft": true,
        "impliedDirection": 0,
        "testDirection": 0,
        "avgFps": 60,
        "minFps": 34,
        "maxFps": 2941,
        "totalFrames": 34,
        "frameRates": 60
      },
      {
        "trial_number": 34,
        "trial_index": 264,
        "rt": 1052,
        "correct": false,
        "response": "ArrowRight",
        "congruent": false,
        "gazeTowards": false,
        "gazeCondition": "away",
        "faceOnLeft": true,
        "impliedDirection": 0,
        "testDirection": 180,
        "avgFps": 60,
        "minFps": 31,
        "maxFps": 2000,
        "totalFrames": 63,
        "frameRates": 60
      },
      {
        "trial_number": 35,
        "trial_index": 269,
        "rt": 879,
        "correct": true,
        "response": "ArrowLeft",
        "congruent": true,
        "gazeTowards": false,
        "gazeCondition": "away",
        "faceOnLeft": false,
        "impliedDirection": 180,
        "testDirection": 180,
        "avgFps": 58,
        "minFps": 15,
        "maxFps": 2083,
        "totalFrames": 50,
        "frameRates": 58
      },
      {
        "trial_number": 36,
        "trial_index": 274,
        "rt": 1166,
        "correct": true,
        "response": "ArrowLeft",
        "congruent": false,
        "gazeTowards": true,
        "gazeCondition": "towards",
        "faceOnLeft": true,
        "impliedDirection": 0,
        "testDirection": 180,
        "avgFps": 60,
        "minFps": 38,
        "maxFps": 2381,
        "totalFrames": 70,
        "frameRates": 60
      },
      {
        "trial_number": 37,
        "trial_index": 279,
        "rt": 784,
        "correct": true,
        "response": "ArrowRight",
        "congruent": false,
        "gazeTowards": true,
        "gazeCondition": "towards",
        "faceOnLeft": false,
        "impliedDirection": 180,
        "testDirection": 0,
        "avgFps": 60,
        "minFps": 34,
        "maxFps": 2778,
        "totalFrames": 47,
        "frameRates": 60
      },
      {
        "trial_number": 38,
        "trial_index": 284,
        "rt": 1023,
        "correct": true,
        "response": "ArrowLeft",
        "congruent": true,
        "gazeTowards": true,
        "gazeCondition": "towards",
        "faceOnLeft": false,
        "impliedDirection": 180,
        "testDirection": 180,
        "avgFps": 61,
        "minFps": 41,
        "maxFps": 1852,
        "totalFrames": 62,
        "frameRates": 61
      },
      {
        "trial_number": 39,
        "trial_index": 289,
        "rt": 982,
        "correct": true,
        "response": "ArrowLeft",
        "congruent": true,
        "gazeTowards": false,
        "gazeCondition": "away",
        "faceOnLeft": false,
        "impliedDirection": 180,
        "testDirection": 180,
        "avgFps": 61,
        "minFps": 43,
        "maxFps": 2273,
        "totalFrames": 59,
        "frameRates": 61
      },
      {
        "trial_number": 40,
        "trial_index": 294,
        "rt": 1246,
        "correct": true,
        "response": "ArrowLeft",
        "congruent": true,
        "gazeTowards": false,
        "gazeCondition": "away",
        "faceOnLeft": false,
        "impliedDirection": 180,
        "testDirection": 180,
        "avgFps": 60,
        "minFps": 34,
        "maxFps": 1923,
        "totalFrames": 75,
        "frameRates": 60
      },
      {
        "trial_number": 41,
        "trial_index": 299,
        "rt": 1081,
        "correct": false,
        "response": "ArrowRight",
        "congruent": true,
        "gazeTowards": true,
        "gazeCondition": "towards",
        "faceOnLeft": false,
        "impliedDirection": 180,
        "testDirection": 180,
        "avgFps": 58,
        "minFps": 15,
        "maxFps": 806,
        "totalFrames": 62,
        "frameRates": 58
      },
      {
        "trial_number": 42,
        "trial_index": 304,
        "rt": 1404,
        "correct": true,
        "response": "ArrowLeft",
        "congruent": true,
        "gazeTowards": true,
        "gazeCondition": "towards",
        "faceOnLeft": false,
        "impliedDirection": 180,
        "testDirection": 180,
        "avgFps": 60,
        "minFps": 35,
        "maxFps": 2083,
        "totalFrames": 84,
        "frameRates": 60
      },
      {
        "trial_number": 43,
        "trial_index": 309,
        "rt": 569,
        "correct": true,
        "response": "ArrowRight",
        "congruent": true,
        "gazeTowards": true,
        "gazeCondition": "towards",
        "faceOnLeft": true,
        "impliedDirection": 0,
        "testDirection": 0,
        "avgFps": 61,
        "minFps": 39,
        "maxFps": 685,
        "totalFrames": 34,
        "frameRates": 61
      },
      {
        "trial_number": 44,
        "trial_index": 314,
        "rt": 553,
        "correct": true,
        "response": "ArrowRight",
        "congruent": false,
        "gazeTowards": true,
        "gazeCondition": "towards",
        "faceOnLeft": false,
        "impliedDirection": 180,
        "testDirection": 0,
        "avgFps": 61,
        "minFps": 39,
        "maxFps": 2083,
        "totalFrames": 33,
        "frameRates": 61
      },
      {
        "trial_number": 45,
        "trial_index": 319,
        "rt": 615,
        "correct": true,
        "response": "ArrowLeft",
        "congruent": false,
        "gazeTowards": true,
        "gazeCondition": "towards",
        "faceOnLeft": true,
        "impliedDirection": 0,
        "testDirection": 180,
        "avgFps": 60,
        "minFps": 29,
        "maxFps": 1852,
        "totalFrames": 36,
        "frameRates": 60
      },
      {
        "trial_number": 46,
        "trial_index": 324,
        "rt": 554,
        "correct": true,
        "response": "ArrowLeft",
        "congruent": true,
        "gazeTowards": true,
        "gazeCondition": "towards",
        "faceOnLeft": false,
        "impliedDirection": 180,
        "testDirection": 180,
        "avgFps": 61,
        "minFps": 42,
        "maxFps": 1786,
        "totalFrames": 33,
        "frameRates": 61
      },
      {
        "trial_number": 47,
        "trial_index": 329,
        "rt": 685,
        "correct": true,
        "response": "ArrowLeft",
        "congruent": false,
        "gazeTowards": true,
        "gazeCondition": "towards",
        "faceOnLeft": true,
        "impliedDirection": 0,
        "testDirection": 180,
        "avgFps": 60,
        "minFps": 31,
        "maxFps": 1724,
        "totalFrames": 41,
        "frameRates": 60
      },
      {
        "trial_number": 48,
        "trial_index": 337,
        "rt": 1024,
        "correct": true,
        "response": "ArrowLeft",
        "congruent": false,
        "gazeTowards": true,
        "gazeCondition": "towards",
        "faceOnLeft": true,
        "impliedDirection": 0,
        "testDirection": 180,
        "avgFps": 60,
        "minFps": 56,
        "maxFps": 64,
        "totalFrames": 60,
        "frameRates": 60
      },
      {
        "trial_number": 49,
        "trial_index": 342,
        "rt": 607,
        "correct": true,
        "response": "ArrowRight",
        "congruent": true,
        "gazeTowards": true,
        "gazeCondition": "towards",
        "faceOnLeft": true,
        "impliedDirection": 0,
        "testDirection": 0,
        "avgFps": 61,
        "minFps": 39,
        "maxFps": 1786,
        "totalFrames": 37,
        "frameRates": 61
      },
      {
        "trial_number": 50,
        "trial_index": 347,
        "rt": 613,
        "correct": true,
        "response": "ArrowLeft",
        "congruent": true,
        "gazeTowards": true,
        "gazeCondition": "towards",
        "faceOnLeft": false,
        "impliedDirection": 180,
        "testDirection": 180,
        "avgFps": 60,
        "minFps": 33,
        "maxFps": 2174,
        "totalFrames": 37,
        "frameRates": 60
      },
      {
        "trial_number": 51,
        "trial_index": 352,
        "rt": 547,
        "correct": true,
        "response": "ArrowRight",
        "congruent": true,
        "gazeTowards": false,
        "gazeCondition": "away",
        "faceOnLeft": true,
        "impliedDirection": 0,
        "testDirection": 0,
        "avgFps": 60,
        "minFps": 27,
        "maxFps": 5000,
        "totalFrames": 32,
        "frameRates": 60
      },
      {
        "trial_number": 52,
        "trial_index": 357,
        "rt": 559,
        "correct": true,
        "response": "ArrowLeft",
        "congruent": true,
        "gazeTowards": true,
        "gazeCondition": "towards",
        "faceOnLeft": false,
        "impliedDirection": 180,
        "testDirection": 180,
        "avgFps": 61,
        "minFps": 37,
        "maxFps": 1724,
        "totalFrames": 34,
        "frameRates": 61
      },
      {
        "trial_number": 53,
        "trial_index": 362,
        "rt": 949,
        "correct": false,
        "response": "ArrowRight",
        "congruent": false,
        "gazeTowards": false,
        "gazeCondition": "away",
        "faceOnLeft": true,
        "impliedDirection": 0,
        "testDirection": 180,
        "avgFps": 60,
        "minFps": 31,
        "maxFps": 1923,
        "totalFrames": 57,
        "frameRates": 60
      },
      {
        "trial_number": 54,
        "trial_index": 367,
        "rt": 618,
        "correct": true,
        "response": "ArrowRight",
        "congruent": false,
        "gazeTowards": true,
        "gazeCondition": "towards",
        "faceOnLeft": false,
        "impliedDirection": 180,
        "testDirection": 0,
        "avgFps": 61,
        "minFps": 42,
        "maxFps": 3333,
        "totalFrames": 37,
        "frameRates": 61
      },
      {
        "trial_number": 55,
        "trial_index": 372,
        "rt": 979,
        "correct": true,
        "response": "ArrowRight",
        "congruent": false,
        "gazeTowards": false,
        "gazeCondition": "away",
        "faceOnLeft": false,
        "impliedDirection": 180,
        "testDirection": 0,
        "avgFps": 60,
        "minFps": 30,
        "maxFps": 2000,
        "totalFrames": 58,
        "frameRates": 60
      },
      {
        "trial_number": 56,
        "trial_index": 377,
        "rt": 774,
        "correct": true,
        "response": "ArrowLeft",
        "congruent": false,
        "gazeTowards": true,
        "gazeCondition": "towards",
        "faceOnLeft": true,
        "impliedDirection": 0,
        "testDirection": 180,
        "avgFps": 60,
        "minFps": 33,
        "maxFps": 2174,
        "totalFrames": 46,
        "frameRates": 60
      },
      {
        "trial_number": 57,
        "trial_index": 382,
        "rt": 790,
        "correct": true,
        "response": "ArrowLeft",
        "congruent": true,
        "gazeTowards": false,
        "gazeCondition": "away",
        "faceOnLeft": false,
        "impliedDirection": 180,
        "testDirection": 180,
        "avgFps": 60,
        "minFps": 33,
        "maxFps": 1724,
        "totalFrames": 47,
        "frameRates": 60
      },
      {
        "trial_number": 58,
        "trial_index": 390,
        "rt": 605,
        "correct": true,
        "response": "ArrowRight",
        "congruent": true,
        "gazeTowards": true,
        "gazeCondition": "towards",
        "faceOnLeft": true,
        "impliedDirection": 0,
        "testDirection": 0,
        "avgFps": 61,
        "minFps": 39,
        "maxFps": 2273,
        "totalFrames": 36,
        "frameRates": 61
      },
      {
        "trial_number": 59,
        "trial_index": 395,
        "rt": 622,
        "correct": true,
        "response": "ArrowRight",
        "congruent": false,
        "gazeTowards": false,
        "gazeCondition": "away",
        "faceOnLeft": false,
        "impliedDirection": 180,
        "testDirection": 0,
        "avgFps": 61,
        "minFps": 45,
        "maxFps": 1852,
        "totalFrames": 38,
        "frameRates": 61
      },
      {
        "trial_number": 60,
        "trial_index": 400,
        "rt": 551,
        "correct": true,
        "response": "ArrowLeft",
        "congruent": true,
        "gazeTowards": true,
        "gazeCondition": "towards",
        "faceOnLeft": false,
        "impliedDirection": 180,
        "testDirection": 180,
        "avgFps": 61,
        "minFps": 36,
        "maxFps": 1852,
        "totalFrames": 33,
        "frameRates": 61
      },
      {
        "trial_number": 61,
        "trial_index": 405,
        "rt": 473,
        "correct": false,
        "response": "ArrowRight",
        "congruent": true,
        "gazeTowards": false,
        "gazeCondition": "away",
        "faceOnLeft": false,
        "impliedDirection": 180,
        "testDirection": 180,
        "avgFps": 61,
        "minFps": 35,
        "maxFps": 1786,
        "totalFrames": 28,
        "frameRates": 61
      },
      {
        "trial_number": 62,
        "trial_index": 410,
        "rt": 598,
        "correct": true,
        "response": "ArrowLeft",
        "congruent": true,
        "gazeTowards": true,
        "gazeCondition": "towards",
        "faceOnLeft": false,
        "impliedDirection": 180,
        "testDirection": 180,
        "avgFps": 60,
        "minFps": 27,
        "maxFps": 1786,
        "totalFrames": 35,
        "frameRates": 60
      },
      {
        "trial_number": 63,
        "trial_index": 419,
        "rt": 600,
        "correct": true,
        "response": "ArrowRight",
        "congruent": false,
        "gazeTowards": false,
        "gazeCondition": "away",
        "faceOnLeft": false,
        "impliedDirection": 180,
        "testDirection": 0,
        "avgFps": 61,
        "minFps": 41,
        "maxFps": 1852,
        "totalFrames": 36,
        "frameRates": 61
      },
      {
        "trial_number": 64,
        "trial_index": 424,
        "rt": 860,
        "correct": false,
        "response": "ArrowLeft",
        "congruent": true,
        "gazeTowards": true,
        "gazeCondition": "towards",
        "faceOnLeft": true,
        "impliedDirection": 0,
        "testDirection": 0,
        "avgFps": 60,
        "minFps": 30,
        "maxFps": 2632,
        "totalFrames": 51,
        "frameRates": 60
      },
      {
        "trial_number": 65,
        "trial_index": 429,
        "rt": 700,
        "correct": true,
        "response": "ArrowRight",
        "congruent": true,
        "gazeTowards": false,
        "gazeCondition": "away",
        "faceOnLeft": true,
        "impliedDirection": 0,
        "testDirection": 0,
        "avgFps": 61,
        "minFps": 41,
        "maxFps": 2174,
        "totalFrames": 42,
        "frameRates": 61
      },
      {
        "trial_number": 66,
        "trial_index": 434,
        "rt": 750,
        "correct": true,
        "response": "ArrowLeft",
        "congruent": true,
        "gazeTowards": true,
        "gazeCondition": "towards",
        "faceOnLeft": false,
        "impliedDirection": 180,
        "testDirection": 180,
        "avgFps": 60,
        "minFps": 37,
        "maxFps": 862,
        "totalFrames": 45,
        "frameRates": 60
      },
      {
        "trial_number": 67,
        "trial_index": 439,
        "rt": 599,
        "correct": true,
        "response": "ArrowLeft",
        "congruent": false,
        "gazeTowards": true,
        "gazeCondition": "towards",
        "faceOnLeft": true,
        "impliedDirection": 0,
        "testDirection": 180,
        "avgFps": 61,
        "minFps": 41,
        "maxFps": 2174,
        "totalFrames": 36,
        "frameRates": 61
      },
      {
        "trial_number": 68,
        "trial_index": 444,
        "rt": 566,
        "correct": true,
        "response": "ArrowRight",
        "congruent": false,
        "gazeTowards": true,
        "gazeCondition": "towards",
        "faceOnLeft": false,
        "impliedDirection": 180,
        "testDirection": 0,
        "avgFps": 61,
        "minFps": 45,
        "maxFps": 1786,
        "totalFrames": 34,
        "frameRates": 61
      },
      {
        "trial_number": 69,
        "trial_index": 449,
        "rt": 728,
        "correct": true,
        "response": "ArrowRight",
        "congruent": false,
        "gazeTowards": true,
        "gazeCondition": "towards",
        "faceOnLeft": false,
        "impliedDirection": 180,
        "testDirection": 0,
        "avgFps": 61,
        "minFps": 48,
        "maxFps": 1471,
        "totalFrames": 44,
        "frameRates": 61
      },
      {
        "trial_number": 70,
        "trial_index": 454,
        "rt": 563,
        "correct": true,
        "response": "ArrowRight",
        "congruent": false,
        "gazeTowards": true,
        "gazeCondition": "towards",
        "faceOnLeft": false,
        "impliedDirection": 180,
        "testDirection": 0,
        "avgFps": 60,
        "minFps": 32,
        "maxFps": 2174,
        "totalFrames": 33,
        "frameRates": 60
      },
      {
        "trial_number": 71,
        "trial_index": 459,
        "rt": 702,
        "correct": true,
        "response": "ArrowLeft",
        "congruent": true,
        "gazeTowards": false,
        "gazeCondition": "away",
        "faceOnLeft": false,
        "impliedDirection": 180,
        "testDirection": 180,
        "avgFps": 61,
        "minFps": 37,
        "maxFps": 1786,
        "totalFrames": 42,
        "frameRates": 61
      },
      {
        "trial_number": 72,
        "trial_index": 464,
        "rt": 968,
        "correct": true,
        "response": "ArrowRight",
        "congruent": true,
        "gazeTowards": false,
        "gazeCondition": "away",
        "faceOnLeft": true,
        "impliedDirection": 0,
        "testDirection": 0,
        "avgFps": 58,
        "minFps": 17,
        "maxFps": 2778,
        "totalFrames": 56,
        "frameRates": 58
      },
      {
        "trial_number": 73,
        "trial_index": 469,
        "rt": 668,
        "correct": true,
        "response": "ArrowLeft",
        "congruent": true,
        "gazeTowards": true,
        "gazeCondition": "towards",
        "faceOnLeft": false,
        "impliedDirection": 180,
        "testDirection": 180,
        "avgFps": 60,
        "minFps": 34,
        "maxFps": 2083,
        "totalFrames": 40,
        "frameRates": 60
      },
      {
        "trial_number": 74,
        "trial_index": 474,
        "rt": 734,
        "correct": true,
        "response": "ArrowLeft",
        "congruent": false,
        "gazeTowards": true,
        "gazeCondition": "towards",
        "faceOnLeft": true,
        "impliedDirection": 0,
        "testDirection": 180,
        "avgFps": 61,
        "minFps": 41,
        "maxFps": 2174,
        "totalFrames": 44,
        "frameRates": 61
      },
      {
        "trial_number": 75,
        "trial_index": 479,
        "rt": 677,
        "correct": true,
        "response": "ArrowRight",
        "congruent": false,
        "gazeTowards": false,
        "gazeCondition": "away",
        "faceOnLeft": false,
        "impliedDirection": 180,
        "testDirection": 0,
        "avgFps": 61,
        "minFps": 46,
        "maxFps": 1562,
        "totalFrames": 41,
        "frameRates": 61
      },
      {
        "trial_number": 76,
        "trial_index": 487,
        "rt": 737,
        "correct": true,
        "response": "ArrowRight",
        "congruent": false,
        "gazeTowards": false,
        "gazeCondition": "away",
        "faceOnLeft": false,
        "impliedDirection": 180,
        "testDirection": 0,
        "avgFps": 61,
        "minFps": 42,
        "maxFps": 1786,
        "totalFrames": 44,
        "frameRates": 61
      },
      {
        "trial_number": 77,
        "trial_index": 495,
        "rt": 623,
        "correct": true,
        "response": "ArrowLeft",
        "congruent": false,
        "gazeTowards": false,
        "gazeCondition": "away",
        "faceOnLeft": true,
        "impliedDirection": 0,
        "testDirection": 180,
        "avgFps": 60,
        "minFps": 28,
        "maxFps": 1316,
        "totalFrames": 37,
        "frameRates": 60
      },
      {
        "trial_number": 78,
        "trial_index": 500,
        "rt": 620,
        "correct": true,
        "response": "ArrowRight",
        "congruent": true,
        "gazeTowards": false,
        "gazeCondition": "away",
        "faceOnLeft": true,
        "impliedDirection": 0,
        "testDirection": 0,
        "avgFps": 60,
        "minFps": 30,
        "maxFps": 1429,
        "totalFrames": 37,
        "frameRates": 60
      },
      {
        "trial_number": 79,
        "trial_index": 505,
        "rt": 646,
        "correct": true,
        "response": "ArrowLeft",
        "congruent": true,
        "gazeTowards": false,
        "gazeCondition": "away",
        "faceOnLeft": false,
        "impliedDirection": 180,
        "testDirection": 180,
        "avgFps": 60,
        "minFps": 33,
        "maxFps": 1923,
        "totalFrames": 38,
        "frameRates": 60
      },
      {
        "trial_number": 80,
        "trial_index": 510,
        "rt": 608,
        "correct": true,
        "response": "ArrowRight",
        "congruent": false,
        "gazeTowards": true,
        "gazeCondition": "towards",
        "faceOnLeft": false,
        "impliedDirection": 180,
        "testDirection": 0,
        "avgFps": 60,
        "minFps": 32,
        "maxFps": 2632,
        "totalFrames": 36,
        "frameRates": 60
      },
      {
        "trial_number": 81,
        "trial_index": 515,
        "rt": 589,
        "correct": true,
        "response": "ArrowRight",
        "congruent": false,
        "gazeTowards": true,
        "gazeCondition": "towards",
        "faceOnLeft": false,
        "impliedDirection": 180,
        "testDirection": 0,
        "avgFps": 60,
        "minFps": 31,
        "maxFps": 2000,
        "totalFrames": 35,
        "frameRates": 60
      },
      {
        "trial_number": 82,
        "trial_index": 520,
        "rt": 533,
        "correct": true,
        "response": "ArrowRight",
        "congruent": true,
        "gazeTowards": true,
        "gazeCondition": "towards",
        "faceOnLeft": true,
        "impliedDirection": 0,
        "testDirection": 0,
        "avgFps": 61,
        "minFps": 41,
        "maxFps": 1471,
        "totalFrames": 32,
        "frameRates": 61
      },
      {
        "trial_number": 83,
        "trial_index": 525,
        "rt": 899,
        "correct": true,
        "response": "ArrowLeft",
        "congruent": true,
        "gazeTowards": true,
        "gazeCondition": "towards",
        "faceOnLeft": false,
        "impliedDirection": 180,
        "testDirection": 180,
        "avgFps": 61,
        "minFps": 48,
        "maxFps": 2174,
        "totalFrames": 54,
        "frameRates": 61
      },
      {
        "trial_number": 84,
        "trial_index": 530,
        "rt": 651,
        "correct": true,
        "response": "ArrowLeft",
        "congruent": false,
        "gazeTowards": false,
        "gazeCondition": "away",
        "faceOnLeft": true,
        "impliedDirection": 0,
        "testDirection": 180,
        "avgFps": 56,
        "minFps": 14,
        "maxFps": 2632,
        "totalFrames": 36,
        "frameRates": 56
      },
      {
        "trial_number": 85,
        "trial_index": 535,
        "rt": 593,
        "correct": true,
        "response": "ArrowRight",
        "congruent": false,
        "gazeTowards": true,
        "gazeCondition": "towards",
        "faceOnLeft": false,
        "impliedDirection": 180,
        "testDirection": 0,
        "avgFps": 61,
        "minFps": 38,
        "maxFps": 781,
        "totalFrames": 36,
        "frameRates": 61
      },
      {
        "trial_number": 86,
        "trial_index": 540,
        "rt": 569,
        "correct": true,
        "response": "ArrowLeft",
        "congruent": false,
        "gazeTowards": false,
        "gazeCondition": "away",
        "faceOnLeft": true,
        "impliedDirection": 0,
        "testDirection": 180,
        "avgFps": 61,
        "minFps": 38,
        "maxFps": 1020,
        "totalFrames": 34,
        "frameRates": 61
      },
      {
        "trial_number": 87,
        "trial_index": 545,
        "rt": 573,
        "correct": true,
        "response": "ArrowLeft",
        "congruent": true,
        "gazeTowards": false,
        "gazeCondition": "away",
        "faceOnLeft": false,
        "impliedDirection": 180,
        "testDirection": 180,
        "avgFps": 60,
        "minFps": 34,
        "maxFps": 1852,
        "totalFrames": 34,
        "frameRates": 60
      },
      {
        "trial_number": 88,
        "trial_index": 550,
        "rt": 763,
        "correct": true,
        "response": "ArrowLeft",
        "congruent": true,
        "gazeTowards": true,
        "gazeCondition": "towards",
        "faceOnLeft": false,
        "impliedDirection": 180,
        "testDirection": 180,
        "avgFps": 61,
        "minFps": 46,
        "maxFps": 2273,
        "totalFrames": 46,
        "frameRates": 61
      },
      {
        "trial_number": 89,
        "trial_index": 555,
        "rt": 1496,
        "correct": true,
        "response": "ArrowLeft",
        "congruent": false,
        "gazeTowards": true,
        "gazeCondition": "towards",
        "faceOnLeft": true,
        "impliedDirection": 0,
        "testDirection": 180,
        "avgFps": 60,
        "minFps": 42,
        "maxFps": 862,
        "totalFrames": 90,
        "frameRates": 60
      },
      {
        "trial_number": 90,
        "trial_index": 560,
        "rt": 1319,
        "correct": false,
        "response": "ArrowRight",
        "congruent": true,
        "gazeTowards": true,
        "gazeCondition": "towards",
        "faceOnLeft": false,
        "impliedDirection": 180,
        "testDirection": 180,
        "avgFps": 60,
        "minFps": 32,
        "maxFps": 1613,
        "totalFrames": 79,
        "frameRates": 60
      },
      {
        "trial_number": 91,
        "trial_index": 565,
        "rt": 739,
        "correct": true,
        "response": "ArrowRight",
        "congruent": false,
        "gazeTowards": false,
        "gazeCondition": "away",
        "faceOnLeft": false,
        "impliedDirection": 180,
        "testDirection": 0,
        "avgFps": 60,
        "minFps": 31,
        "maxFps": 746,
        "totalFrames": 44,
        "frameRates": 60
      },
      {
        "trial_number": 92,
        "trial_index": 570,
        "rt": 953,
        "correct": false,
        "response": "ArrowLeft",
        "congruent": false,
        "gazeTowards": false,
        "gazeCondition": "away",
        "faceOnLeft": false,
        "impliedDirection": 180,
        "testDirection": 0,
        "avgFps": 60,
        "minFps": 34,
        "maxFps": 1852,
        "totalFrames": 57,
        "frameRates": 60
      },
      {
        "trial_number": 93,
        "trial_index": 576,
        "rt": 713,
        "correct": true,
        "response": "ArrowLeft",
        "congruent": true,
        "gazeTowards": false,
        "gazeCondition": "away",
        "faceOnLeft": false,
        "impliedDirection": 180,
        "testDirection": 180,
        "avgFps": 61,
        "minFps": 36,
        "maxFps": 1852,
        "totalFrames": 43,
        "frameRates": 61
      },
      {
        "trial_number": 94,
        "trial_index": 581,
        "rt": 603,
        "correct": true,
        "response": "ArrowLeft",
        "congruent": false,
        "gazeTowards": false,
        "gazeCondition": "away",
        "faceOnLeft": true,
        "impliedDirection": 0,
        "testDirection": 180,
        "avgFps": 61,
        "minFps": 36,
        "maxFps": 1562,
        "totalFrames": 36,
        "frameRates": 61
      },
      {
        "trial_number": 95,
        "trial_index": 586,
        "rt": 636,
        "correct": true,
        "response": "ArrowRight",
        "congruent": false,
        "gazeTowards": true,
        "gazeCondition": "towards",
        "faceOnLeft": false,
        "impliedDirection": 180,
        "testDirection": 0,
        "avgFps": 58,
        "minFps": 19,
        "maxFps": 2273,
        "totalFrames": 37,
        "frameRates": 58
      },
      {
        "trial_number": 96,
        "trial_index": 591,
        "rt": 680,
        "correct": true,
        "response": "ArrowRight",
        "congruent": true,
        "gazeTowards": true,
        "gazeCondition": "towards",
        "faceOnLeft": true,
        "impliedDirection": 0,
        "testDirection": 0,
        "avgFps": 60,
        "minFps": 27,
        "maxFps": 1136,
        "totalFrames": 40,
        "frameRates": 60
      },
      {
        "trial_number": 97,
        "trial_index": 596,
        "rt": 750,
        "correct": true,
        "response": "ArrowRight",
        "congruent": true,
        "gazeTowards": true,
        "gazeCondition": "towards",
        "faceOnLeft": true,
        "impliedDirection": 0,
        "testDirection": 0,
        "avgFps": 60,
        "minFps": 27,
        "maxFps": 1724,
        "totalFrames": 44,
        "frameRates": 60
      },
      {
        "trial_number": 98,
        "trial_index": 601,
        "rt": 749,
        "correct": true,
        "response": "ArrowRight",
        "congruent": true,
        "gazeTowards": false,
        "gazeCondition": "away",
        "faceOnLeft": true,
        "impliedDirection": 0,
        "testDirection": 0,
        "avgFps": 57,
        "minFps": 15,
        "maxFps": 2778,
        "totalFrames": 43,
        "frameRates": 57
      },
      {
        "trial_number": 99,
        "trial_index": 606,
        "rt": 658,
        "correct": true,
        "response": "ArrowLeft",
        "congruent": false,
        "gazeTowards": false,
        "gazeCondition": "away",
        "faceOnLeft": true,
        "impliedDirection": 0,
        "testDirection": 180,
        "avgFps": 61,
        "minFps": 43,
        "maxFps": 2174,
        "totalFrames": 40,
        "frameRates": 61
      },
      {
        "trial_number": 100,
        "trial_index": 611,
        "rt": 1197,
        "correct": true,
        "response": "ArrowRight",
        "congruent": true,
        "gazeTowards": true,
        "gazeCondition": "towards",
        "faceOnLeft": true,
        "impliedDirection": 0,
        "testDirection": 0,
        "avgFps": 60,
        "minFps": 27,
        "maxFps": 2632,
        "totalFrames": 71,
        "frameRates": 60
      },
      {
        "trial_number": 101,
        "trial_index": 616,
        "rt": 648,
        "correct": true,
        "response": "ArrowLeft",
        "congruent": false,
        "gazeTowards": true,
        "gazeCondition": "towards",
        "faceOnLeft": true,
        "impliedDirection": 0,
        "testDirection": 180,
        "avgFps": 59,
        "minFps": 25,
        "maxFps": 1064,
        "totalFrames": 38,
        "frameRates": 59
      },
      {
        "trial_number": 102,
        "trial_index": 624,
        "rt": 635,
        "correct": true,
        "response": "ArrowRight",
        "congruent": false,
        "gazeTowards": true,
        "gazeCondition": "towards",
        "faceOnLeft": false,
        "impliedDirection": 180,
        "testDirection": 0,
        "avgFps": 61,
        "minFps": 40,
        "maxFps": 1220,
        "totalFrames": 38,
        "frameRates": 61
      },
      {
        "trial_number": 103,
        "trial_index": 629,
        "rt": 457,
        "correct": true,
        "response": "ArrowLeft",
        "congruent": false,
        "gazeTowards": true,
        "gazeCondition": "towards",
        "faceOnLeft": true,
        "impliedDirection": 0,
        "testDirection": 180,
        "avgFps": 60,
        "minFps": 32,
        "maxFps": 2273,
        "totalFrames": 27,
        "frameRates": 60
      },
      {
        "trial_number": 104,
        "trial_index": 634,
        "rt": 781,
        "correct": true,
        "response": "ArrowLeft",
        "congruent": true,
        "gazeTowards": false,
        "gazeCondition": "away",
        "faceOnLeft": false,
        "impliedDirection": 180,
        "testDirection": 180,
        "avgFps": 60,
        "minFps": 36,
        "maxFps": 4545,
        "totalFrames": 47,
        "frameRates": 60
      },
      {
        "trial_number": 105,
        "trial_index": 642,
        "rt": 584,
        "correct": true,
        "response": "ArrowRight",
        "congruent": true,
        "gazeTowards": true,
        "gazeCondition": "towards",
        "faceOnLeft": true,
        "impliedDirection": 0,
        "testDirection": 0,
        "avgFps": 61,
        "minFps": 46,
        "maxFps": 2083,
        "totalFrames": 35,
        "frameRates": 61
      },
      {
        "trial_number": 106,
        "trial_index": 647,
        "rt": 708,
        "correct": true,
        "response": "ArrowRight",
        "congruent": true,
        "gazeTowards": true,
        "gazeCondition": "towards",
        "faceOnLeft": true,
        "impliedDirection": 0,
        "testDirection": 0,
        "avgFps": 60,
        "minFps": 32,
        "maxFps": 2174,
        "totalFrames": 42,
        "frameRates": 60
      },
      {
        "trial_number": 107,
        "trial_index": 652,
        "rt": 583,
        "correct": true,
        "response": "ArrowLeft",
        "congruent": false,
        "gazeTowards": false,
        "gazeCondition": "away",
        "faceOnLeft": true,
        "impliedDirection": 0,
        "testDirection": 180,
        "avgFps": 61,
        "minFps": 43,
        "maxFps": 2941,
        "totalFrames": 35,
        "frameRates": 61
      },
      {
        "trial_number": 108,
        "trial_index": 657,
        "rt": 940,
        "correct": false,
        "response": "ArrowLeft",
        "congruent": true,
        "gazeTowards": true,
        "gazeCondition": "towards",
        "faceOnLeft": true,
        "impliedDirection": 0,
        "testDirection": 0,
        "avgFps": 60,
        "minFps": 34,
        "maxFps": 1852,
        "totalFrames": 56,
        "frameRates": 60
      },
      {
        "trial_number": 109,
        "trial_index": 662,
        "rt": 532,
        "correct": true,
        "response": "ArrowLeft",
        "congruent": false,
        "gazeTowards": false,
        "gazeCondition": "away",
        "faceOnLeft": true,
        "impliedDirection": 0,
        "testDirection": 180,
        "avgFps": 61,
        "minFps": 43,
        "maxFps": 2381,
        "totalFrames": 32,
        "frameRates": 61
      },
      {
        "trial_number": 110,
        "trial_index": 667,
        "rt": 660,
        "correct": true,
        "response": "ArrowRight",
        "congruent": false,
        "gazeTowards": false,
        "gazeCondition": "away",
        "faceOnLeft": false,
        "impliedDirection": 180,
        "testDirection": 0,
        "avgFps": 60,
        "minFps": 27,
        "maxFps": 2381,
        "totalFrames": 39,
        "frameRates": 60
      },
      {
        "trial_number": 111,
        "trial_index": 672,
        "rt": 645,
        "correct": true,
        "response": "ArrowRight",
        "congruent": false,
        "gazeTowards": false,
        "gazeCondition": "away",
        "faceOnLeft": false,
        "impliedDirection": 180,
        "testDirection": 0,
        "avgFps": 60,
        "minFps": 30,
        "maxFps": 2273,
        "totalFrames": 38,
        "frameRates": 60
      },
      {
        "trial_number": 112,
        "trial_index": 677,
        "rt": 632,
        "correct": true,
        "response": "ArrowLeft",
        "congruent": true,
        "gazeTowards": true,
        "gazeCondition": "towards",
        "faceOnLeft": false,
        "impliedDirection": 180,
        "testDirection": 180,
        "avgFps": 60,
        "minFps": 31,
        "maxFps": 1020,
        "totalFrames": 38,
        "frameRates": 60
      },
      {
        "trial_number": 113,
        "trial_index": 682,
        "rt": 501,
        "correct": true,
        "response": "ArrowLeft",
        "congruent": true,
        "gazeTowards": false,
        "gazeCondition": "away",
        "faceOnLeft": false,
        "impliedDirection": 180,
        "testDirection": 180,
        "avgFps": 61,
        "minFps": 42,
        "maxFps": 2381,
        "totalFrames": 30,
        "frameRates": 61
      },
      {
        "trial_number": 114,
        "trial_index": 687,
        "rt": 587,
        "correct": true,
        "response": "ArrowRight",
        "congruent": true,
        "gazeTowards": false,
        "gazeCondition": "away",
        "faceOnLeft": true,
        "impliedDirection": 0,
        "testDirection": 0,
        "avgFps": 60,
        "minFps": 32,
        "maxFps": 1515,
        "totalFrames": 35,
        "frameRates": 60
      },
      {
        "trial_number": 115,
        "trial_index": 692,
        "rt": 895,
        "correct": false,
        "response": "ArrowRight",
        "congruent": false,
        "gazeTowards": false,
        "gazeCondition": "away",
        "faceOnLeft": true,
        "impliedDirection": 0,
        "testDirection": 180,
        "avgFps": 60,
        "minFps": 35,
        "maxFps": 1923,
        "totalFrames": 54,
        "frameRates": 60
      },
      {
        "trial_number": 116,
        "trial_index": 697,
        "rt": 578,
        "correct": true,
        "response": "ArrowRight",
        "congruent": true,
        "gazeTowards": false,
        "gazeCondition": "away",
        "faceOnLeft": true,
        "impliedDirection": 0,
        "testDirection": 0,
        "avgFps": 60,
        "minFps": 29,
        "maxFps": 1613,
        "totalFrames": 34,
        "frameRates": 60
      },
      {
        "trial_number": 117,
        "trial_index": 705,
        "rt": 759,
        "correct": true,
        "response": "ArrowLeft",
        "congruent": false,
        "gazeTowards": false,
        "gazeCondition": "away",
        "faceOnLeft": true,
        "impliedDirection": 0,
        "testDirection": 180,
        "avgFps": 60,
        "minFps": 35,
        "maxFps": 3125,
        "totalFrames": 45,
        "frameRates": 60
      },
      {
        "trial_number": 118,
        "trial_index": 716,
        "rt": 486,
        "correct": false,
        "response": "ArrowLeft",
        "congruent": false,
        "gazeTowards": false,
        "gazeCondition": "away",
        "faceOnLeft": false,
        "impliedDirection": 180,
        "testDirection": 0,
        "avgFps": 61,
        "minFps": 47,
        "maxFps": 1923,
        "totalFrames": 29,
        "frameRates": 61
      },
      {
        "trial_number": 119,
        "trial_index": 721,
        "rt": 699,
        "correct": true,
        "response": "ArrowRight",
        "congruent": true,
        "gazeTowards": true,
        "gazeCondition": "towards",
        "faceOnLeft": true,
        "impliedDirection": 0,
        "testDirection": 0,
        "avgFps": 60,
        "minFps": 29,
        "maxFps": 2083,
        "totalFrames": 41,
        "frameRates": 60
      }
    ],
    "catch": {
      "total": 12,
      "correct": 12,
      "accuracy": 100,
      "meanRT": 673,
      "trials": [
        {
          "trial_number": 0,
          "trial_index": 234,
          "rt": 934,
          "correct": true,
          "colorTarget": "tree",
          "gazeTowards": false,
          "gazeCondition": "away",
          "faceOnLeft": true
        },
        {
          "trial_number": 1,
          "trial_index": 333,
          "rt": 733,
          "correct": true,
          "colorTarget": "face",
          "gazeTowards": true,
          "gazeCondition": "towards",
          "faceOnLeft": false
        },
        {
          "trial_number": 2,
          "trial_index": 386,
          "rt": 669,
          "correct": true,
          "colorTarget": "tree",
          "gazeTowards": false,
          "gazeCondition": "away",
          "faceOnLeft": true
        },
        {
          "trial_number": 3,
          "trial_index": 415,
          "rt": 668,
          "correct": true,
          "colorTarget": "face",
          "gazeTowards": true,
          "gazeCondition": "towards",
          "faceOnLeft": true
        },
        {
          "trial_number": 4,
          "trial_index": 483,
          "rt": 562,
          "correct": true,
          "colorTarget": "face",
          "gazeTowards": false,
          "gazeCondition": "away",
          "faceOnLeft": true
        },
        {
          "trial_number": 5,
          "trial_index": 491,
          "rt": 468,
          "correct": true,
          "colorTarget": "face",
          "gazeTowards": true,
          "gazeCondition": "towards",
          "faceOnLeft": false
        },
        {
          "trial_number": 6,
          "trial_index": 620,
          "rt": 585,
          "correct": true,
          "colorTarget": "face",
          "gazeTowards": true,
          "gazeCondition": "towards",
          "faceOnLeft": true
        },
        {
          "trial_number": 7,
          "trial_index": 638,
          "rt": 862,
          "correct": true,
          "colorTarget": "face",
          "gazeTowards": true,
          "gazeCondition": "towards",
          "faceOnLeft": false
        },
        {
          "trial_number": 8,
          "trial_index": 701,
          "rt": 1158,
          "correct": true,
          "colorTarget": "tree",
          "gazeTowards": false,
          "gazeCondition": "away",
          "faceOnLeft": true
        },
        {
          "trial_number": 9,
          "trial_index": 709,
          "rt": 494,
          "correct": true,
          "colorTarget": "tree",
          "gazeTowards": true,
          "gazeCondition": "towards",
          "faceOnLeft": true
        },
        {
          "trial_number": 10,
          "trial_index": 712,
          "rt": 443,
          "correct": true,
          "colorTarget": "tree",
          "gazeTowards": true,
          "gazeCondition": "towards",
          "faceOnLeft": false
        },
        {
          "trial_number": 11,
          "trial_index": 725,
          "rt": 503,
          "correct": true,
          "colorTarget": "tree",
          "gazeTowards": false,
          "gazeCondition": "away",
          "faceOnLeft": true
        }
      ]
    },
    "practice": {
      "trials": [
        {
          "trial_number": 0,
          "rt": 978,
          "correct": true,
          "direction": 0
        },
        {
          "trial_number": 1,
          "rt": 977,
          "correct": true,
          "direction": 0
        },
        {
          "trial_number": 2,
          "rt": 1123,
          "correct": true,
          "direction": 0
        },
        {
          "trial_number": 3,
          "rt": 840,
          "correct": true,
          "direction": 180
        },
        {
          "trial_number": 4,
          "rt": 1322,
          "correct": true,
          "direction": 180
        },
        {
          "trial_number": 5,
          "rt": 1278,
          "correct": false,
          "direction": 180
        },
        {
          "trial_number": 6,
          "rt": 1497,
          "correct": true,
          "direction": 0
        },
        {
          "trial_number": 7,
          "rt": 1113,
          "correct": false,
          "direction": 0
        },
        {
          "trial_number": 8,
          "rt": 754,
          "correct": false,
          "direction": 0
        },
        {
          "trial_number": 9,
          "rt": 605,
          "correct": true,
          "direction": 180
        },
        {
          "trial_number": 10,
          "rt": 776,
          "correct": true,
          "direction": 0
        },
        {
          "trial_number": 11,
          "rt": null,
          "correct": false,
          "direction": 0
        },
        {
          "trial_number": 12,
          "rt": 728,
          "correct": true,
          "direction": 0
        },
        {
          "trial_number": 13,
          "rt": 448,
          "correct": true,
          "direction": 180
        },
        {
          "trial_number": 14,
          "rt": 521,
          "correct": false,
          "direction": 180
        },
        {
          "trial_number": 15,
          "rt": 497,
          "correct": true,
          "direction": 180
        },
        {
          "trial_number": 16,
          "rt": 402,
          "correct": true,
          "direction": 0
        },
        {
          "trial_number": 17,
          "rt": 494,
          "correct": true,
          "direction": 0
        },
        {
          "trial_number": 18,
          "rt": 716,
          "correct": true,
          "direction": 0
        },
        {
          "trial_number": 19,
          "rt": 581,
          "correct": true,
          "direction": 180
        }
      ],
      "meanRT": 824,
      "accuracy": 75
    }
  }
}