{
  "experiment": "rdk-face-1",
  "UUID": "820e0ca2-2237-4db9-a056-8a27acddd2b8",
  "data": {
    "session": {
      "experiment_version": "1.8.6",
      "treatment": "faces_towards_away_catch",
      "file_version": "1.8.6",
      "totalTrials": 120,
      "totalTrialsIncludingCatch": 132,
      "conditions": {
        "gazeTowardsCount": 60,
        "gazeAwayCount": 60,
        "gazeTowardsAccuracy": 100,
        "gazeAwayAccuracy": 100
      },
      "session_group": "default",
      "browserData": {
        "os": "Windows",
        "browser": "Edge",
        "screenResolution": "1920x1080",
        "browserViewport": "1920x1080",
        "devicePixelRatio": 1,
        "colorDepth": 32,
        "hardwareConcurrency": 12,
        "deviceMemory": 8,
        "gpuRenderer": "ANGLE (NVIDIA, NVIDIA GeForce RTX 2060 (0x00001F08) Direct3D11 vs_5_0 ps_5_0, D3D11)",
        "measuredRefreshRateHz": 154
      },
      "attention": {
        "visibilityEvents": []
      },
      "calibration": {
        "monitorWidthCm": 38,
        "viewingDistanceCm": 54,
        "pixelsPerDegree": 50
      },
      "parameters": {
        "coherence": 0.4,
        "apertureDeg": 5,
        "densityDotsPerDeg2": 40,
        "dotDiameterDeg": 0.035,
        "dotSpeedDegPerSec": 3,
        "lifetimeMs": 200,
        "fixationDurationMs": 1500,
        "faceDurationMs": 1500,
        "testDurationMs": 2000,
        "catchResponseMs": 3000
      },
      "prolific": {
        "prolificPid": "60dd11ad22b5aac3f6255f87",
        "studyId": "",
        "sessionId": ""
      },
      "timing": {
        "startTime": "2026-03-06T03:26:41.219Z",
        "endTime": "2026-03-06T03:46:23.949Z",
        "totalElapsedTimeMs": 1182730
      }
    },
    "trials": [
      {
        "trial_number": 0,
        "trial_index": 49,
        "rt": 1005,
        "correct": true,
        "response": "ArrowRight",
        "congruent": false,
        "gazeTowards": true,
        "gazeCondition": "towards",
        "faceOnLeft": false,
        "impliedDirection": 180,
        "testDirection": 0,
        "avgFps": 180,
        "minFps": 175,
        "maxFps": 185,
        "totalFrames": 181,
        "frameRates": 180
      },
      {
        "trial_number": 1,
        "trial_index": 54,
        "rt": 848,
        "correct": true,
        "response": "ArrowLeft",
        "congruent": false,
        "gazeTowards": true,
        "gazeCondition": "towards",
        "faceOnLeft": true,
        "impliedDirection": 0,
        "testDirection": 180,
        "avgFps": 180,
        "minFps": 175,
        "maxFps": 185,
        "totalFrames": 153,
        "frameRates": 180
      },
      {
        "trial_number": 2,
        "trial_index": 59,
        "rt": 879,
        "correct": true,
        "response": "ArrowRight",
        "congruent": true,
        "gazeTowards": true,
        "gazeCondition": "towards",
        "faceOnLeft": true,
        "impliedDirection": 0,
        "testDirection": 0,
        "avgFps": 180,
        "minFps": 175,
        "maxFps": 185,
        "totalFrames": 158,
        "frameRates": 180
      },
      {
        "trial_number": 3,
        "trial_index": 64,
        "rt": 667,
        "correct": true,
        "response": "ArrowLeft",
        "congruent": true,
        "gazeTowards": false,
        "gazeCondition": "away",
        "faceOnLeft": false,
        "impliedDirection": 180,
        "testDirection": 180,
        "avgFps": 180,
        "minFps": 175,
        "maxFps": 185,
        "totalFrames": 120,
        "frameRates": 180
      },
      {
        "trial_number": 4,
        "trial_index": 69,
        "rt": 970,
        "correct": true,
        "response": "ArrowRight",
        "congruent": true,
        "gazeTowards": true,
        "gazeCondition": "towards",
        "faceOnLeft": true,
        "impliedDirection": 0,
        "testDirection": 0,
        "avgFps": 180,
        "minFps": 175,
        "maxFps": 185,
        "totalFrames": 175,
        "frameRates": 180
      },
      {
        "trial_number": 5,
        "trial_index": 74,
        "rt": 828,
        "correct": true,
        "response": "ArrowLeft",
        "congruent": true,
        "gazeTowards": false,
        "gazeCondition": "away",
        "faceOnLeft": false,
        "impliedDirection": 180,
        "testDirection": 180,
        "avgFps": 180,
        "minFps": 175,
        "maxFps": 185,
        "totalFrames": 149,
        "frameRates": 180
      },
      {
        "trial_number": 6,
        "trial_index": 79,
        "rt": 531,
        "correct": true,
        "response": "ArrowRight",
        "congruent": false,
        "gazeTowards": false,
        "gazeCondition": "away",
        "faceOnLeft": false,
        "impliedDirection": 180,
        "testDirection": 0,
        "avgFps": 180,
        "minFps": 175,
        "maxFps": 185,
        "totalFrames": 95,
        "frameRates": 180
      },
      {
        "trial_number": 7,
        "trial_index": 87,
        "rt": 699,
        "correct": true,
        "response": "ArrowRight",
        "congruent": false,
        "gazeTowards": true,
        "gazeCondition": "towards",
        "faceOnLeft": false,
        "impliedDirection": 180,
        "testDirection": 0,
        "avgFps": 180,
        "minFps": 175,
        "maxFps": 185,
        "totalFrames": 126,
        "frameRates": 180
      },
      {
        "trial_number": 8,
        "trial_index": 92,
        "rt": 666,
        "correct": true,
        "response": "ArrowRight",
        "congruent": false,
        "gazeTowards": true,
        "gazeCondition": "towards",
        "faceOnLeft": false,
        "impliedDirection": 180,
        "testDirection": 0,
        "avgFps": 180,
        "minFps": 175,
        "maxFps": 185,
        "totalFrames": 120,
        "frameRates": 180
      },
      {
        "trial_number": 9,
        "trial_index": 97,
        "rt": 518,
        "correct": true,
        "response": "ArrowRight",
        "congruent": false,
        "gazeTowards": true,
        "gazeCondition": "towards",
        "faceOnLeft": false,
        "impliedDirection": 180,
        "testDirection": 0,
        "avgFps": 180,
        "minFps": 175,
        "maxFps": 185,
        "totalFrames": 94,
        "frameRates": 180
      },
      {
        "trial_number": 10,
        "trial_index": 102,
        "rt": 986,
        "correct": true,
        "response": "ArrowRight",
        "congruent": false,
        "gazeTowards": false,
        "gazeCondition": "away",
        "faceOnLeft": false,
        "impliedDirection": 180,
        "testDirection": 0,
        "avgFps": 180,
        "minFps": 175,
        "maxFps": 185,
        "totalFrames": 177,
        "frameRates": 180
      },
      {
        "trial_number": 11,
        "trial_index": 107,
        "rt": 1742,
        "correct": true,
        "response": "ArrowRight",
        "congruent": false,
        "gazeTowards": true,
        "gazeCondition": "towards",
        "faceOnLeft": false,
        "impliedDirection": 180,
        "testDirection": 0,
        "avgFps": 180,
        "minFps": 175,
        "maxFps": 185,
        "totalFrames": 313,
        "frameRates": 180
      },
      {
        "trial_number": 12,
        "trial_index": 112,
        "rt": 1600,
        "correct": true,
        "response": "ArrowRight",
        "congruent": false,
        "gazeTowards": false,
        "gazeCondition": "away",
        "faceOnLeft": false,
        "impliedDirection": 180,
        "testDirection": 0,
        "avgFps": 180,
        "minFps": 175,
        "maxFps": 185,
        "totalFrames": 288,
        "frameRates": 180
      },
      {
        "trial_number": 13,
        "trial_index": 117,
        "rt": 1516,
        "correct": true,
        "response": "ArrowRight",
        "congruent": true,
        "gazeTowards": false,
        "gazeCondition": "away",
        "faceOnLeft": true,
        "impliedDirection": 0,
        "testDirection": 0,
        "avgFps": 180,
        "minFps": 175,
        "maxFps": 185,
        "totalFrames": 273,
        "frameRates": 180
      },
      {
        "trial_number": 14,
        "trial_index": 122,
        "rt": 752,
        "correct": true,
        "response": "ArrowLeft",
        "congruent": false,
        "gazeTowards": false,
        "gazeCondition": "away",
        "faceOnLeft": true,
        "impliedDirection": 0,
        "testDirection": 180,
        "avgFps": 180,
        "minFps": 175,
        "maxFps": 182,
        "totalFrames": 135,
        "frameRates": 180
      },
      {
        "trial_number": 15,
        "trial_index": 130,
        "rt": 734,
        "correct": true,
        "response": "ArrowLeft",
        "congruent": true,
        "gazeTowards": true,
        "gazeCondition": "towards",
        "faceOnLeft": false,
        "impliedDirection": 180,
        "testDirection": 180,
        "avgFps": 180,
        "minFps": 175,
        "maxFps": 185,
        "totalFrames": 132,
        "frameRates": 180
      },
      {
        "trial_number": 16,
        "trial_index": 135,
        "rt": 1177,
        "correct": true,
        "response": "ArrowRight",
        "congruent": false,
        "gazeTowards": true,
        "gazeCondition": "towards",
        "faceOnLeft": false,
        "impliedDirection": 180,
        "testDirection": 0,
        "avgFps": 180,
        "minFps": 172,
        "maxFps": 185,
        "totalFrames": 212,
        "frameRates": 180
      },
      {
        "trial_number": 17,
        "trial_index": 140,
        "rt": 677,
        "correct": true,
        "response": "ArrowLeft",
        "congruent": true,
        "gazeTowards": true,
        "gazeCondition": "towards",
        "faceOnLeft": false,
        "impliedDirection": 180,
        "testDirection": 180,
        "avgFps": 180,
        "minFps": 175,
        "maxFps": 185,
        "totalFrames": 122,
        "frameRates": 180
      },
      {
        "trial_number": 18,
        "trial_index": 145,
        "rt": 704,
        "correct": true,
        "response": "ArrowLeft",
        "congruent": true,
        "gazeTowards": false,
        "gazeCondition": "away",
        "faceOnLeft": false,
        "impliedDirection": 180,
        "testDirection": 180,
        "avgFps": 180,
        "minFps": 175,
        "maxFps": 185,
        "totalFrames": 127,
        "frameRates": 180
      },
      {
        "trial_number": 19,
        "trial_index": 150,
        "rt": 1134,
        "correct": true,
        "response": "ArrowRight",
        "congruent": false,
        "gazeTowards": false,
        "gazeCondition": "away",
        "faceOnLeft": false,
        "impliedDirection": 180,
        "testDirection": 0,
        "avgFps": 180,
        "minFps": 175,
        "maxFps": 185,
        "totalFrames": 205,
        "frameRates": 180
      },
      {
        "trial_number": 20,
        "trial_index": 155,
        "rt": 774,
        "correct": true,
        "response": "ArrowLeft",
        "congruent": false,
        "gazeTowards": false,
        "gazeCondition": "away",
        "faceOnLeft": true,
        "impliedDirection": 0,
        "testDirection": 180,
        "avgFps": 180,
        "minFps": 175,
        "maxFps": 185,
        "totalFrames": 139,
        "frameRates": 180
      },
      {
        "trial_number": 21,
        "trial_index": 160,
        "rt": 1330,
        "correct": true,
        "response": "ArrowRight",
        "congruent": true,
        "gazeTowards": true,
        "gazeCondition": "towards",
        "faceOnLeft": true,
        "impliedDirection": 0,
        "testDirection": 0,
        "avgFps": 180,
        "minFps": 175,
        "maxFps": 185,
        "totalFrames": 240,
        "frameRates": 180
      },
      {
        "trial_number": 22,
        "trial_index": 165,
        "rt": 653,
        "correct": true,
        "response": "ArrowLeft",
        "congruent": false,
        "gazeTowards": true,
        "gazeCondition": "towards",
        "faceOnLeft": true,
        "impliedDirection": 0,
        "testDirection": 180,
        "avgFps": 180,
        "minFps": 175,
        "maxFps": 185,
        "totalFrames": 117,
        "frameRates": 180
      },
      {
        "trial_number": 23,
        "trial_index": 170,
        "rt": 762,
        "correct": true,
        "response": "ArrowRight",
        "congruent": true,
        "gazeTowards": true,
        "gazeCondition": "towards",
        "faceOnLeft": true,
        "impliedDirection": 0,
        "testDirection": 0,
        "avgFps": 180,
        "minFps": 175,
        "maxFps": 185,
        "totalFrames": 137,
        "frameRates": 180
      },
      {
        "trial_number": 24,
        "trial_index": 175,
        "rt": 713,
        "correct": true,
        "response": "ArrowLeft",
        "congruent": true,
        "gazeTowards": false,
        "gazeCondition": "away",
        "faceOnLeft": false,
        "impliedDirection": 180,
        "testDirection": 180,
        "avgFps": 180,
        "minFps": 175,
        "maxFps": 185,
        "totalFrames": 128,
        "frameRates": 180
      },
      {
        "trial_number": 25,
        "trial_index": 180,
        "rt": 776,
        "correct": true,
        "response": "ArrowRight",
        "congruent": false,
        "gazeTowards": false,
        "gazeCondition": "away",
        "faceOnLeft": false,
        "impliedDirection": 180,
        "testDirection": 0,
        "avgFps": 180,
        "minFps": 175,
        "maxFps": 185,
        "totalFrames": 140,
        "frameRates": 180
      },
      {
        "trial_number": 26,
        "trial_index": 185,
        "rt": 1043,
        "correct": true,
        "response": "ArrowRight",
        "congruent": false,
        "gazeTowards": true,
        "gazeCondition": "towards",
        "faceOnLeft": false,
        "impliedDirection": 180,
        "testDirection": 0,
        "avgFps": 180,
        "minFps": 175,
        "maxFps": 185,
        "totalFrames": 188,
        "frameRates": 180
      },
      {
        "trial_number": 27,
        "trial_index": 190,
        "rt": 1345,
        "correct": true,
        "response": "ArrowRight",
        "congruent": true,
        "gazeTowards": false,
        "gazeCondition": "away",
        "faceOnLeft": true,
        "impliedDirection": 0,
        "testDirection": 0,
        "avgFps": 180,
        "minFps": 175,
        "maxFps": 185,
        "totalFrames": 242,
        "frameRates": 180
      },
      {
        "trial_number": 28,
        "trial_index": 195,
        "rt": 788,
        "correct": true,
        "response": "ArrowRight",
        "congruent": true,
        "gazeTowards": false,
        "gazeCondition": "away",
        "faceOnLeft": true,
        "impliedDirection": 0,
        "testDirection": 0,
        "avgFps": 180,
        "minFps": 175,
        "maxFps": 185,
        "totalFrames": 142,
        "frameRates": 180
      },
      {
        "trial_number": 29,
        "trial_index": 200,
        "rt": 572,
        "correct": true,
        "response": "ArrowLeft",
        "congruent": true,
        "gazeTowards": true,
        "gazeCondition": "towards",
        "faceOnLeft": false,
        "impliedDirection": 180,
        "testDirection": 180,
        "avgFps": 180,
        "minFps": 175,
        "maxFps": 185,
        "totalFrames": 103,
        "frameRates": 180
      },
      {
        "trial_number": 30,
        "trial_index": 205,
        "rt": 635,
        "correct": true,
        "response": "ArrowRight",
        "congruent": true,
        "gazeTowards": true,
        "gazeCondition": "towards",
        "faceOnLeft": true,
        "impliedDirection": 0,
        "testDirection": 0,
        "avgFps": 180,
        "minFps": 175,
        "maxFps": 185,
        "totalFrames": 115,
        "frameRates": 180
      },
      {
        "trial_number": 31,
        "trial_index": 214,
        "rt": 631,
        "correct": true,
        "response": "ArrowLeft",
        "congruent": true,
        "gazeTowards": false,
        "gazeCondition": "away",
        "faceOnLeft": false,
        "impliedDirection": 180,
        "testDirection": 180,
        "avgFps": 180,
        "minFps": 175,
        "maxFps": 185,
        "totalFrames": 114,
        "frameRates": 180
      },
      {
        "trial_number": 32,
        "trial_index": 219,
        "rt": 857,
        "correct": true,
        "response": "ArrowLeft",
        "congruent": false,
        "gazeTowards": true,
        "gazeCondition": "towards",
        "faceOnLeft": true,
        "impliedDirection": 0,
        "testDirection": 180,
        "avgFps": 180,
        "minFps": 175,
        "maxFps": 185,
        "totalFrames": 155,
        "frameRates": 180
      },
      {
        "trial_number": 33,
        "trial_index": 227,
        "rt": 735,
        "correct": true,
        "response": "ArrowLeft",
        "congruent": true,
        "gazeTowards": true,
        "gazeCondition": "towards",
        "faceOnLeft": false,
        "impliedDirection": 180,
        "testDirection": 180,
        "avgFps": 180,
        "minFps": 175,
        "maxFps": 185,
        "totalFrames": 132,
        "frameRates": 180
      },
      {
        "trial_number": 34,
        "trial_index": 235,
        "rt": 626,
        "correct": true,
        "response": "ArrowRight",
        "congruent": false,
        "gazeTowards": false,
        "gazeCondition": "away",
        "faceOnLeft": false,
        "impliedDirection": 180,
        "testDirection": 0,
        "avgFps": 180,
        "minFps": 175,
        "maxFps": 185,
        "totalFrames": 113,
        "frameRates": 180
      },
      {
        "trial_number": 35,
        "trial_index": 240,
        "rt": 744,
        "correct": true,
        "response": "ArrowLeft",
        "congruent": true,
        "gazeTowards": true,
        "gazeCondition": "towards",
        "faceOnLeft": false,
        "impliedDirection": 180,
        "testDirection": 180,
        "avgFps": 180,
        "minFps": 175,
        "maxFps": 185,
        "totalFrames": 134,
        "frameRates": 180
      },
      {
        "trial_number": 36,
        "trial_index": 245,
        "rt": 623,
        "correct": true,
        "response": "ArrowRight",
        "congruent": false,
        "gazeTowards": true,
        "gazeCondition": "towards",
        "faceOnLeft": false,
        "impliedDirection": 180,
        "testDirection": 0,
        "avgFps": 180,
        "minFps": 175,
        "maxFps": 185,
        "totalFrames": 112,
        "frameRates": 180
      },
      {
        "trial_number": 37,
        "trial_index": 250,
        "rt": 816,
        "correct": true,
        "response": "ArrowLeft",
        "congruent": true,
        "gazeTowards": true,
        "gazeCondition": "towards",
        "faceOnLeft": false,
        "impliedDirection": 180,
        "testDirection": 180,
        "avgFps": 180,
        "minFps": 175,
        "maxFps": 185,
        "totalFrames": 147,
        "frameRates": 180
      },
      {
        "trial_number": 38,
        "trial_index": 255,
        "rt": 1570,
        "correct": true,
        "response": "ArrowRight",
        "congruent": false,
        "gazeTowards": false,
        "gazeCondition": "away",
        "faceOnLeft": false,
        "impliedDirection": 180,
        "testDirection": 0,
        "avgFps": 180,
        "minFps": 175,
        "maxFps": 185,
        "totalFrames": 283,
        "frameRates": 180
      },
      {
        "trial_number": 39,
        "trial_index": 260,
        "rt": 884,
        "correct": true,
        "response": "ArrowRight",
        "congruent": true,
        "gazeTowards": true,
        "gazeCondition": "towards",
        "faceOnLeft": true,
        "impliedDirection": 0,
        "testDirection": 0,
        "avgFps": 180,
        "minFps": 175,
        "maxFps": 185,
        "totalFrames": 159,
        "frameRates": 180
      },
      {
        "trial_number": 40,
        "trial_index": 265,
        "rt": 961,
        "correct": true,
        "response": "ArrowLeft",
        "congruent": false,
        "gazeTowards": false,
        "gazeCondition": "away",
        "faceOnLeft": true,
        "impliedDirection": 0,
        "testDirection": 180,
        "avgFps": 180,
        "minFps": 175,
        "maxFps": 185,
        "totalFrames": 173,
        "frameRates": 180
      },
      {
        "trial_number": 41,
        "trial_index": 270,
        "rt": 659,
        "correct": true,
        "response": "ArrowLeft",
        "congruent": false,
        "gazeTowards": false,
        "gazeCondition": "away",
        "faceOnLeft": true,
        "impliedDirection": 0,
        "testDirection": 180,
        "avgFps": 180,
        "minFps": 175,
        "maxFps": 182,
        "totalFrames": 118,
        "frameRates": 180
      },
      {
        "trial_number": 42,
        "trial_index": 275,
        "rt": 772,
        "correct": true,
        "response": "ArrowLeft",
        "congruent": true,
        "gazeTowards": true,
        "gazeCondition": "towards",
        "faceOnLeft": false,
        "impliedDirection": 180,
        "testDirection": 180,
        "avgFps": 180,
        "minFps": 175,
        "maxFps": 185,
        "totalFrames": 139,
        "frameRates": 180
      },
      {
        "trial_number": 43,
        "trial_index": 280,
        "rt": 1278,
        "correct": true,
        "response": "ArrowLeft",
        "congruent": true,
        "gazeTowards": true,
        "gazeCondition": "towards",
        "faceOnLeft": false,
        "impliedDirection": 180,
        "testDirection": 180,
        "avgFps": 180,
        "minFps": 175,
        "maxFps": 185,
        "totalFrames": 230,
        "frameRates": 180
      },
      {
        "trial_number": 44,
        "trial_index": 285,
        "rt": 692,
        "correct": true,
        "response": "ArrowRight",
        "congruent": false,
        "gazeTowards": true,
        "gazeCondition": "towards",
        "faceOnLeft": false,
        "impliedDirection": 180,
        "testDirection": 0,
        "avgFps": 180,
        "minFps": 175,
        "maxFps": 185,
        "totalFrames": 124,
        "frameRates": 180
      },
      {
        "trial_number": 45,
        "trial_index": 290,
        "rt": 693,
        "correct": true,
        "response": "ArrowLeft",
        "congruent": true,
        "gazeTowards": true,
        "gazeCondition": "towards",
        "faceOnLeft": false,
        "impliedDirection": 180,
        "testDirection": 180,
        "avgFps": 180,
        "minFps": 175,
        "maxFps": 185,
        "totalFrames": 124,
        "frameRates": 180
      },
      {
        "trial_number": 46,
        "trial_index": 295,
        "rt": 728,
        "correct": true,
        "response": "ArrowRight",
        "congruent": true,
        "gazeTowards": false,
        "gazeCondition": "away",
        "faceOnLeft": true,
        "impliedDirection": 0,
        "testDirection": 0,
        "avgFps": 180,
        "minFps": 175,
        "maxFps": 185,
        "totalFrames": 131,
        "frameRates": 180
      },
      {
        "trial_number": 47,
        "trial_index": 300,
        "rt": 829,
        "correct": true,
        "response": "ArrowLeft",
        "congruent": true,
        "gazeTowards": true,
        "gazeCondition": "towards",
        "faceOnLeft": false,
        "impliedDirection": 180,
        "testDirection": 180,
        "avgFps": 180,
        "minFps": 175,
        "maxFps": 185,
        "totalFrames": 149,
        "frameRates": 180
      },
      {
        "trial_number": 48,
        "trial_index": 305,
        "rt": 1064,
        "correct": true,
        "response": "ArrowLeft",
        "congruent": false,
        "gazeTowards": true,
        "gazeCondition": "towards",
        "faceOnLeft": true,
        "impliedDirection": 0,
        "testDirection": 180,
        "avgFps": 180,
        "minFps": 175,
        "maxFps": 182,
        "totalFrames": 192,
        "frameRates": 180
      },
      {
        "trial_number": 49,
        "trial_index": 310,
        "rt": 782,
        "correct": true,
        "response": "ArrowLeft",
        "congruent": true,
        "gazeTowards": false,
        "gazeCondition": "away",
        "faceOnLeft": false,
        "impliedDirection": 180,
        "testDirection": 180,
        "avgFps": 180,
        "minFps": 175,
        "maxFps": 185,
        "totalFrames": 140,
        "frameRates": 180
      },
      {
        "trial_number": 50,
        "trial_index": 315,
        "rt": 777,
        "correct": true,
        "response": "ArrowRight",
        "congruent": true,
        "gazeTowards": false,
        "gazeCondition": "away",
        "faceOnLeft": true,
        "impliedDirection": 0,
        "testDirection": 0,
        "avgFps": 180,
        "minFps": 175,
        "maxFps": 185,
        "totalFrames": 140,
        "frameRates": 180
      },
      {
        "trial_number": 51,
        "trial_index": 320,
        "rt": 596,
        "correct": true,
        "response": "ArrowRight",
        "congruent": true,
        "gazeTowards": false,
        "gazeCondition": "away",
        "faceOnLeft": true,
        "impliedDirection": 0,
        "testDirection": 0,
        "avgFps": 180,
        "minFps": 175,
        "maxFps": 185,
        "totalFrames": 107,
        "frameRates": 180
      },
      {
        "trial_number": 52,
        "trial_index": 325,
        "rt": 862,
        "correct": true,
        "response": "ArrowRight",
        "congruent": true,
        "gazeTowards": true,
        "gazeCondition": "towards",
        "faceOnLeft": true,
        "impliedDirection": 0,
        "testDirection": 0,
        "avgFps": 180,
        "minFps": 175,
        "maxFps": 185,
        "totalFrames": 155,
        "frameRates": 180
      },
      {
        "trial_number": 53,
        "trial_index": 330,
        "rt": 932,
        "correct": true,
        "response": "ArrowLeft",
        "congruent": false,
        "gazeTowards": false,
        "gazeCondition": "away",
        "faceOnLeft": true,
        "impliedDirection": 0,
        "testDirection": 180,
        "avgFps": 180,
        "minFps": 175,
        "maxFps": 185,
        "totalFrames": 167,
        "frameRates": 180
      },
      {
        "trial_number": 54,
        "trial_index": 335,
        "rt": 675,
        "correct": true,
        "response": "ArrowRight",
        "congruent": true,
        "gazeTowards": false,
        "gazeCondition": "away",
        "faceOnLeft": true,
        "impliedDirection": 0,
        "testDirection": 0,
        "avgFps": 180,
        "minFps": 175,
        "maxFps": 185,
        "totalFrames": 122,
        "frameRates": 180
      },
      {
        "trial_number": 55,
        "trial_index": 340,
        "rt": 782,
        "correct": true,
        "response": "ArrowRight",
        "congruent": false,
        "gazeTowards": true,
        "gazeCondition": "towards",
        "faceOnLeft": false,
        "impliedDirection": 180,
        "testDirection": 0,
        "avgFps": 180,
        "minFps": 175,
        "maxFps": 185,
        "totalFrames": 141,
        "frameRates": 180
      },
      {
        "trial_number": 56,
        "trial_index": 345,
        "rt": 593,
        "correct": true,
        "response": "ArrowLeft",
        "congruent": false,
        "gazeTowards": true,
        "gazeCondition": "towards",
        "faceOnLeft": true,
        "impliedDirection": 0,
        "testDirection": 180,
        "avgFps": 180,
        "minFps": 175,
        "maxFps": 185,
        "totalFrames": 106,
        "frameRates": 180
      },
      {
        "trial_number": 57,
        "trial_index": 350,
        "rt": 569,
        "correct": true,
        "response": "ArrowRight",
        "congruent": true,
        "gazeTowards": false,
        "gazeCondition": "away",
        "faceOnLeft": true,
        "impliedDirection": 0,
        "testDirection": 0,
        "avgFps": 180,
        "minFps": 175,
        "maxFps": 185,
        "totalFrames": 103,
        "frameRates": 180
      },
      {
        "trial_number": 58,
        "trial_index": 355,
        "rt": 673,
        "correct": true,
        "response": "ArrowLeft",
        "congruent": false,
        "gazeTowards": false,
        "gazeCondition": "away",
        "faceOnLeft": true,
        "impliedDirection": 0,
        "testDirection": 180,
        "avgFps": 180,
        "minFps": 175,
        "maxFps": 185,
        "totalFrames": 121,
        "frameRates": 180
      },
      {
        "trial_number": 59,
        "trial_index": 367,
        "rt": 589,
        "correct": true,
        "response": "ArrowRight",
        "congruent": false,
        "gazeTowards": false,
        "gazeCondition": "away",
        "faceOnLeft": false,
        "impliedDirection": 180,
        "testDirection": 0,
        "avgFps": 180,
        "minFps": 175,
        "maxFps": 185,
        "totalFrames": 106,
        "frameRates": 180
      },
      {
        "trial_number": 60,
        "trial_index": 375,
        "rt": 532,
        "correct": true,
        "response": "ArrowRight",
        "congruent": true,
        "gazeTowards": false,
        "gazeCondition": "away",
        "faceOnLeft": true,
        "impliedDirection": 0,
        "testDirection": 0,
        "avgFps": 180,
        "minFps": 175,
        "maxFps": 185,
        "totalFrames": 96,
        "frameRates": 180
      },
      {
        "trial_number": 61,
        "trial_index": 380,
        "rt": 1001,
        "correct": true,
        "response": "ArrowRight",
        "congruent": false,
        "gazeTowards": true,
        "gazeCondition": "towards",
        "faceOnLeft": false,
        "impliedDirection": 180,
        "testDirection": 0,
        "avgFps": 180,
        "minFps": 175,
        "maxFps": 185,
        "totalFrames": 180,
        "frameRates": 180
      },
      {
        "trial_number": 62,
        "trial_index": 385,
        "rt": 625,
        "correct": true,
        "response": "ArrowLeft",
        "congruent": false,
        "gazeTowards": true,
        "gazeCondition": "towards",
        "faceOnLeft": true,
        "impliedDirection": 0,
        "testDirection": 180,
        "avgFps": 180,
        "minFps": 175,
        "maxFps": 185,
        "totalFrames": 112,
        "frameRates": 180
      },
      {
        "trial_number": 63,
        "trial_index": 390,
        "rt": 635,
        "correct": true,
        "response": "ArrowLeft",
        "congruent": true,
        "gazeTowards": false,
        "gazeCondition": "away",
        "faceOnLeft": false,
        "impliedDirection": 180,
        "testDirection": 180,
        "avgFps": 180,
        "minFps": 172,
        "maxFps": 189,
        "totalFrames": 114,
        "frameRates": 180
      },
      {
        "trial_number": 64,
        "trial_index": 395,
        "rt": 639,
        "correct": true,
        "response": "ArrowLeft",
        "congruent": true,
        "gazeTowards": true,
        "gazeCondition": "towards",
        "faceOnLeft": false,
        "impliedDirection": 180,
        "testDirection": 180,
        "avgFps": 180,
        "minFps": 175,
        "maxFps": 185,
        "totalFrames": 115,
        "frameRates": 180
      },
      {
        "trial_number": 65,
        "trial_index": 400,
        "rt": 537,
        "correct": true,
        "response": "ArrowLeft",
        "congruent": false,
        "gazeTowards": false,
        "gazeCondition": "away",
        "faceOnLeft": true,
        "impliedDirection": 0,
        "testDirection": 180,
        "avgFps": 180,
        "minFps": 175,
        "maxFps": 185,
        "totalFrames": 97,
        "frameRates": 180
      },
      {
        "trial_number": 66,
        "trial_index": 405,
        "rt": 548,
        "correct": true,
        "response": "ArrowRight",
        "congruent": true,
        "gazeTowards": false,
        "gazeCondition": "away",
        "faceOnLeft": true,
        "impliedDirection": 0,
        "testDirection": 0,
        "avgFps": 180,
        "minFps": 175,
        "maxFps": 185,
        "totalFrames": 99,
        "frameRates": 180
      },
      {
        "trial_number": 67,
        "trial_index": 410,
        "rt": 746,
        "correct": true,
        "response": "ArrowRight",
        "congruent": true,
        "gazeTowards": true,
        "gazeCondition": "towards",
        "faceOnLeft": true,
        "impliedDirection": 0,
        "testDirection": 0,
        "avgFps": 180,
        "minFps": 175,
        "maxFps": 185,
        "totalFrames": 135,
        "frameRates": 180
      },
      {
        "trial_number": 68,
        "trial_index": 415,
        "rt": 796,
        "correct": true,
        "response": "ArrowRight",
        "congruent": false,
        "gazeTowards": true,
        "gazeCondition": "towards",
        "faceOnLeft": false,
        "impliedDirection": 180,
        "testDirection": 0,
        "avgFps": 180,
        "minFps": 175,
        "maxFps": 185,
        "totalFrames": 143,
        "frameRates": 180
      },
      {
        "trial_number": 69,
        "trial_index": 420,
        "rt": 750,
        "correct": true,
        "response": "ArrowRight",
        "congruent": false,
        "gazeTowards": false,
        "gazeCondition": "away",
        "faceOnLeft": false,
        "impliedDirection": 180,
        "testDirection": 0,
        "avgFps": 180,
        "minFps": 175,
        "maxFps": 185,
        "totalFrames": 135,
        "frameRates": 180
      },
      {
        "trial_number": 70,
        "trial_index": 425,
        "rt": 495,
        "correct": true,
        "response": "ArrowLeft",
        "congruent": false,
        "gazeTowards": false,
        "gazeCondition": "away",
        "faceOnLeft": true,
        "impliedDirection": 0,
        "testDirection": 180,
        "avgFps": 180,
        "minFps": 175,
        "maxFps": 185,
        "totalFrames": 89,
        "frameRates": 180
      },
      {
        "trial_number": 71,
        "trial_index": 430,
        "rt": 518,
        "correct": true,
        "response": "ArrowLeft",
        "congruent": true,
        "gazeTowards": true,
        "gazeCondition": "towards",
        "faceOnLeft": false,
        "impliedDirection": 180,
        "testDirection": 180,
        "avgFps": 180,
        "minFps": 175,
        "maxFps": 185,
        "totalFrames": 93,
        "frameRates": 180
      },
      {
        "trial_number": 72,
        "trial_index": 435,
        "rt": 618,
        "correct": true,
        "response": "ArrowLeft",
        "congruent": false,
        "gazeTowards": true,
        "gazeCondition": "towards",
        "faceOnLeft": true,
        "impliedDirection": 0,
        "testDirection": 180,
        "avgFps": 180,
        "minFps": 175,
        "maxFps": 185,
        "totalFrames": 111,
        "frameRates": 180
      },
      {
        "trial_number": 73,
        "trial_index": 440,
        "rt": 520,
        "correct": true,
        "response": "ArrowRight",
        "congruent": false,
        "gazeTowards": false,
        "gazeCondition": "away",
        "faceOnLeft": false,
        "impliedDirection": 180,
        "testDirection": 0,
        "avgFps": 180,
        "minFps": 175,
        "maxFps": 185,
        "totalFrames": 94,
        "frameRates": 180
      },
      {
        "trial_number": 74,
        "trial_index": 445,
        "rt": 667,
        "correct": true,
        "response": "ArrowRight",
        "congruent": false,
        "gazeTowards": false,
        "gazeCondition": "away",
        "faceOnLeft": false,
        "impliedDirection": 180,
        "testDirection": 0,
        "avgFps": 180,
        "minFps": 175,
        "maxFps": 185,
        "totalFrames": 120,
        "frameRates": 180
      },
      {
        "trial_number": 75,
        "trial_index": 450,
        "rt": 969,
        "correct": true,
        "response": "ArrowRight",
        "congruent": false,
        "gazeTowards": true,
        "gazeCondition": "towards",
        "faceOnLeft": false,
        "impliedDirection": 180,
        "testDirection": 0,
        "avgFps": 180,
        "minFps": 175,
        "maxFps": 185,
        "totalFrames": 174,
        "frameRates": 180
      },
      {
        "trial_number": 76,
        "trial_index": 455,
        "rt": 854,
        "correct": true,
        "response": "ArrowRight",
        "congruent": true,
        "gazeTowards": false,
        "gazeCondition": "away",
        "faceOnLeft": true,
        "impliedDirection": 0,
        "testDirection": 0,
        "avgFps": 180,
        "minFps": 175,
        "maxFps": 185,
        "totalFrames": 154,
        "frameRates": 180
      },
      {
        "trial_number": 77,
        "trial_index": 460,
        "rt": 540,
        "correct": true,
        "response": "ArrowRight",
        "congruent": true,
        "gazeTowards": false,
        "gazeCondition": "away",
        "faceOnLeft": true,
        "impliedDirection": 0,
        "testDirection": 0,
        "avgFps": 180,
        "minFps": 175,
        "maxFps": 185,
        "totalFrames": 97,
        "frameRates": 180
      },
      {
        "trial_number": 78,
        "trial_index": 465,
        "rt": 530,
        "correct": true,
        "response": "ArrowRight",
        "congruent": false,
        "gazeTowards": true,
        "gazeCondition": "towards",
        "faceOnLeft": false,
        "impliedDirection": 180,
        "testDirection": 0,
        "avgFps": 180,
        "minFps": 175,
        "maxFps": 185,
        "totalFrames": 96,
        "frameRates": 180
      },
      {
        "trial_number": 79,
        "trial_index": 470,
        "rt": 710,
        "correct": true,
        "response": "ArrowRight",
        "congruent": true,
        "gazeTowards": true,
        "gazeCondition": "towards",
        "faceOnLeft": true,
        "impliedDirection": 0,
        "testDirection": 0,
        "avgFps": 180,
        "minFps": 175,
        "maxFps": 185,
        "totalFrames": 128,
        "frameRates": 180
      },
      {
        "trial_number": 80,
        "trial_index": 475,
        "rt": 614,
        "correct": true,
        "response": "ArrowRight",
        "congruent": false,
        "gazeTowards": false,
        "gazeCondition": "away",
        "faceOnLeft": false,
        "impliedDirection": 180,
        "testDirection": 0,
        "avgFps": 180,
        "minFps": 175,
        "maxFps": 185,
        "totalFrames": 110,
        "frameRates": 180
      },
      {
        "trial_number": 81,
        "trial_index": 483,
        "rt": 594,
        "correct": true,
        "response": "ArrowLeft",
        "congruent": false,
        "gazeTowards": false,
        "gazeCondition": "away",
        "faceOnLeft": true,
        "impliedDirection": 0,
        "testDirection": 180,
        "avgFps": 180,
        "minFps": 175,
        "maxFps": 185,
        "totalFrames": 107,
        "frameRates": 180
      },
      {
        "trial_number": 82,
        "trial_index": 488,
        "rt": 921,
        "correct": true,
        "response": "ArrowLeft",
        "congruent": true,
        "gazeTowards": false,
        "gazeCondition": "away",
        "faceOnLeft": false,
        "impliedDirection": 180,
        "testDirection": 180,
        "avgFps": 180,
        "minFps": 175,
        "maxFps": 185,
        "totalFrames": 165,
        "frameRates": 180
      },
      {
        "trial_number": 83,
        "trial_index": 493,
        "rt": 633,
        "correct": true,
        "response": "ArrowLeft",
        "congruent": false,
        "gazeTowards": false,
        "gazeCondition": "away",
        "faceOnLeft": true,
        "impliedDirection": 0,
        "testDirection": 180,
        "avgFps": 180,
        "minFps": 175,
        "maxFps": 185,
        "totalFrames": 114,
        "frameRates": 180
      },
      {
        "trial_number": 84,
        "trial_index": 498,
        "rt": 586,
        "correct": true,
        "response": "ArrowRight",
        "congruent": false,
        "gazeTowards": true,
        "gazeCondition": "towards",
        "faceOnLeft": false,
        "impliedDirection": 180,
        "testDirection": 0,
        "avgFps": 180,
        "minFps": 175,
        "maxFps": 185,
        "totalFrames": 105,
        "frameRates": 180
      },
      {
        "trial_number": 85,
        "trial_index": 503,
        "rt": 649,
        "correct": true,
        "response": "ArrowLeft",
        "congruent": false,
        "gazeTowards": false,
        "gazeCondition": "away",
        "faceOnLeft": true,
        "impliedDirection": 0,
        "testDirection": 180,
        "avgFps": 180,
        "minFps": 175,
        "maxFps": 185,
        "totalFrames": 117,
        "frameRates": 180
      },
      {
        "trial_number": 86,
        "trial_index": 508,
        "rt": 534,
        "correct": true,
        "response": "ArrowRight",
        "congruent": false,
        "gazeTowards": true,
        "gazeCondition": "towards",
        "faceOnLeft": false,
        "impliedDirection": 180,
        "testDirection": 0,
        "avgFps": 180,
        "minFps": 175,
        "maxFps": 182,
        "totalFrames": 96,
        "frameRates": 180
      },
      {
        "trial_number": 87,
        "trial_index": 513,
        "rt": 524,
        "correct": true,
        "response": "ArrowLeft",
        "congruent": true,
        "gazeTowards": false,
        "gazeCondition": "away",
        "faceOnLeft": false,
        "impliedDirection": 180,
        "testDirection": 180,
        "avgFps": 180,
        "minFps": 175,
        "maxFps": 182,
        "totalFrames": 94,
        "frameRates": 180
      },
      {
        "trial_number": 88,
        "trial_index": 521,
        "rt": 598,
        "correct": true,
        "response": "ArrowRight",
        "congruent": true,
        "gazeTowards": false,
        "gazeCondition": "away",
        "faceOnLeft": true,
        "impliedDirection": 0,
        "testDirection": 0,
        "avgFps": 180,
        "minFps": 175,
        "maxFps": 185,
        "totalFrames": 108,
        "frameRates": 180
      },
      {
        "trial_number": 89,
        "trial_index": 527,
        "rt": 504,
        "correct": true,
        "response": "ArrowRight",
        "congruent": false,
        "gazeTowards": true,
        "gazeCondition": "towards",
        "faceOnLeft": false,
        "impliedDirection": 180,
        "testDirection": 0,
        "avgFps": 180,
        "minFps": 175,
        "maxFps": 185,
        "totalFrames": 91,
        "frameRates": 180
      },
      {
        "trial_number": 90,
        "trial_index": 532,
        "rt": 677,
        "correct": true,
        "response": "ArrowRight",
        "congruent": true,
        "gazeTowards": false,
        "gazeCondition": "away",
        "faceOnLeft": true,
        "impliedDirection": 0,
        "testDirection": 0,
        "avgFps": 180,
        "minFps": 175,
        "maxFps": 185,
        "totalFrames": 122,
        "frameRates": 180
      },
      {
        "trial_number": 91,
        "trial_index": 537,
        "rt": 707,
        "correct": true,
        "response": "ArrowRight",
        "congruent": false,
        "gazeTowards": false,
        "gazeCondition": "away",
        "faceOnLeft": false,
        "impliedDirection": 180,
        "testDirection": 0,
        "avgFps": 180,
        "minFps": 175,
        "maxFps": 185,
        "totalFrames": 127,
        "frameRates": 180
      },
      {
        "trial_number": 92,
        "trial_index": 542,
        "rt": 953,
        "correct": true,
        "response": "ArrowRight",
        "congruent": false,
        "gazeTowards": false,
        "gazeCondition": "away",
        "faceOnLeft": false,
        "impliedDirection": 180,
        "testDirection": 0,
        "avgFps": 180,
        "minFps": 175,
        "maxFps": 185,
        "totalFrames": 172,
        "frameRates": 180
      },
      {
        "trial_number": 93,
        "trial_index": 550,
        "rt": 626,
        "correct": true,
        "response": "ArrowRight",
        "congruent": false,
        "gazeTowards": false,
        "gazeCondition": "away",
        "faceOnLeft": false,
        "impliedDirection": 180,
        "testDirection": 0,
        "avgFps": 180,
        "minFps": 175,
        "maxFps": 185,
        "totalFrames": 113,
        "frameRates": 180
      },
      {
        "trial_number": 94,
        "trial_index": 555,
        "rt": 722,
        "correct": true,
        "response": "ArrowRight",
        "congruent": true,
        "gazeTowards": true,
        "gazeCondition": "towards",
        "faceOnLeft": true,
        "impliedDirection": 0,
        "testDirection": 0,
        "avgFps": 180,
        "minFps": 175,
        "maxFps": 185,
        "totalFrames": 130,
        "frameRates": 180
      },
      {
        "trial_number": 95,
        "trial_index": 563,
        "rt": 507,
        "correct": true,
        "response": "ArrowLeft",
        "congruent": true,
        "gazeTowards": true,
        "gazeCondition": "towards",
        "faceOnLeft": false,
        "impliedDirection": 180,
        "testDirection": 180,
        "avgFps": 180,
        "minFps": 172,
        "maxFps": 185,
        "totalFrames": 92,
        "frameRates": 180
      },
      {
        "trial_number": 96,
        "trial_index": 568,
        "rt": 834,
        "correct": true,
        "response": "ArrowLeft",
        "congruent": false,
        "gazeTowards": true,
        "gazeCondition": "towards",
        "faceOnLeft": true,
        "impliedDirection": 0,
        "testDirection": 180,
        "avgFps": 180,
        "minFps": 175,
        "maxFps": 185,
        "totalFrames": 150,
        "frameRates": 180
      },
      {
        "trial_number": 97,
        "trial_index": 573,
        "rt": 597,
        "correct": true,
        "response": "ArrowLeft",
        "congruent": false,
        "gazeTowards": false,
        "gazeCondition": "away",
        "faceOnLeft": true,
        "impliedDirection": 0,
        "testDirection": 180,
        "avgFps": 182,
        "minFps": 175,
        "maxFps": 18519,
        "totalFrames": 108,
        "frameRates": 182
      },
      {
        "trial_number": 98,
        "trial_index": 578,
        "rt": 530,
        "correct": true,
        "response": "ArrowLeft",
        "congruent": false,
        "gazeTowards": true,
        "gazeCondition": "towards",
        "faceOnLeft": true,
        "impliedDirection": 0,
        "testDirection": 180,
        "avgFps": 180,
        "minFps": 175,
        "maxFps": 185,
        "totalFrames": 96,
        "frameRates": 180
      },
      {
        "trial_number": 99,
        "trial_index": 583,
        "rt": 613,
        "correct": true,
        "response": "ArrowLeft",
        "congruent": true,
        "gazeTowards": true,
        "gazeCondition": "towards",
        "faceOnLeft": false,
        "impliedDirection": 180,
        "testDirection": 180,
        "avgFps": 180,
        "minFps": 175,
        "maxFps": 185,
        "totalFrames": 111,
        "frameRates": 180
      },
      {
        "trial_number": 100,
        "trial_index": 588,
        "rt": 544,
        "correct": true,
        "response": "ArrowRight",
        "congruent": false,
        "gazeTowards": false,
        "gazeCondition": "away",
        "faceOnLeft": false,
        "impliedDirection": 180,
        "testDirection": 0,
        "avgFps": 180,
        "minFps": 175,
        "maxFps": 182,
        "totalFrames": 98,
        "frameRates": 180
      },
      {
        "trial_number": 101,
        "trial_index": 593,
        "rt": 427,
        "correct": true,
        "response": "ArrowLeft",
        "congruent": true,
        "gazeTowards": false,
        "gazeCondition": "away",
        "faceOnLeft": false,
        "impliedDirection": 180,
        "testDirection": 180,
        "avgFps": 180,
        "minFps": 175,
        "maxFps": 185,
        "totalFrames": 77,
        "frameRates": 180
      },
      {
        "trial_number": 102,
        "trial_index": 598,
        "rt": 460,
        "correct": true,
        "response": "ArrowRight",
        "congruent": false,
        "gazeTowards": true,
        "gazeCondition": "towards",
        "faceOnLeft": false,
        "impliedDirection": 180,
        "testDirection": 0,
        "avgFps": 180,
        "minFps": 175,
        "maxFps": 185,
        "totalFrames": 83,
        "frameRates": 180
      },
      {
        "trial_number": 103,
        "trial_index": 603,
        "rt": 477,
        "correct": true,
        "response": "ArrowRight",
        "congruent": true,
        "gazeTowards": true,
        "gazeCondition": "towards",
        "faceOnLeft": true,
        "impliedDirection": 0,
        "testDirection": 0,
        "avgFps": 180,
        "minFps": 175,
        "maxFps": 185,
        "totalFrames": 86,
        "frameRates": 180
      },
      {
        "trial_number": 104,
        "trial_index": 608,
        "rt": 549,
        "correct": true,
        "response": "ArrowRight",
        "congruent": false,
        "gazeTowards": false,
        "gazeCondition": "away",
        "faceOnLeft": false,
        "impliedDirection": 180,
        "testDirection": 0,
        "avgFps": 180,
        "minFps": 175,
        "maxFps": 185,
        "totalFrames": 99,
        "frameRates": 180
      },
      {
        "trial_number": 105,
        "trial_index": 613,
        "rt": 453,
        "correct": true,
        "response": "ArrowLeft",
        "congruent": true,
        "gazeTowards": false,
        "gazeCondition": "away",
        "faceOnLeft": false,
        "impliedDirection": 180,
        "testDirection": 180,
        "avgFps": 180,
        "minFps": 175,
        "maxFps": 185,
        "totalFrames": 82,
        "frameRates": 180
      },
      {
        "trial_number": 106,
        "trial_index": 618,
        "rt": 548,
        "correct": true,
        "response": "ArrowLeft",
        "congruent": true,
        "gazeTowards": true,
        "gazeCondition": "towards",
        "faceOnLeft": false,
        "impliedDirection": 180,
        "testDirection": 180,
        "avgFps": 180,
        "minFps": 175,
        "maxFps": 185,
        "totalFrames": 98,
        "frameRates": 180
      },
      {
        "trial_number": 107,
        "trial_index": 623,
        "rt": 885,
        "correct": true,
        "response": "ArrowLeft",
        "congruent": true,
        "gazeTowards": true,
        "gazeCondition": "towards",
        "faceOnLeft": false,
        "impliedDirection": 180,
        "testDirection": 180,
        "avgFps": 180,
        "minFps": 175,
        "maxFps": 185,
        "totalFrames": 159,
        "frameRates": 180
      },
      {
        "trial_number": 108,
        "trial_index": 628,
        "rt": 1444,
        "correct": true,
        "response": "ArrowLeft",
        "congruent": false,
        "gazeTowards": true,
        "gazeCondition": "towards",
        "faceOnLeft": true,
        "impliedDirection": 0,
        "testDirection": 180,
        "avgFps": 180,
        "minFps": 175,
        "maxFps": 185,
        "totalFrames": 260,
        "frameRates": 180
      },
      {
        "trial_number": 109,
        "trial_index": 633,
        "rt": 651,
        "correct": true,
        "response": "ArrowRight",
        "congruent": false,
        "gazeTowards": false,
        "gazeCondition": "away",
        "faceOnLeft": false,
        "impliedDirection": 180,
        "testDirection": 0,
        "avgFps": 180,
        "minFps": 175,
        "maxFps": 185,
        "totalFrames": 117,
        "frameRates": 180
      },
      {
        "trial_number": 110,
        "trial_index": 638,
        "rt": 632,
        "correct": true,
        "response": "ArrowRight",
        "congruent": true,
        "gazeTowards": false,
        "gazeCondition": "away",
        "faceOnLeft": true,
        "impliedDirection": 0,
        "testDirection": 0,
        "avgFps": 180,
        "minFps": 175,
        "maxFps": 185,
        "totalFrames": 113,
        "frameRates": 180
      },
      {
        "trial_number": 111,
        "trial_index": 643,
        "rt": 560,
        "correct": true,
        "response": "ArrowLeft",
        "congruent": true,
        "gazeTowards": false,
        "gazeCondition": "away",
        "faceOnLeft": false,
        "impliedDirection": 180,
        "testDirection": 180,
        "avgFps": 180,
        "minFps": 175,
        "maxFps": 185,
        "totalFrames": 101,
        "frameRates": 180
      },
      {
        "trial_number": 112,
        "trial_index": 648,
        "rt": 726,
        "correct": true,
        "response": "ArrowLeft",
        "congruent": true,
        "gazeTowards": true,
        "gazeCondition": "towards",
        "faceOnLeft": false,
        "impliedDirection": 180,
        "testDirection": 180,
        "avgFps": 180,
        "minFps": 175,
        "maxFps": 185,
        "totalFrames": 131,
        "frameRates": 180
      },
      {
        "trial_number": 113,
        "trial_index": 653,
        "rt": 640,
        "correct": true,
        "response": "ArrowLeft",
        "congruent": true,
        "gazeTowards": false,
        "gazeCondition": "away",
        "faceOnLeft": false,
        "impliedDirection": 180,
        "testDirection": 180,
        "avgFps": 180,
        "minFps": 175,
        "maxFps": 185,
        "totalFrames": 115,
        "frameRates": 180
      },
      {
        "trial_number": 114,
        "trial_index": 658,
        "rt": 565,
        "correct": true,
        "response": "ArrowLeft",
        "congruent": true,
        "gazeTowards": false,
        "gazeCondition": "away",
        "faceOnLeft": false,
        "impliedDirection": 180,
        "testDirection": 180,
        "avgFps": 180,
        "minFps": 175,
        "maxFps": 185,
        "totalFrames": 101,
        "frameRates": 180
      },
      {
        "trial_number": 115,
        "trial_index": 663,
        "rt": 851,
        "correct": true,
        "response": "ArrowLeft",
        "congruent": false,
        "gazeTowards": true,
        "gazeCondition": "towards",
        "faceOnLeft": true,
        "impliedDirection": 0,
        "testDirection": 180,
        "avgFps": 180,
        "minFps": 175,
        "maxFps": 185,
        "totalFrames": 154,
        "frameRates": 180
      },
      {
        "trial_number": 116,
        "trial_index": 668,
        "rt": 861,
        "correct": true,
        "response": "ArrowRight",
        "congruent": true,
        "gazeTowards": true,
        "gazeCondition": "towards",
        "faceOnLeft": true,
        "impliedDirection": 0,
        "testDirection": 0,
        "avgFps": 180,
        "minFps": 175,
        "maxFps": 185,
        "totalFrames": 155,
        "frameRates": 180
      },
      {
        "trial_number": 117,
        "trial_index": 673,
        "rt": 923,
        "correct": true,
        "response": "ArrowRight",
        "congruent": false,
        "gazeTowards": true,
        "gazeCondition": "towards",
        "faceOnLeft": false,
        "impliedDirection": 180,
        "testDirection": 0,
        "avgFps": 180,
        "minFps": 175,
        "maxFps": 185,
        "totalFrames": 166,
        "frameRates": 180
      },
      {
        "trial_number": 118,
        "trial_index": 678,
        "rt": 651,
        "correct": true,
        "response": "ArrowLeft",
        "congruent": true,
        "gazeTowards": false,
        "gazeCondition": "away",
        "faceOnLeft": false,
        "impliedDirection": 180,
        "testDirection": 180,
        "avgFps": 180,
        "minFps": 175,
        "maxFps": 185,
        "totalFrames": 117,
        "frameRates": 180
      },
      {
        "trial_number": 119,
        "trial_index": 683,
        "rt": 649,
        "correct": true,
        "response": "ArrowRight",
        "congruent": true,
        "gazeTowards": true,
        "gazeCondition": "towards",
        "faceOnLeft": true,
        "impliedDirection": 0,
        "testDirection": 0,
        "avgFps": 182,
        "minFps": 175,
        "maxFps": 11905,
        "totalFrames": 117,
        "frameRates": 182
      }
    ],
    "catch": {
      "total": 12,
      "correct": 12,
      "accuracy": 100,
      "meanRT": 806,
      "trials": [
        {
          "trial_number": 0,
          "trial_index": 83,
          "rt": 798,
          "correct": true,
          "colorTarget": "tree",
          "gazeTowards": false,
          "gazeCondition": "away",
          "faceOnLeft": false
        },
        {
          "trial_number": 1,
          "trial_index": 126,
          "rt": 870,
          "correct": true,
          "colorTarget": "tree",
          "gazeTowards": true,
          "gazeCondition": "towards",
          "faceOnLeft": false
        },
        {
          "trial_number": 2,
          "trial_index": 210,
          "rt": 561,
          "correct": true,
          "colorTarget": "face",
          "gazeTowards": true,
          "gazeCondition": "towards",
          "faceOnLeft": false
        },
        {
          "trial_number": 3,
          "trial_index": 223,
          "rt": 597,
          "correct": true,
          "colorTarget": "face",
          "gazeTowards": true,
          "gazeCondition": "towards",
          "faceOnLeft": true
        },
        {
          "trial_number": 4,
          "trial_index": 231,
          "rt": 469,
          "correct": true,
          "colorTarget": "face",
          "gazeTowards": false,
          "gazeCondition": "away",
          "faceOnLeft": true
        },
        {
          "trial_number": 5,
          "trial_index": 359,
          "rt": 920,
          "correct": true,
          "colorTarget": "face",
          "gazeTowards": true,
          "gazeCondition": "towards",
          "faceOnLeft": false
        },
        {
          "trial_number": 6,
          "trial_index": 362,
          "rt": 977,
          "correct": true,
          "colorTarget": "tree",
          "gazeTowards": false,
          "gazeCondition": "away",
          "faceOnLeft": false
        },
        {
          "trial_number": 7,
          "trial_index": 371,
          "rt": 872,
          "correct": true,
          "colorTarget": "tree",
          "gazeTowards": false,
          "gazeCondition": "away",
          "faceOnLeft": false
        },
        {
          "trial_number": 8,
          "trial_index": 479,
          "rt": 909,
          "correct": true,
          "colorTarget": "tree",
          "gazeTowards": true,
          "gazeCondition": "towards",
          "faceOnLeft": true
        },
        {
          "trial_number": 9,
          "trial_index": 517,
          "rt": 958,
          "correct": true,
          "colorTarget": "face",
          "gazeTowards": true,
          "gazeCondition": "towards",
          "faceOnLeft": true
        },
        {
          "trial_number": 10,
          "trial_index": 546,
          "rt": 825,
          "correct": true,
          "colorTarget": "tree",
          "gazeTowards": false,
          "gazeCondition": "away",
          "faceOnLeft": false
        },
        {
          "trial_number": 11,
          "trial_index": 559,
          "rt": 912,
          "correct": true,
          "colorTarget": "face",
          "gazeTowards": false,
          "gazeCondition": "away",
          "faceOnLeft": false
        }
      ]
    },
    "practice": {
      "trials": [
        {
          "trial_number": 0,
          "rt": null,
          "correct": false,
          "direction": 0
        },
        {
          "trial_number": 1,
          "rt": 772,
          "correct": true,
          "direction": 180
        },
        {
          "trial_number": 2,
          "rt": 1300,
          "correct": true,
          "direction": 180
        },
        {
          "trial_number": 3,
          "rt": 1242,
          "correct": true,
          "direction": 180
        },
        {
          "trial_number": 4,
          "rt": 601,
          "correct": true,
          "direction": 0
        },
        {
          "trial_number": 5,
          "rt": 1030,
          "correct": true,
          "direction": 0
        },
        {
          "trial_number": 6,
          "rt": 1097,
          "correct": true,
          "direction": 0
        },
        {
          "trial_number": 7,
          "rt": 781,
          "correct": true,
          "direction": 180
        },
        {
          "trial_number": 8,
          "rt": 786,
          "correct": true,
          "direction": 180
        },
        {
          "trial_number": 9,
          "rt": 682,
          "correct": true,
          "direction": 0
        }
      ],
      "meanRT": 921,
      "accuracy": 90
    }
  }
}