{
  "experiment": "rdk-face-1",
  "UUID": "0ab24d02-43c4-4610-9fba-98dbab8f68dc",
  "data": {
    "session": {
      "experiment_version": "1.8.6",
      "treatment": "faces_towards_away_catch",
      "file_version": "1.8.6",
      "totalTrials": 120,
      "totalTrialsIncludingCatch": 132,
      "conditions": {
        "gazeTowardsCount": 60,
        "gazeAwayCount": 60,
        "gazeTowardsAccuracy": 70,
        "gazeAwayAccuracy": 65
      },
      "session_group": "default",
      "browserData": {
        "os": "Linux",
        "browser": "Firefox",
        "screenResolution": "1280x720",
        "browserViewport": "1280x720",
        "devicePixelRatio": 1,
        "colorDepth": 24,
        "hardwareConcurrency": 8,
        "deviceMemory": "Unknown",
        "gpuRenderer": "Intel(R) HD Graphics, or similar",
        "measuredRefreshRateHz": 60
      },
      "attention": {
        "visibilityEvents": [
          {
            "event": "focus",
            "state": "focused",
            "timestamp": 1772768008419
          },
          {
            "event": "blur",
            "state": "blurred",
            "timestamp": 1772768009735
          },
          {
            "event": "focus",
            "state": "focused",
            "timestamp": 1772768112125
          },
          {
            "event": "blur",
            "state": "blurred",
            "timestamp": 1772768114121
          },
          {
            "event": "focus",
            "state": "focused",
            "timestamp": 1772768117198
          }
        ]
      },
      "calibration": {
        "monitorWidthCm": 38,
        "viewingDistanceCm": 54,
        "pixelsPerDegree": 50
      },
      "parameters": {
        "coherence": 0.4,
        "apertureDeg": 5,
        "densityDotsPerDeg2": 40,
        "dotDiameterDeg": 0.035,
        "dotSpeedDegPerSec": 3,
        "lifetimeMs": 200,
        "fixationDurationMs": 1500,
        "faceDurationMs": 1500,
        "testDurationMs": 2000,
        "catchResponseMs": 3000
      },
      "prolific": {
        "prolificPid": "5ec0ba1bfa01894cceaa1b8e",
        "studyId": "",
        "sessionId": ""
      },
      "timing": {
        "startTime": "2026-03-06T03:33:28.401Z",
        "endTime": "2026-03-06T03:50:52.658Z",
        "totalElapsedTimeMs": 1044257
      }
    },
    "trials": [
      {
        "trial_number": 0,
        "trial_index": 90,
        "rt": 1113,
        "correct": true,
        "response": "ArrowLeft",
        "congruent": true,
        "gazeTowards": true,
        "gazeCondition": "towards",
        "faceOnLeft": false,
        "impliedDirection": 180,
        "testDirection": 180,
        "avgFps": 61,
        "minFps": 58,
        "maxFps": 3125,
        "totalFrames": 67,
        "frameRates": 61
      },
      {
        "trial_number": 1,
        "trial_index": 95,
        "rt": 921,
        "correct": true,
        "response": "ArrowRight",
        "congruent": true,
        "gazeTowards": true,
        "gazeCondition": "towards",
        "faceOnLeft": true,
        "impliedDirection": 0,
        "testDirection": 0,
        "avgFps": 61,
        "minFps": 58,
        "maxFps": 2381,
        "totalFrames": 56,
        "frameRates": 61
      },
      {
        "trial_number": 2,
        "trial_index": 100,
        "rt": 948,
        "correct": true,
        "response": "ArrowLeft",
        "congruent": false,
        "gazeTowards": true,
        "gazeCondition": "towards",
        "faceOnLeft": true,
        "impliedDirection": 0,
        "testDirection": 180,
        "avgFps": 61,
        "minFps": 58,
        "maxFps": 1852,
        "totalFrames": 57,
        "frameRates": 61
      },
      {
        "trial_number": 3,
        "trial_index": 105,
        "rt": 698,
        "correct": true,
        "response": "ArrowRight",
        "congruent": true,
        "gazeTowards": true,
        "gazeCondition": "towards",
        "faceOnLeft": true,
        "impliedDirection": 0,
        "testDirection": 0,
        "avgFps": 61,
        "minFps": 58,
        "maxFps": 98,
        "totalFrames": 42,
        "frameRates": 61
      },
      {
        "trial_number": 4,
        "trial_index": 110,
        "rt": 1158,
        "correct": false,
        "response": "ArrowLeft",
        "congruent": true,
        "gazeTowards": false,
        "gazeCondition": "away",
        "faceOnLeft": true,
        "impliedDirection": 0,
        "testDirection": 0,
        "avgFps": 60,
        "minFps": 58,
        "maxFps": 71,
        "totalFrames": 69,
        "frameRates": 60
      },
      {
        "trial_number": 5,
        "trial_index": 118,
        "rt": 988,
        "correct": true,
        "response": "ArrowRight",
        "congruent": false,
        "gazeTowards": true,
        "gazeCondition": "towards",
        "faceOnLeft": false,
        "impliedDirection": 180,
        "testDirection": 0,
        "avgFps": 60,
        "minFps": 58,
        "maxFps": 64,
        "totalFrames": 59,
        "frameRates": 60
      },
      {
        "trial_number": 6,
        "trial_index": 123,
        "rt": 934,
        "correct": true,
        "response": "ArrowLeft",
        "congruent": true,
        "gazeTowards": true,
        "gazeCondition": "towards",
        "faceOnLeft": false,
        "impliedDirection": 180,
        "testDirection": 180,
        "avgFps": 61,
        "minFps": 58,
        "maxFps": 568,
        "totalFrames": 57,
        "frameRates": 61
      },
      {
        "trial_number": 7,
        "trial_index": 128,
        "rt": 976,
        "correct": true,
        "response": "ArrowRight",
        "congruent": true,
        "gazeTowards": true,
        "gazeCondition": "towards",
        "faceOnLeft": true,
        "impliedDirection": 0,
        "testDirection": 0,
        "avgFps": 60,
        "minFps": 58,
        "maxFps": 87,
        "totalFrames": 58,
        "frameRates": 60
      },
      {
        "trial_number": 8,
        "trial_index": 133,
        "rt": 903,
        "correct": true,
        "response": "ArrowLeft",
        "congruent": false,
        "gazeTowards": true,
        "gazeCondition": "towards",
        "faceOnLeft": true,
        "impliedDirection": 0,
        "testDirection": 180,
        "avgFps": 60,
        "minFps": 58,
        "maxFps": 67,
        "totalFrames": 54,
        "frameRates": 60
      },
      {
        "trial_number": 9,
        "trial_index": 138,
        "rt": 688,
        "correct": true,
        "response": "ArrowRight",
        "congruent": true,
        "gazeTowards": true,
        "gazeCondition": "towards",
        "faceOnLeft": true,
        "impliedDirection": 0,
        "testDirection": 0,
        "avgFps": 60,
        "minFps": 58,
        "maxFps": 65,
        "totalFrames": 41,
        "frameRates": 60
      },
      {
        "trial_number": 10,
        "trial_index": 143,
        "rt": 735,
        "correct": true,
        "response": "ArrowLeft",
        "congruent": true,
        "gazeTowards": false,
        "gazeCondition": "away",
        "faceOnLeft": false,
        "impliedDirection": 180,
        "testDirection": 180,
        "avgFps": 61,
        "minFps": 58,
        "maxFps": 2381,
        "totalFrames": 45,
        "frameRates": 61
      },
      {
        "trial_number": 11,
        "trial_index": 148,
        "rt": 1301,
        "correct": false,
        "response": "ArrowRight",
        "congruent": false,
        "gazeTowards": true,
        "gazeCondition": "towards",
        "faceOnLeft": true,
        "impliedDirection": 0,
        "testDirection": 180,
        "avgFps": 61,
        "minFps": 58,
        "maxFps": 5000,
        "totalFrames": 79,
        "frameRates": 61
      },
      {
        "trial_number": 12,
        "trial_index": 153,
        "rt": 1273,
        "correct": false,
        "response": "ArrowRight",
        "congruent": false,
        "gazeTowards": true,
        "gazeCondition": "towards",
        "faceOnLeft": true,
        "impliedDirection": 0,
        "testDirection": 180,
        "avgFps": 61,
        "minFps": 58,
        "maxFps": 3333,
        "totalFrames": 77,
        "frameRates": 61
      },
      {
        "trial_number": 13,
        "trial_index": 158,
        "rt": 1041,
        "correct": false,
        "response": "ArrowLeft",
        "congruent": false,
        "gazeTowards": false,
        "gazeCondition": "away",
        "faceOnLeft": false,
        "impliedDirection": 180,
        "testDirection": 0,
        "avgFps": 61,
        "minFps": 58,
        "maxFps": 2778,
        "totalFrames": 63,
        "frameRates": 61
      },
      {
        "trial_number": 14,
        "trial_index": 163,
        "rt": 917,
        "correct": true,
        "response": "ArrowRight",
        "congruent": true,
        "gazeTowards": false,
        "gazeCondition": "away",
        "faceOnLeft": true,
        "impliedDirection": 0,
        "testDirection": 0,
        "avgFps": 60,
        "minFps": 58,
        "maxFps": 72,
        "totalFrames": 55,
        "frameRates": 60
      },
      {
        "trial_number": 15,
        "trial_index": 168,
        "rt": 918,
        "correct": true,
        "response": "ArrowRight",
        "congruent": false,
        "gazeTowards": false,
        "gazeCondition": "away",
        "faceOnLeft": false,
        "impliedDirection": 180,
        "testDirection": 0,
        "avgFps": 60,
        "minFps": 58,
        "maxFps": 69,
        "totalFrames": 55,
        "frameRates": 60
      },
      {
        "trial_number": 16,
        "trial_index": 173,
        "rt": 1352,
        "correct": true,
        "response": "ArrowRight",
        "congruent": false,
        "gazeTowards": false,
        "gazeCondition": "away",
        "faceOnLeft": false,
        "impliedDirection": 180,
        "testDirection": 0,
        "avgFps": 60,
        "minFps": 58,
        "maxFps": 66,
        "totalFrames": 81,
        "frameRates": 60
      },
      {
        "trial_number": 17,
        "trial_index": 178,
        "rt": 828,
        "correct": true,
        "response": "ArrowLeft",
        "congruent": true,
        "gazeTowards": false,
        "gazeCondition": "away",
        "faceOnLeft": false,
        "impliedDirection": 180,
        "testDirection": 180,
        "avgFps": 60,
        "minFps": 58,
        "maxFps": 69,
        "totalFrames": 49,
        "frameRates": 60
      },
      {
        "trial_number": 18,
        "trial_index": 183,
        "rt": 1158,
        "correct": true,
        "response": "ArrowLeft",
        "congruent": true,
        "gazeTowards": false,
        "gazeCondition": "away",
        "faceOnLeft": false,
        "impliedDirection": 180,
        "testDirection": 180,
        "avgFps": 61,
        "minFps": 58,
        "maxFps": 12500,
        "totalFrames": 70,
        "frameRates": 61
      },
      {
        "trial_number": 19,
        "trial_index": 188,
        "rt": 780,
        "correct": true,
        "response": "ArrowRight",
        "congruent": true,
        "gazeTowards": false,
        "gazeCondition": "away",
        "faceOnLeft": true,
        "impliedDirection": 0,
        "testDirection": 0,
        "avgFps": 61,
        "minFps": 58,
        "maxFps": 410,
        "totalFrames": 47,
        "frameRates": 61
      },
      {
        "trial_number": 20,
        "trial_index": 193,
        "rt": 940,
        "correct": true,
        "response": "ArrowRight",
        "congruent": false,
        "gazeTowards": true,
        "gazeCondition": "towards",
        "faceOnLeft": false,
        "impliedDirection": 180,
        "testDirection": 0,
        "avgFps": 61,
        "minFps": 58,
        "maxFps": 3333,
        "totalFrames": 57,
        "frameRates": 61
      },
      {
        "trial_number": 21,
        "trial_index": 198,
        "rt": 885,
        "correct": true,
        "response": "ArrowRight",
        "congruent": false,
        "gazeTowards": false,
        "gazeCondition": "away",
        "faceOnLeft": false,
        "impliedDirection": 180,
        "testDirection": 0,
        "avgFps": 61,
        "minFps": 58,
        "maxFps": 2632,
        "totalFrames": 54,
        "frameRates": 61
      },
      {
        "trial_number": 22,
        "trial_index": 203,
        "rt": 911,
        "correct": true,
        "response": "ArrowRight",
        "congruent": false,
        "gazeTowards": true,
        "gazeCondition": "towards",
        "faceOnLeft": false,
        "impliedDirection": 180,
        "testDirection": 0,
        "avgFps": 61,
        "minFps": 58,
        "maxFps": 543,
        "totalFrames": 55,
        "frameRates": 61
      },
      {
        "trial_number": 23,
        "trial_index": 208,
        "rt": 740,
        "correct": true,
        "response": "ArrowLeft",
        "congruent": false,
        "gazeTowards": true,
        "gazeCondition": "towards",
        "faceOnLeft": true,
        "impliedDirection": 0,
        "testDirection": 180,
        "avgFps": 60,
        "minFps": 58,
        "maxFps": 67,
        "totalFrames": 44,
        "frameRates": 60
      },
      {
        "trial_number": 24,
        "trial_index": 213,
        "rt": 1268,
        "correct": true,
        "response": "ArrowLeft",
        "congruent": true,
        "gazeTowards": true,
        "gazeCondition": "towards",
        "faceOnLeft": false,
        "impliedDirection": 180,
        "testDirection": 180,
        "avgFps": 61,
        "minFps": 58,
        "maxFps": 1923,
        "totalFrames": 77,
        "frameRates": 61
      },
      {
        "trial_number": 25,
        "trial_index": 218,
        "rt": 870,
        "correct": true,
        "response": "ArrowRight",
        "congruent": true,
        "gazeTowards": true,
        "gazeCondition": "towards",
        "faceOnLeft": true,
        "impliedDirection": 0,
        "testDirection": 0,
        "avgFps": 61,
        "minFps": 58,
        "maxFps": 633,
        "totalFrames": 53,
        "frameRates": 61
      },
      {
        "trial_number": 26,
        "trial_index": 226,
        "rt": 903,
        "correct": false,
        "response": "ArrowRight",
        "congruent": false,
        "gazeTowards": false,
        "gazeCondition": "away",
        "faceOnLeft": true,
        "impliedDirection": 0,
        "testDirection": 180,
        "avgFps": 61,
        "minFps": 58,
        "maxFps": 2381,
        "totalFrames": 55,
        "frameRates": 61
      },
      {
        "trial_number": 27,
        "trial_index": 231,
        "rt": 821,
        "correct": true,
        "response": "ArrowRight",
        "congruent": true,
        "gazeTowards": false,
        "gazeCondition": "away",
        "faceOnLeft": true,
        "impliedDirection": 0,
        "testDirection": 0,
        "avgFps": 61,
        "minFps": 58,
        "maxFps": 1786,
        "totalFrames": 50,
        "frameRates": 61
      },
      {
        "trial_number": 28,
        "trial_index": 236,
        "rt": 1427,
        "correct": true,
        "response": "ArrowLeft",
        "congruent": true,
        "gazeTowards": false,
        "gazeCondition": "away",
        "faceOnLeft": false,
        "impliedDirection": 180,
        "testDirection": 180,
        "avgFps": 61,
        "minFps": 58,
        "maxFps": 1250,
        "totalFrames": 86,
        "frameRates": 61
      },
      {
        "trial_number": 29,
        "trial_index": 241,
        "rt": 850,
        "correct": true,
        "response": "ArrowRight",
        "congruent": false,
        "gazeTowards": false,
        "gazeCondition": "away",
        "faceOnLeft": false,
        "impliedDirection": 180,
        "testDirection": 0,
        "avgFps": 60,
        "minFps": 58,
        "maxFps": 68,
        "totalFrames": 51,
        "frameRates": 60
      },
      {
        "trial_number": 30,
        "trial_index": 246,
        "rt": 1133,
        "correct": false,
        "response": "ArrowLeft",
        "congruent": false,
        "gazeTowards": false,
        "gazeCondition": "away",
        "faceOnLeft": false,
        "impliedDirection": 180,
        "testDirection": 0,
        "avgFps": 60,
        "minFps": 58,
        "maxFps": 65,
        "totalFrames": 68,
        "frameRates": 60
      },
      {
        "trial_number": 31,
        "trial_index": 252,
        "rt": 989,
        "correct": true,
        "response": "ArrowLeft",
        "congruent": true,
        "gazeTowards": true,
        "gazeCondition": "towards",
        "faceOnLeft": false,
        "impliedDirection": 180,
        "testDirection": 180,
        "avgFps": 61,
        "minFps": 58,
        "maxFps": 2381,
        "totalFrames": 60,
        "frameRates": 61
      },
      {
        "trial_number": 32,
        "trial_index": 257,
        "rt": 762,
        "correct": true,
        "response": "ArrowRight",
        "congruent": false,
        "gazeTowards": false,
        "gazeCondition": "away",
        "faceOnLeft": false,
        "impliedDirection": 180,
        "testDirection": 0,
        "avgFps": 61,
        "minFps": 58,
        "maxFps": 2000,
        "totalFrames": 46,
        "frameRates": 61
      },
      {
        "trial_number": 33,
        "trial_index": 262,
        "rt": 899,
        "correct": true,
        "response": "ArrowLeft",
        "congruent": true,
        "gazeTowards": true,
        "gazeCondition": "towards",
        "faceOnLeft": false,
        "impliedDirection": 180,
        "testDirection": 180,
        "avgFps": 61,
        "minFps": 58,
        "maxFps": 2381,
        "totalFrames": 55,
        "frameRates": 61
      },
      {
        "trial_number": 34,
        "trial_index": 267,
        "rt": 944,
        "correct": true,
        "response": "ArrowRight",
        "congruent": true,
        "gazeTowards": false,
        "gazeCondition": "away",
        "faceOnLeft": true,
        "impliedDirection": 0,
        "testDirection": 0,
        "avgFps": 61,
        "minFps": 58,
        "maxFps": 2381,
        "totalFrames": 57,
        "frameRates": 61
      },
      {
        "trial_number": 35,
        "trial_index": 272,
        "rt": 910,
        "correct": true,
        "response": "ArrowRight",
        "congruent": true,
        "gazeTowards": true,
        "gazeCondition": "towards",
        "faceOnLeft": true,
        "impliedDirection": 0,
        "testDirection": 0,
        "avgFps": 61,
        "minFps": 58,
        "maxFps": 4545,
        "totalFrames": 55,
        "frameRates": 61
      },
      {
        "trial_number": 36,
        "trial_index": 277,
        "rt": 660,
        "correct": true,
        "response": "ArrowLeft",
        "congruent": true,
        "gazeTowards": true,
        "gazeCondition": "towards",
        "faceOnLeft": false,
        "impliedDirection": 180,
        "testDirection": 180,
        "avgFps": 60,
        "minFps": 58,
        "maxFps": 71,
        "totalFrames": 39,
        "frameRates": 60
      },
      {
        "trial_number": 37,
        "trial_index": 282,
        "rt": 931,
        "correct": true,
        "response": "ArrowRight",
        "congruent": true,
        "gazeTowards": false,
        "gazeCondition": "away",
        "faceOnLeft": true,
        "impliedDirection": 0,
        "testDirection": 0,
        "avgFps": 60,
        "minFps": 58,
        "maxFps": 76,
        "totalFrames": 56,
        "frameRates": 60
      },
      {
        "trial_number": 38,
        "trial_index": 290,
        "rt": 1120,
        "correct": true,
        "response": "ArrowRight",
        "congruent": true,
        "gazeTowards": false,
        "gazeCondition": "away",
        "faceOnLeft": true,
        "impliedDirection": 0,
        "testDirection": 0,
        "avgFps": 61,
        "minFps": 58,
        "maxFps": 2632,
        "totalFrames": 68,
        "frameRates": 61
      },
      {
        "trial_number": 39,
        "trial_index": 298,
        "rt": 663,
        "correct": true,
        "response": "ArrowLeft",
        "congruent": false,
        "gazeTowards": true,
        "gazeCondition": "towards",
        "faceOnLeft": true,
        "impliedDirection": 0,
        "testDirection": 180,
        "avgFps": 60,
        "minFps": 58,
        "maxFps": 67,
        "totalFrames": 39,
        "frameRates": 60
      },
      {
        "trial_number": 40,
        "trial_index": 303,
        "rt": 696,
        "correct": true,
        "response": "ArrowRight",
        "congruent": true,
        "gazeTowards": true,
        "gazeCondition": "towards",
        "faceOnLeft": true,
        "impliedDirection": 0,
        "testDirection": 0,
        "avgFps": 61,
        "minFps": 58,
        "maxFps": 98,
        "totalFrames": 42,
        "frameRates": 61
      },
      {
        "trial_number": 41,
        "trial_index": 308,
        "rt": 950,
        "correct": false,
        "response": "ArrowLeft",
        "congruent": false,
        "gazeTowards": false,
        "gazeCondition": "away",
        "faceOnLeft": false,
        "impliedDirection": 180,
        "testDirection": 0,
        "avgFps": 60,
        "minFps": 58,
        "maxFps": 76,
        "totalFrames": 57,
        "frameRates": 60
      },
      {
        "trial_number": 42,
        "trial_index": 313,
        "rt": 1257,
        "correct": false,
        "response": "ArrowRight",
        "congruent": false,
        "gazeTowards": true,
        "gazeCondition": "towards",
        "faceOnLeft": true,
        "impliedDirection": 0,
        "testDirection": 180,
        "avgFps": 60,
        "minFps": 58,
        "maxFps": 68,
        "totalFrames": 75,
        "frameRates": 60
      },
      {
        "trial_number": 43,
        "trial_index": 318,
        "rt": 1065,
        "correct": true,
        "response": "ArrowLeft",
        "congruent": false,
        "gazeTowards": false,
        "gazeCondition": "away",
        "faceOnLeft": true,
        "impliedDirection": 0,
        "testDirection": 180,
        "avgFps": 60,
        "minFps": 58,
        "maxFps": 81,
        "totalFrames": 64,
        "frameRates": 60
      },
      {
        "trial_number": 44,
        "trial_index": 323,
        "rt": 847,
        "correct": true,
        "response": "ArrowRight",
        "congruent": true,
        "gazeTowards": true,
        "gazeCondition": "towards",
        "faceOnLeft": true,
        "impliedDirection": 0,
        "testDirection": 0,
        "avgFps": 61,
        "minFps": 58,
        "maxFps": 4545,
        "totalFrames": 51,
        "frameRates": 61
      },
      {
        "trial_number": 45,
        "trial_index": 328,
        "rt": 871,
        "correct": false,
        "response": "ArrowRight",
        "congruent": false,
        "gazeTowards": true,
        "gazeCondition": "towards",
        "faceOnLeft": true,
        "impliedDirection": 0,
        "testDirection": 180,
        "avgFps": 61,
        "minFps": 58,
        "maxFps": 3571,
        "totalFrames": 53,
        "frameRates": 61
      },
      {
        "trial_number": 46,
        "trial_index": 333,
        "rt": 966,
        "correct": true,
        "response": "ArrowLeft",
        "congruent": false,
        "gazeTowards": true,
        "gazeCondition": "towards",
        "faceOnLeft": true,
        "impliedDirection": 0,
        "testDirection": 180,
        "avgFps": 61,
        "minFps": 58,
        "maxFps": 2381,
        "totalFrames": 59,
        "frameRates": 61
      },
      {
        "trial_number": 47,
        "trial_index": 338,
        "rt": 1077,
        "correct": false,
        "response": "ArrowRight",
        "congruent": true,
        "gazeTowards": true,
        "gazeCondition": "towards",
        "faceOnLeft": false,
        "impliedDirection": 180,
        "testDirection": 180,
        "avgFps": 61,
        "minFps": 58,
        "maxFps": 2778,
        "totalFrames": 65,
        "frameRates": 61
      },
      {
        "trial_number": 48,
        "trial_index": 343,
        "rt": 1441,
        "correct": false,
        "response": "ArrowLeft",
        "congruent": false,
        "gazeTowards": true,
        "gazeCondition": "towards",
        "faceOnLeft": false,
        "impliedDirection": 180,
        "testDirection": 0,
        "avgFps": 60,
        "minFps": 58,
        "maxFps": 166,
        "totalFrames": 87,
        "frameRates": 60
      },
      {
        "trial_number": 49,
        "trial_index": 348,
        "rt": 1253,
        "correct": true,
        "response": "ArrowRight",
        "congruent": false,
        "gazeTowards": false,
        "gazeCondition": "away",
        "faceOnLeft": false,
        "impliedDirection": 180,
        "testDirection": 0,
        "avgFps": 61,
        "minFps": 58,
        "maxFps": 455,
        "totalFrames": 76,
        "frameRates": 61
      },
      {
        "trial_number": 50,
        "trial_index": 353,
        "rt": 959,
        "correct": true,
        "response": "ArrowRight",
        "congruent": true,
        "gazeTowards": false,
        "gazeCondition": "away",
        "faceOnLeft": true,
        "impliedDirection": 0,
        "testDirection": 0,
        "avgFps": 60,
        "minFps": 58,
        "maxFps": 62,
        "totalFrames": 57,
        "frameRates": 60
      },
      {
        "trial_number": 51,
        "trial_index": 358,
        "rt": 1094,
        "correct": false,
        "response": "ArrowLeft",
        "congruent": false,
        "gazeTowards": false,
        "gazeCondition": "away",
        "faceOnLeft": false,
        "impliedDirection": 180,
        "testDirection": 0,
        "avgFps": 61,
        "minFps": 58,
        "maxFps": 3846,
        "totalFrames": 66,
        "frameRates": 61
      },
      {
        "trial_number": 52,
        "trial_index": 363,
        "rt": 1038,
        "correct": true,
        "response": "ArrowLeft",
        "congruent": true,
        "gazeTowards": true,
        "gazeCondition": "towards",
        "faceOnLeft": false,
        "impliedDirection": 180,
        "testDirection": 180,
        "avgFps": 61,
        "minFps": 58,
        "maxFps": 2500,
        "totalFrames": 63,
        "frameRates": 61
      },
      {
        "trial_number": 53,
        "trial_index": 368,
        "rt": 779,
        "correct": true,
        "response": "ArrowRight",
        "congruent": false,
        "gazeTowards": false,
        "gazeCondition": "away",
        "faceOnLeft": false,
        "impliedDirection": 180,
        "testDirection": 0,
        "avgFps": 61,
        "minFps": 58,
        "maxFps": 2083,
        "totalFrames": 47,
        "frameRates": 61
      },
      {
        "trial_number": 54,
        "trial_index": 376,
        "rt": 1094,
        "correct": true,
        "response": "ArrowLeft",
        "congruent": false,
        "gazeTowards": true,
        "gazeCondition": "towards",
        "faceOnLeft": true,
        "impliedDirection": 0,
        "testDirection": 180,
        "avgFps": 60,
        "minFps": 58,
        "maxFps": 101,
        "totalFrames": 66,
        "frameRates": 60
      },
      {
        "trial_number": 55,
        "trial_index": 381,
        "rt": 851,
        "correct": false,
        "response": "ArrowRight",
        "congruent": false,
        "gazeTowards": true,
        "gazeCondition": "towards",
        "faceOnLeft": true,
        "impliedDirection": 0,
        "testDirection": 180,
        "avgFps": 61,
        "minFps": 58,
        "maxFps": 694,
        "totalFrames": 51,
        "frameRates": 61
      },
      {
        "trial_number": 56,
        "trial_index": 386,
        "rt": 1447,
        "correct": true,
        "response": "ArrowRight",
        "congruent": true,
        "gazeTowards": true,
        "gazeCondition": "towards",
        "faceOnLeft": true,
        "impliedDirection": 0,
        "testDirection": 0,
        "avgFps": 61,
        "minFps": 58,
        "maxFps": 2941,
        "totalFrames": 87,
        "frameRates": 61
      },
      {
        "trial_number": 57,
        "trial_index": 391,
        "rt": 808,
        "correct": false,
        "response": "ArrowRight",
        "congruent": false,
        "gazeTowards": true,
        "gazeCondition": "towards",
        "faceOnLeft": true,
        "impliedDirection": 0,
        "testDirection": 180,
        "avgFps": 61,
        "minFps": 58,
        "maxFps": 3333,
        "totalFrames": 49,
        "frameRates": 61
      },
      {
        "trial_number": 58,
        "trial_index": 396,
        "rt": 1143,
        "correct": true,
        "response": "ArrowLeft",
        "congruent": false,
        "gazeTowards": false,
        "gazeCondition": "away",
        "faceOnLeft": true,
        "impliedDirection": 0,
        "testDirection": 180,
        "avgFps": 60,
        "minFps": 58,
        "maxFps": 73,
        "totalFrames": 68,
        "frameRates": 60
      },
      {
        "trial_number": 59,
        "trial_index": 401,
        "rt": 821,
        "correct": true,
        "response": "ArrowRight",
        "congruent": true,
        "gazeTowards": false,
        "gazeCondition": "away",
        "faceOnLeft": true,
        "impliedDirection": 0,
        "testDirection": 0,
        "avgFps": 60,
        "minFps": 58,
        "maxFps": 77,
        "totalFrames": 49,
        "frameRates": 60
      },
      {
        "trial_number": 60,
        "trial_index": 406,
        "rt": 1031,
        "correct": true,
        "response": "ArrowLeft",
        "congruent": false,
        "gazeTowards": false,
        "gazeCondition": "away",
        "faceOnLeft": true,
        "impliedDirection": 0,
        "testDirection": 180,
        "avgFps": 61,
        "minFps": 58,
        "maxFps": 2941,
        "totalFrames": 62,
        "frameRates": 61
      },
      {
        "trial_number": 61,
        "trial_index": 412,
        "rt": 1121,
        "correct": false,
        "response": "ArrowLeft",
        "congruent": true,
        "gazeTowards": false,
        "gazeCondition": "away",
        "faceOnLeft": true,
        "impliedDirection": 0,
        "testDirection": 0,
        "avgFps": 61,
        "minFps": 58,
        "maxFps": 2941,
        "totalFrames": 68,
        "frameRates": 61
      },
      {
        "trial_number": 62,
        "trial_index": 417,
        "rt": 1347,
        "correct": false,
        "response": "ArrowRight",
        "congruent": true,
        "gazeTowards": true,
        "gazeCondition": "towards",
        "faceOnLeft": false,
        "impliedDirection": 180,
        "testDirection": 180,
        "avgFps": 61,
        "minFps": 58,
        "maxFps": 192,
        "totalFrames": 81,
        "frameRates": 61
      },
      {
        "trial_number": 63,
        "trial_index": 422,
        "rt": 1129,
        "correct": false,
        "response": "ArrowRight",
        "congruent": false,
        "gazeTowards": false,
        "gazeCondition": "away",
        "faceOnLeft": true,
        "impliedDirection": 0,
        "testDirection": 180,
        "avgFps": 61,
        "minFps": 58,
        "maxFps": 3571,
        "totalFrames": 68,
        "frameRates": 61
      },
      {
        "trial_number": 64,
        "trial_index": 433,
        "rt": 706,
        "correct": false,
        "response": "ArrowRight",
        "congruent": true,
        "gazeTowards": true,
        "gazeCondition": "towards",
        "faceOnLeft": false,
        "impliedDirection": 180,
        "testDirection": 180,
        "avgFps": 61,
        "minFps": 58,
        "maxFps": 224,
        "totalFrames": 43,
        "frameRates": 61
      },
      {
        "trial_number": 65,
        "trial_index": 438,
        "rt": 779,
        "correct": false,
        "response": "ArrowLeft",
        "congruent": false,
        "gazeTowards": true,
        "gazeCondition": "towards",
        "faceOnLeft": false,
        "impliedDirection": 180,
        "testDirection": 0,
        "avgFps": 61,
        "minFps": 58,
        "maxFps": 125,
        "totalFrames": 47,
        "frameRates": 61
      },
      {
        "trial_number": 66,
        "trial_index": 443,
        "rt": 980,
        "correct": false,
        "response": "ArrowLeft",
        "congruent": false,
        "gazeTowards": false,
        "gazeCondition": "away",
        "faceOnLeft": false,
        "impliedDirection": 180,
        "testDirection": 0,
        "avgFps": 61,
        "minFps": 58,
        "maxFps": 1429,
        "totalFrames": 59,
        "frameRates": 61
      },
      {
        "trial_number": 67,
        "trial_index": 448,
        "rt": 732,
        "correct": true,
        "response": "ArrowRight",
        "congruent": true,
        "gazeTowards": true,
        "gazeCondition": "towards",
        "faceOnLeft": true,
        "impliedDirection": 0,
        "testDirection": 0,
        "avgFps": 61,
        "minFps": 58,
        "maxFps": 2941,
        "totalFrames": 44,
        "frameRates": 61
      },
      {
        "trial_number": 68,
        "trial_index": 453,
        "rt": 1034,
        "correct": true,
        "response": "ArrowLeft",
        "congruent": true,
        "gazeTowards": true,
        "gazeCondition": "towards",
        "faceOnLeft": false,
        "impliedDirection": 180,
        "testDirection": 180,
        "avgFps": 61,
        "minFps": 58,
        "maxFps": 2273,
        "totalFrames": 63,
        "frameRates": 61
      },
      {
        "trial_number": 69,
        "trial_index": 458,
        "rt": 905,
        "correct": true,
        "response": "ArrowRight",
        "congruent": true,
        "gazeTowards": true,
        "gazeCondition": "towards",
        "faceOnLeft": true,
        "impliedDirection": 0,
        "testDirection": 0,
        "avgFps": 61,
        "minFps": 58,
        "maxFps": 3125,
        "totalFrames": 55,
        "frameRates": 61
      },
      {
        "trial_number": 70,
        "trial_index": 466,
        "rt": 826,
        "correct": true,
        "response": "ArrowRight",
        "congruent": true,
        "gazeTowards": false,
        "gazeCondition": "away",
        "faceOnLeft": true,
        "impliedDirection": 0,
        "testDirection": 0,
        "avgFps": 61,
        "minFps": 58,
        "maxFps": 2174,
        "totalFrames": 50,
        "frameRates": 61
      },
      {
        "trial_number": 71,
        "trial_index": 471,
        "rt": 1392,
        "correct": true,
        "response": "ArrowLeft",
        "congruent": true,
        "gazeTowards": false,
        "gazeCondition": "away",
        "faceOnLeft": false,
        "impliedDirection": 180,
        "testDirection": 180,
        "avgFps": 61,
        "minFps": 58,
        "maxFps": 2273,
        "totalFrames": 84,
        "frameRates": 61
      },
      {
        "trial_number": 72,
        "trial_index": 476,
        "rt": 833,
        "correct": true,
        "response": "ArrowRight",
        "congruent": true,
        "gazeTowards": true,
        "gazeCondition": "towards",
        "faceOnLeft": true,
        "impliedDirection": 0,
        "testDirection": 0,
        "avgFps": 61,
        "minFps": 58,
        "maxFps": 3333,
        "totalFrames": 51,
        "frameRates": 61
      },
      {
        "trial_number": 73,
        "trial_index": 481,
        "rt": 875,
        "correct": true,
        "response": "ArrowLeft",
        "congruent": false,
        "gazeTowards": true,
        "gazeCondition": "towards",
        "faceOnLeft": true,
        "impliedDirection": 0,
        "testDirection": 180,
        "avgFps": 61,
        "minFps": 58,
        "maxFps": 2174,
        "totalFrames": 53,
        "frameRates": 61
      },
      {
        "trial_number": 74,
        "trial_index": 486,
        "rt": 1318,
        "correct": false,
        "response": "ArrowRight",
        "congruent": false,
        "gazeTowards": false,
        "gazeCondition": "away",
        "faceOnLeft": true,
        "impliedDirection": 0,
        "testDirection": 180,
        "avgFps": 61,
        "minFps": 58,
        "maxFps": 2273,
        "totalFrames": 80,
        "frameRates": 61
      },
      {
        "trial_number": 75,
        "trial_index": 494,
        "rt": 858,
        "correct": false,
        "response": "ArrowRight",
        "congruent": false,
        "gazeTowards": false,
        "gazeCondition": "away",
        "faceOnLeft": true,
        "impliedDirection": 0,
        "testDirection": 180,
        "avgFps": 61,
        "minFps": 58,
        "maxFps": 143,
        "totalFrames": 52,
        "frameRates": 61
      },
      {
        "trial_number": 76,
        "trial_index": 499,
        "rt": 1107,
        "correct": true,
        "response": "ArrowRight",
        "congruent": true,
        "gazeTowards": true,
        "gazeCondition": "towards",
        "faceOnLeft": true,
        "impliedDirection": 0,
        "testDirection": 0,
        "avgFps": 61,
        "minFps": 58,
        "maxFps": 2941,
        "totalFrames": 67,
        "frameRates": 61
      },
      {
        "trial_number": 77,
        "trial_index": 504,
        "rt": 912,
        "correct": true,
        "response": "ArrowLeft",
        "congruent": false,
        "gazeTowards": true,
        "gazeCondition": "towards",
        "faceOnLeft": true,
        "impliedDirection": 0,
        "testDirection": 180,
        "avgFps": 61,
        "minFps": 58,
        "maxFps": 2083,
        "totalFrames": 55,
        "frameRates": 61
      },
      {
        "trial_number": 78,
        "trial_index": 509,
        "rt": 695,
        "correct": true,
        "response": "ArrowRight",
        "congruent": false,
        "gazeTowards": true,
        "gazeCondition": "towards",
        "faceOnLeft": false,
        "impliedDirection": 180,
        "testDirection": 0,
        "avgFps": 61,
        "minFps": 58,
        "maxFps": 107,
        "totalFrames": 42,
        "frameRates": 61
      },
      {
        "trial_number": 79,
        "trial_index": 514,
        "rt": 1188,
        "correct": true,
        "response": "ArrowRight",
        "congruent": true,
        "gazeTowards": true,
        "gazeCondition": "towards",
        "faceOnLeft": true,
        "impliedDirection": 0,
        "testDirection": 0,
        "avgFps": 60,
        "minFps": 58,
        "maxFps": 119,
        "totalFrames": 71,
        "frameRates": 60
      },
      {
        "trial_number": 80,
        "trial_index": 519,
        "rt": 999,
        "correct": false,
        "response": "ArrowLeft",
        "congruent": true,
        "gazeTowards": true,
        "gazeCondition": "towards",
        "faceOnLeft": true,
        "impliedDirection": 0,
        "testDirection": 0,
        "avgFps": 61,
        "minFps": 58,
        "maxFps": 1064,
        "totalFrames": 60,
        "frameRates": 61
      },
      {
        "trial_number": 81,
        "trial_index": 524,
        "rt": 1083,
        "correct": false,
        "response": "ArrowRight",
        "congruent": false,
        "gazeTowards": true,
        "gazeCondition": "towards",
        "faceOnLeft": true,
        "impliedDirection": 0,
        "testDirection": 180,
        "avgFps": 61,
        "minFps": 58,
        "maxFps": 284,
        "totalFrames": 65,
        "frameRates": 61
      },
      {
        "trial_number": 82,
        "trial_index": 529,
        "rt": 876,
        "correct": true,
        "response": "ArrowRight",
        "congruent": false,
        "gazeTowards": false,
        "gazeCondition": "away",
        "faceOnLeft": false,
        "impliedDirection": 180,
        "testDirection": 0,
        "avgFps": 61,
        "minFps": 58,
        "maxFps": 3125,
        "totalFrames": 53,
        "frameRates": 61
      },
      {
        "trial_number": 83,
        "trial_index": 534,
        "rt": 1068,
        "correct": true,
        "response": "ArrowRight",
        "congruent": true,
        "gazeTowards": false,
        "gazeCondition": "away",
        "faceOnLeft": true,
        "impliedDirection": 0,
        "testDirection": 0,
        "avgFps": 61,
        "minFps": 58,
        "maxFps": 3571,
        "totalFrames": 65,
        "frameRates": 61
      },
      {
        "trial_number": 84,
        "trial_index": 539,
        "rt": 1167,
        "correct": true,
        "response": "ArrowRight",
        "congruent": true,
        "gazeTowards": false,
        "gazeCondition": "away",
        "faceOnLeft": true,
        "impliedDirection": 0,
        "testDirection": 0,
        "avgFps": 61,
        "minFps": 58,
        "maxFps": 3125,
        "totalFrames": 71,
        "frameRates": 61
      },
      {
        "trial_number": 85,
        "trial_index": 544,
        "rt": 1383,
        "correct": false,
        "response": "ArrowLeft",
        "congruent": true,
        "gazeTowards": false,
        "gazeCondition": "away",
        "faceOnLeft": true,
        "impliedDirection": 0,
        "testDirection": 0,
        "avgFps": 60,
        "minFps": 58,
        "maxFps": 73,
        "totalFrames": 83,
        "frameRates": 60
      },
      {
        "trial_number": 86,
        "trial_index": 552,
        "rt": 1023,
        "correct": false,
        "response": "ArrowRight",
        "congruent": false,
        "gazeTowards": true,
        "gazeCondition": "towards",
        "faceOnLeft": true,
        "impliedDirection": 0,
        "testDirection": 180,
        "avgFps": 60,
        "minFps": 58,
        "maxFps": 72,
        "totalFrames": 61,
        "frameRates": 60
      },
      {
        "trial_number": 87,
        "trial_index": 557,
        "rt": 909,
        "correct": false,
        "response": "ArrowRight",
        "congruent": false,
        "gazeTowards": false,
        "gazeCondition": "away",
        "faceOnLeft": true,
        "impliedDirection": 0,
        "testDirection": 180,
        "avgFps": 60,
        "minFps": 58,
        "maxFps": 68,
        "totalFrames": 54,
        "frameRates": 60
      },
      {
        "trial_number": 88,
        "trial_index": 562,
        "rt": 802,
        "correct": true,
        "response": "ArrowRight",
        "congruent": false,
        "gazeTowards": true,
        "gazeCondition": "towards",
        "faceOnLeft": false,
        "impliedDirection": 180,
        "testDirection": 0,
        "avgFps": 61,
        "minFps": 58,
        "maxFps": 123,
        "totalFrames": 48,
        "frameRates": 61
      },
      {
        "trial_number": 89,
        "trial_index": 568,
        "rt": 944,
        "correct": true,
        "response": "ArrowRight",
        "congruent": false,
        "gazeTowards": true,
        "gazeCondition": "towards",
        "faceOnLeft": false,
        "impliedDirection": 180,
        "testDirection": 0,
        "avgFps": 60,
        "minFps": 58,
        "maxFps": 86,
        "totalFrames": 56,
        "frameRates": 60
      },
      {
        "trial_number": 90,
        "trial_index": 573,
        "rt": 883,
        "correct": true,
        "response": "ArrowRight",
        "congruent": true,
        "gazeTowards": false,
        "gazeCondition": "away",
        "faceOnLeft": true,
        "impliedDirection": 0,
        "testDirection": 0,
        "avgFps": 61,
        "minFps": 58,
        "maxFps": 135,
        "totalFrames": 53,
        "frameRates": 61
      },
      {
        "trial_number": 91,
        "trial_index": 578,
        "rt": 1195,
        "correct": false,
        "response": "ArrowLeft",
        "congruent": false,
        "gazeTowards": true,
        "gazeCondition": "towards",
        "faceOnLeft": false,
        "impliedDirection": 180,
        "testDirection": 0,
        "avgFps": 61,
        "minFps": 58,
        "maxFps": 2778,
        "totalFrames": 72,
        "frameRates": 61
      },
      {
        "trial_number": 92,
        "trial_index": 583,
        "rt": 832,
        "correct": false,
        "response": "ArrowRight",
        "congruent": true,
        "gazeTowards": true,
        "gazeCondition": "towards",
        "faceOnLeft": false,
        "impliedDirection": 180,
        "testDirection": 180,
        "avgFps": 61,
        "minFps": 58,
        "maxFps": 2941,
        "totalFrames": 51,
        "frameRates": 61
      },
      {
        "trial_number": 93,
        "trial_index": 588,
        "rt": 988,
        "correct": false,
        "response": "ArrowRight",
        "congruent": false,
        "gazeTowards": false,
        "gazeCondition": "away",
        "faceOnLeft": true,
        "impliedDirection": 0,
        "testDirection": 180,
        "avgFps": 61,
        "minFps": 58,
        "maxFps": 187,
        "totalFrames": 60,
        "frameRates": 61
      },
      {
        "trial_number": 94,
        "trial_index": 593,
        "rt": 1255,
        "correct": false,
        "response": "ArrowLeft",
        "congruent": false,
        "gazeTowards": false,
        "gazeCondition": "away",
        "faceOnLeft": false,
        "impliedDirection": 180,
        "testDirection": 0,
        "avgFps": 60,
        "minFps": 58,
        "maxFps": 74,
        "totalFrames": 75,
        "frameRates": 60
      },
      {
        "trial_number": 95,
        "trial_index": 598,
        "rt": 904,
        "correct": true,
        "response": "ArrowRight",
        "congruent": true,
        "gazeTowards": true,
        "gazeCondition": "towards",
        "faceOnLeft": true,
        "impliedDirection": 0,
        "testDirection": 0,
        "avgFps": 61,
        "minFps": 58,
        "maxFps": 158,
        "totalFrames": 54,
        "frameRates": 61
      },
      {
        "trial_number": 96,
        "trial_index": 603,
        "rt": 854,
        "correct": true,
        "response": "ArrowRight",
        "congruent": false,
        "gazeTowards": true,
        "gazeCondition": "towards",
        "faceOnLeft": false,
        "impliedDirection": 180,
        "testDirection": 0,
        "avgFps": 61,
        "minFps": 58,
        "maxFps": 174,
        "totalFrames": 51,
        "frameRates": 61
      },
      {
        "trial_number": 97,
        "trial_index": 608,
        "rt": 868,
        "correct": true,
        "response": "ArrowRight",
        "congruent": true,
        "gazeTowards": false,
        "gazeCondition": "away",
        "faceOnLeft": true,
        "impliedDirection": 0,
        "testDirection": 0,
        "avgFps": 60,
        "minFps": 58,
        "maxFps": 62,
        "totalFrames": 52,
        "frameRates": 60
      },
      {
        "trial_number": 98,
        "trial_index": 613,
        "rt": 904,
        "correct": true,
        "response": "ArrowRight",
        "congruent": false,
        "gazeTowards": true,
        "gazeCondition": "towards",
        "faceOnLeft": false,
        "impliedDirection": 180,
        "testDirection": 0,
        "avgFps": 60,
        "minFps": 58,
        "maxFps": 63,
        "totalFrames": 54,
        "frameRates": 60
      },
      {
        "trial_number": 99,
        "trial_index": 618,
        "rt": 1156,
        "correct": true,
        "response": "ArrowLeft",
        "congruent": false,
        "gazeTowards": false,
        "gazeCondition": "away",
        "faceOnLeft": true,
        "impliedDirection": 0,
        "testDirection": 180,
        "avgFps": 60,
        "minFps": 58,
        "maxFps": 90,
        "totalFrames": 69,
        "frameRates": 60
      },
      {
        "trial_number": 100,
        "trial_index": 623,
        "rt": 856,
        "correct": true,
        "response": "ArrowRight",
        "congruent": false,
        "gazeTowards": false,
        "gazeCondition": "away",
        "faceOnLeft": false,
        "impliedDirection": 180,
        "testDirection": 0,
        "avgFps": 61,
        "minFps": 58,
        "maxFps": 179,
        "totalFrames": 52,
        "frameRates": 61
      },
      {
        "trial_number": 101,
        "trial_index": 628,
        "rt": 991,
        "correct": false,
        "response": "ArrowRight",
        "congruent": false,
        "gazeTowards": true,
        "gazeCondition": "towards",
        "faceOnLeft": true,
        "impliedDirection": 0,
        "testDirection": 180,
        "avgFps": 60,
        "minFps": 58,
        "maxFps": 71,
        "totalFrames": 59,
        "frameRates": 60
      },
      {
        "trial_number": 102,
        "trial_index": 633,
        "rt": 866,
        "correct": true,
        "response": "ArrowRight",
        "congruent": true,
        "gazeTowards": false,
        "gazeCondition": "away",
        "faceOnLeft": true,
        "impliedDirection": 0,
        "testDirection": 0,
        "avgFps": 60,
        "minFps": 58,
        "maxFps": 66,
        "totalFrames": 52,
        "frameRates": 60
      },
      {
        "trial_number": 103,
        "trial_index": 638,
        "rt": 862,
        "correct": false,
        "response": "ArrowLeft",
        "congruent": false,
        "gazeTowards": true,
        "gazeCondition": "towards",
        "faceOnLeft": false,
        "impliedDirection": 180,
        "testDirection": 0,
        "avgFps": 60,
        "minFps": 58,
        "maxFps": 92,
        "totalFrames": 52,
        "frameRates": 60
      },
      {
        "trial_number": 104,
        "trial_index": 643,
        "rt": 1161,
        "correct": false,
        "response": "ArrowRight",
        "congruent": true,
        "gazeTowards": false,
        "gazeCondition": "away",
        "faceOnLeft": false,
        "impliedDirection": 180,
        "testDirection": 180,
        "avgFps": 60,
        "minFps": 58,
        "maxFps": 91,
        "totalFrames": 70,
        "frameRates": 60
      },
      {
        "trial_number": 105,
        "trial_index": 648,
        "rt": 1160,
        "correct": false,
        "response": "ArrowLeft",
        "congruent": false,
        "gazeTowards": false,
        "gazeCondition": "away",
        "faceOnLeft": false,
        "impliedDirection": 180,
        "testDirection": 0,
        "avgFps": 61,
        "minFps": 58,
        "maxFps": 2500,
        "totalFrames": 70,
        "frameRates": 61
      },
      {
        "trial_number": 106,
        "trial_index": 653,
        "rt": 960,
        "correct": true,
        "response": "ArrowRight",
        "congruent": true,
        "gazeTowards": false,
        "gazeCondition": "away",
        "faceOnLeft": true,
        "impliedDirection": 0,
        "testDirection": 0,
        "avgFps": 61,
        "minFps": 58,
        "maxFps": 2381,
        "totalFrames": 58,
        "frameRates": 61
      },
      {
        "trial_number": 107,
        "trial_index": 658,
        "rt": 1077,
        "correct": false,
        "response": "ArrowLeft",
        "congruent": false,
        "gazeTowards": false,
        "gazeCondition": "away",
        "faceOnLeft": false,
        "impliedDirection": 180,
        "testDirection": 0,
        "avgFps": 61,
        "minFps": 58,
        "maxFps": 3571,
        "totalFrames": 65,
        "frameRates": 61
      },
      {
        "trial_number": 108,
        "trial_index": 663,
        "rt": 838,
        "correct": true,
        "response": "ArrowRight",
        "congruent": true,
        "gazeTowards": false,
        "gazeCondition": "away",
        "faceOnLeft": true,
        "impliedDirection": 0,
        "testDirection": 0,
        "avgFps": 61,
        "minFps": 58,
        "maxFps": 1852,
        "totalFrames": 51,
        "frameRates": 61
      },
      {
        "trial_number": 109,
        "trial_index": 668,
        "rt": 959,
        "correct": true,
        "response": "ArrowLeft",
        "congruent": true,
        "gazeTowards": true,
        "gazeCondition": "towards",
        "faceOnLeft": false,
        "impliedDirection": 180,
        "testDirection": 180,
        "avgFps": 61,
        "minFps": 58,
        "maxFps": 120,
        "totalFrames": 58,
        "frameRates": 61
      },
      {
        "trial_number": 110,
        "trial_index": 676,
        "rt": 1173,
        "correct": true,
        "response": "ArrowLeft",
        "congruent": true,
        "gazeTowards": false,
        "gazeCondition": "away",
        "faceOnLeft": false,
        "impliedDirection": 180,
        "testDirection": 180,
        "avgFps": 60,
        "minFps": 58,
        "maxFps": 74,
        "totalFrames": 70,
        "frameRates": 60
      },
      {
        "trial_number": 111,
        "trial_index": 681,
        "rt": 802,
        "correct": true,
        "response": "ArrowRight",
        "congruent": true,
        "gazeTowards": false,
        "gazeCondition": "away",
        "faceOnLeft": true,
        "impliedDirection": 0,
        "testDirection": 0,
        "avgFps": 61,
        "minFps": 58,
        "maxFps": 137,
        "totalFrames": 48,
        "frameRates": 61
      },
      {
        "trial_number": 112,
        "trial_index": 686,
        "rt": 1133,
        "correct": true,
        "response": "ArrowRight",
        "congruent": false,
        "gazeTowards": false,
        "gazeCondition": "away",
        "faceOnLeft": false,
        "impliedDirection": 180,
        "testDirection": 0,
        "avgFps": 61,
        "minFps": 58,
        "maxFps": 142,
        "totalFrames": 68,
        "frameRates": 61
      },
      {
        "trial_number": 113,
        "trial_index": 691,
        "rt": 775,
        "correct": true,
        "response": "ArrowRight",
        "congruent": true,
        "gazeTowards": false,
        "gazeCondition": "away",
        "faceOnLeft": true,
        "impliedDirection": 0,
        "testDirection": 0,
        "avgFps": 61,
        "minFps": 58,
        "maxFps": 150,
        "totalFrames": 47,
        "frameRates": 61
      },
      {
        "trial_number": 114,
        "trial_index": 696,
        "rt": 691,
        "correct": true,
        "response": "ArrowLeft",
        "congruent": false,
        "gazeTowards": true,
        "gazeCondition": "towards",
        "faceOnLeft": true,
        "impliedDirection": 0,
        "testDirection": 180,
        "avgFps": 62,
        "minFps": 58,
        "maxFps": 2778,
        "totalFrames": 42,
        "frameRates": 62
      },
      {
        "trial_number": 115,
        "trial_index": 701,
        "rt": 668,
        "correct": true,
        "response": "ArrowRight",
        "congruent": true,
        "gazeTowards": false,
        "gazeCondition": "away",
        "faceOnLeft": true,
        "impliedDirection": 0,
        "testDirection": 0,
        "avgFps": 62,
        "minFps": 58,
        "maxFps": 3333,
        "totalFrames": 41,
        "frameRates": 62
      },
      {
        "trial_number": 116,
        "trial_index": 706,
        "rt": 819,
        "correct": false,
        "response": "ArrowRight",
        "congruent": false,
        "gazeTowards": false,
        "gazeCondition": "away",
        "faceOnLeft": true,
        "impliedDirection": 0,
        "testDirection": 180,
        "avgFps": 61,
        "minFps": 58,
        "maxFps": 2632,
        "totalFrames": 50,
        "frameRates": 61
      },
      {
        "trial_number": 117,
        "trial_index": 711,
        "rt": 165,
        "correct": false,
        "response": "ArrowRight",
        "congruent": true,
        "gazeTowards": false,
        "gazeCondition": "away",
        "faceOnLeft": false,
        "impliedDirection": 180,
        "testDirection": 180,
        "avgFps": 67,
        "minFps": 58,
        "maxFps": 2273,
        "totalFrames": 10,
        "frameRates": 67
      },
      {
        "trial_number": 118,
        "trial_index": 719,
        "rt": 1400,
        "correct": false,
        "response": "ArrowLeft",
        "congruent": false,
        "gazeTowards": false,
        "gazeCondition": "away",
        "faceOnLeft": false,
        "impliedDirection": 180,
        "testDirection": 0,
        "avgFps": 61,
        "minFps": 58,
        "maxFps": 177,
        "totalFrames": 84,
        "frameRates": 61
      },
      {
        "trial_number": 119,
        "trial_index": 724,
        "rt": 850,
        "correct": true,
        "response": "ArrowRight",
        "congruent": true,
        "gazeTowards": true,
        "gazeCondition": "towards",
        "faceOnLeft": true,
        "impliedDirection": 0,
        "testDirection": 0,
        "avgFps": 61,
        "minFps": 58,
        "maxFps": 2273,
        "totalFrames": 52,
        "frameRates": 61
      }
    ],
    "catch": {
      "total": 12,
      "correct": 12,
      "accuracy": 100,
      "meanRT": 614,
      "trials": [
        {
          "trial_number": 0,
          "trial_index": 114,
          "rt": 588,
          "correct": true,
          "colorTarget": "face",
          "gazeTowards": false,
          "gazeCondition": "away",
          "faceOnLeft": false
        },
        {
          "trial_number": 1,
          "trial_index": 222,
          "rt": 529,
          "correct": true,
          "colorTarget": "face",
          "gazeTowards": true,
          "gazeCondition": "towards",
          "faceOnLeft": false
        },
        {
          "trial_number": 2,
          "trial_index": 286,
          "rt": 735,
          "correct": true,
          "colorTarget": "tree",
          "gazeTowards": false,
          "gazeCondition": "away",
          "faceOnLeft": false
        },
        {
          "trial_number": 3,
          "trial_index": 294,
          "rt": 608,
          "correct": true,
          "colorTarget": "tree",
          "gazeTowards": false,
          "gazeCondition": "away",
          "faceOnLeft": false
        },
        {
          "trial_number": 4,
          "trial_index": 372,
          "rt": 713,
          "correct": true,
          "colorTarget": "face",
          "gazeTowards": false,
          "gazeCondition": "away",
          "faceOnLeft": false
        },
        {
          "trial_number": 5,
          "trial_index": 426,
          "rt": 677,
          "correct": true,
          "colorTarget": "tree",
          "gazeTowards": true,
          "gazeCondition": "towards",
          "faceOnLeft": true
        },
        {
          "trial_number": 6,
          "trial_index": 429,
          "rt": 546,
          "correct": true,
          "colorTarget": "tree",
          "gazeTowards": true,
          "gazeCondition": "towards",
          "faceOnLeft": false
        },
        {
          "trial_number": 7,
          "trial_index": 462,
          "rt": 468,
          "correct": true,
          "colorTarget": "tree",
          "gazeTowards": true,
          "gazeCondition": "towards",
          "faceOnLeft": false
        },
        {
          "trial_number": 8,
          "trial_index": 490,
          "rt": 686,
          "correct": true,
          "colorTarget": "face",
          "gazeTowards": true,
          "gazeCondition": "towards",
          "faceOnLeft": true
        },
        {
          "trial_number": 9,
          "trial_index": 548,
          "rt": 477,
          "correct": true,
          "colorTarget": "face",
          "gazeTowards": true,
          "gazeCondition": "towards",
          "faceOnLeft": true
        },
        {
          "trial_number": 10,
          "trial_index": 672,
          "rt": 697,
          "correct": true,
          "colorTarget": "tree",
          "gazeTowards": false,
          "gazeCondition": "away",
          "faceOnLeft": true
        },
        {
          "trial_number": 11,
          "trial_index": 715,
          "rt": 646,
          "correct": true,
          "colorTarget": "face",
          "gazeTowards": true,
          "gazeCondition": "towards",
          "faceOnLeft": true
        }
      ]
    },
    "practice": {
      "trials": [
        {
          "trial_number": 0,
          "rt": 1159,
          "correct": false,
          "direction": 180
        },
        {
          "trial_number": 1,
          "rt": 589,
          "correct": true,
          "direction": 180
        },
        {
          "trial_number": 2,
          "rt": 579,
          "correct": false,
          "direction": 180
        },
        {
          "trial_number": 3,
          "rt": 1133,
          "correct": false,
          "direction": 0
        },
        {
          "trial_number": 4,
          "rt": 1214,
          "correct": true,
          "direction": 180
        },
        {
          "trial_number": 5,
          "rt": 625,
          "correct": true,
          "direction": 0
        },
        {
          "trial_number": 6,
          "rt": 966,
          "correct": true,
          "direction": 180
        },
        {
          "trial_number": 7,
          "rt": 729,
          "correct": true,
          "direction": 0
        },
        {
          "trial_number": 8,
          "rt": 1014,
          "correct": true,
          "direction": 0
        },
        {
          "trial_number": 9,
          "rt": 676,
          "correct": true,
          "direction": 180
        },
        {
          "trial_number": 10,
          "rt": 1212,
          "correct": true,
          "direction": 180
        },
        {
          "trial_number": 11,
          "rt": 1421,
          "correct": false,
          "direction": 180
        },
        {
          "trial_number": 12,
          "rt": 854,
          "correct": true,
          "direction": 180
        },
        {
          "trial_number": 13,
          "rt": 620,
          "correct": true,
          "direction": 0
        },
        {
          "trial_number": 14,
          "rt": 815,
          "correct": true,
          "direction": 180
        },
        {
          "trial_number": 15,
          "rt": 767,
          "correct": true,
          "direction": 0
        },
        {
          "trial_number": 16,
          "rt": 692,
          "correct": true,
          "direction": 180
        },
        {
          "trial_number": 17,
          "rt": 742,
          "correct": true,
          "direction": 0
        },
        {
          "trial_number": 18,
          "rt": 774,
          "correct": true,
          "direction": 0
        },
        {
          "trial_number": 19,
          "rt": 794,
          "correct": true,
          "direction": 180
        }
      ],
      "meanRT": 869,
      "accuracy": 80
    }
  }
}