{
  "experiment": "rdk-face-1",
  "UUID": "99a25f44-a4e5-4d65-9960-b7603b14c37d",
  "data": {
    "session": {
      "experiment_version": "1.8.6",
      "treatment": "faces_towards_away_catch",
      "file_version": "1.8.6",
      "totalTrials": 120,
      "totalTrialsIncludingCatch": 132,
      "conditions": {
        "gazeTowardsCount": 60,
        "gazeAwayCount": 60,
        "gazeTowardsAccuracy": 97,
        "gazeAwayAccuracy": 100
      },
      "session_group": "default",
      "browserData": {
        "os": "Windows",
        "browser": "Chrome",
        "screenResolution": "2560x1440",
        "browserViewport": "2560x1440",
        "devicePixelRatio": 1,
        "colorDepth": 30,
        "hardwareConcurrency": 12,
        "deviceMemory": 8,
        "gpuRenderer": "ANGLE (AMD, AMD Radeon RX 6800 (0x000073BF) Direct3D11 vs_5_0 ps_5_0, D3D11)",
        "measuredRefreshRateHz": 140
      },
      "attention": {
        "visibilityEvents": [
          {
            "event": "blur",
            "state": "blurred",
            "timestamp": 1772766057789
          },
          {
            "event": "visibilitychange",
            "state": "hidden",
            "timestamp": 1772766057790
          },
          {
            "event": "visibilitychange",
            "state": "visible",
            "timestamp": 1772766059249
          },
          {
            "event": "focus",
            "state": "focused",
            "timestamp": 1772766059255
          }
        ]
      },
      "calibration": {
        "monitorWidthCm": 38,
        "viewingDistanceCm": 54,
        "pixelsPerDegree": 50
      },
      "parameters": {
        "coherence": 0.4,
        "apertureDeg": 5,
        "densityDotsPerDeg2": 40,
        "dotDiameterDeg": 0.035,
        "dotSpeedDegPerSec": 3,
        "lifetimeMs": 200,
        "fixationDurationMs": 1500,
        "faceDurationMs": 1500,
        "testDurationMs": 2000,
        "catchResponseMs": 3000
      },
      "prolific": {
        "prolificPid": "698f9675b0a2c0885344c225",
        "studyId": "",
        "sessionId": ""
      },
      "timing": {
        "startTime": "2026-03-06T03:00:56.076Z",
        "endTime": "2026-03-06T03:17:04.150Z",
        "totalElapsedTimeMs": 968074
      }
    },
    "trials": [
      {
        "trial_number": 0,
        "trial_index": 49,
        "rt": 1529,
        "correct": true,
        "response": "ArrowLeft",
        "congruent": true,
        "gazeTowards": false,
        "gazeCondition": "away",
        "faceOnLeft": false,
        "impliedDirection": 180,
        "testDirection": 180,
        "avgFps": 165,
        "minFps": 143,
        "maxFps": 943,
        "totalFrames": 252,
        "frameRates": 165
      },
      {
        "trial_number": 1,
        "trial_index": 54,
        "rt": 1508,
        "correct": true,
        "response": "ArrowRight",
        "congruent": false,
        "gazeTowards": false,
        "gazeCondition": "away",
        "faceOnLeft": false,
        "impliedDirection": 180,
        "testDirection": 0,
        "avgFps": 163,
        "minFps": 139,
        "maxFps": 169,
        "totalFrames": 246,
        "frameRates": 163
      },
      {
        "trial_number": 2,
        "trial_index": 59,
        "rt": null,
        "correct": false,
        "response": null,
        "congruent": true,
        "gazeTowards": true,
        "gazeCondition": "towards",
        "faceOnLeft": false,
        "impliedDirection": 180,
        "testDirection": 180,
        "avgFps": 163,
        "minFps": 141,
        "maxFps": 198,
        "totalFrames": 326,
        "frameRates": 163
      },
      {
        "trial_number": 3,
        "trial_index": 64,
        "rt": 1121,
        "correct": true,
        "response": "ArrowLeft",
        "congruent": true,
        "gazeTowards": true,
        "gazeCondition": "towards",
        "faceOnLeft": false,
        "impliedDirection": 180,
        "testDirection": 180,
        "avgFps": 164,
        "minFps": 141,
        "maxFps": 169,
        "totalFrames": 184,
        "frameRates": 164
      },
      {
        "trial_number": 4,
        "trial_index": 69,
        "rt": 1490,
        "correct": true,
        "response": "ArrowRight",
        "congruent": false,
        "gazeTowards": true,
        "gazeCondition": "towards",
        "faceOnLeft": false,
        "impliedDirection": 180,
        "testDirection": 0,
        "avgFps": 165,
        "minFps": 125,
        "maxFps": 169,
        "totalFrames": 246,
        "frameRates": 165
      },
      {
        "trial_number": 5,
        "trial_index": 74,
        "rt": 898,
        "correct": true,
        "response": "ArrowLeft",
        "congruent": true,
        "gazeTowards": true,
        "gazeCondition": "towards",
        "faceOnLeft": false,
        "impliedDirection": 180,
        "testDirection": 180,
        "avgFps": 161,
        "minFps": 90,
        "maxFps": 169,
        "totalFrames": 145,
        "frameRates": 161
      },
      {
        "trial_number": 6,
        "trial_index": 79,
        "rt": 1021,
        "correct": true,
        "response": "ArrowRight",
        "congruent": false,
        "gazeTowards": true,
        "gazeCondition": "towards",
        "faceOnLeft": false,
        "impliedDirection": 180,
        "testDirection": 0,
        "avgFps": 164,
        "minFps": 141,
        "maxFps": 169,
        "totalFrames": 167,
        "frameRates": 164
      },
      {
        "trial_number": 7,
        "trial_index": 84,
        "rt": 928,
        "correct": true,
        "response": "ArrowLeft",
        "congruent": false,
        "gazeTowards": true,
        "gazeCondition": "towards",
        "faceOnLeft": true,
        "impliedDirection": 0,
        "testDirection": 180,
        "avgFps": 162,
        "minFps": 139,
        "maxFps": 169,
        "totalFrames": 150,
        "frameRates": 162
      },
      {
        "trial_number": 8,
        "trial_index": 89,
        "rt": 918,
        "correct": true,
        "response": "ArrowLeft",
        "congruent": false,
        "gazeTowards": true,
        "gazeCondition": "towards",
        "faceOnLeft": true,
        "impliedDirection": 0,
        "testDirection": 180,
        "avgFps": 163,
        "minFps": 139,
        "maxFps": 169,
        "totalFrames": 150,
        "frameRates": 163
      },
      {
        "trial_number": 9,
        "trial_index": 94,
        "rt": 969,
        "correct": true,
        "response": "ArrowLeft",
        "congruent": false,
        "gazeTowards": false,
        "gazeCondition": "away",
        "faceOnLeft": true,
        "impliedDirection": 0,
        "testDirection": 180,
        "avgFps": 163,
        "minFps": 141,
        "maxFps": 169,
        "totalFrames": 157,
        "frameRates": 163
      },
      {
        "trial_number": 10,
        "trial_index": 102,
        "rt": 1217,
        "correct": true,
        "response": "ArrowRight",
        "congruent": false,
        "gazeTowards": false,
        "gazeCondition": "away",
        "faceOnLeft": false,
        "impliedDirection": 180,
        "testDirection": 0,
        "avgFps": 163,
        "minFps": 139,
        "maxFps": 167,
        "totalFrames": 199,
        "frameRates": 163
      },
      {
        "trial_number": 11,
        "trial_index": 107,
        "rt": 723,
        "correct": true,
        "response": "ArrowLeft",
        "congruent": true,
        "gazeTowards": true,
        "gazeCondition": "towards",
        "faceOnLeft": false,
        "impliedDirection": 180,
        "testDirection": 180,
        "avgFps": 164,
        "minFps": 141,
        "maxFps": 169,
        "totalFrames": 119,
        "frameRates": 164
      },
      {
        "trial_number": 12,
        "trial_index": 112,
        "rt": 834,
        "correct": true,
        "response": "ArrowRight",
        "congruent": true,
        "gazeTowards": false,
        "gazeCondition": "away",
        "faceOnLeft": true,
        "impliedDirection": 0,
        "testDirection": 0,
        "avgFps": 164,
        "minFps": 125,
        "maxFps": 167,
        "totalFrames": 137,
        "frameRates": 164
      },
      {
        "trial_number": 13,
        "trial_index": 117,
        "rt": 742,
        "correct": true,
        "response": "ArrowLeft",
        "congruent": true,
        "gazeTowards": true,
        "gazeCondition": "towards",
        "faceOnLeft": false,
        "impliedDirection": 180,
        "testDirection": 180,
        "avgFps": 165,
        "minFps": 161,
        "maxFps": 218,
        "totalFrames": 122,
        "frameRates": 165
      },
      {
        "trial_number": 14,
        "trial_index": 122,
        "rt": 1371,
        "correct": true,
        "response": "ArrowRight",
        "congruent": true,
        "gazeTowards": true,
        "gazeCondition": "towards",
        "faceOnLeft": true,
        "impliedDirection": 0,
        "testDirection": 0,
        "avgFps": 164,
        "minFps": 139,
        "maxFps": 169,
        "totalFrames": 225,
        "frameRates": 164
      },
      {
        "trial_number": 15,
        "trial_index": 127,
        "rt": 1491,
        "correct": true,
        "response": "ArrowRight",
        "congruent": true,
        "gazeTowards": true,
        "gazeCondition": "towards",
        "faceOnLeft": true,
        "impliedDirection": 0,
        "testDirection": 0,
        "avgFps": 164,
        "minFps": 141,
        "maxFps": 169,
        "totalFrames": 245,
        "frameRates": 164
      },
      {
        "trial_number": 16,
        "trial_index": 132,
        "rt": 1537,
        "correct": true,
        "response": "ArrowRight",
        "congruent": false,
        "gazeTowards": false,
        "gazeCondition": "away",
        "faceOnLeft": false,
        "impliedDirection": 180,
        "testDirection": 0,
        "avgFps": 165,
        "minFps": 161,
        "maxFps": 169,
        "totalFrames": 253,
        "frameRates": 165
      },
      {
        "trial_number": 17,
        "trial_index": 137,
        "rt": 812,
        "correct": true,
        "response": "ArrowLeft",
        "congruent": false,
        "gazeTowards": true,
        "gazeCondition": "towards",
        "faceOnLeft": true,
        "impliedDirection": 0,
        "testDirection": 180,
        "avgFps": 165,
        "minFps": 141,
        "maxFps": 169,
        "totalFrames": 134,
        "frameRates": 165
      },
      {
        "trial_number": 18,
        "trial_index": 142,
        "rt": 1477,
        "correct": true,
        "response": "ArrowRight",
        "congruent": true,
        "gazeTowards": true,
        "gazeCondition": "towards",
        "faceOnLeft": true,
        "impliedDirection": 0,
        "testDirection": 0,
        "avgFps": 165,
        "minFps": 141,
        "maxFps": 169,
        "totalFrames": 243,
        "frameRates": 165
      },
      {
        "trial_number": 19,
        "trial_index": 147,
        "rt": 1392,
        "correct": true,
        "response": "ArrowRight",
        "congruent": true,
        "gazeTowards": false,
        "gazeCondition": "away",
        "faceOnLeft": true,
        "impliedDirection": 0,
        "testDirection": 0,
        "avgFps": 165,
        "minFps": 139,
        "maxFps": 169,
        "totalFrames": 229,
        "frameRates": 165
      },
      {
        "trial_number": 20,
        "trial_index": 155,
        "rt": 1128,
        "correct": true,
        "response": "ArrowRight",
        "congruent": false,
        "gazeTowards": false,
        "gazeCondition": "away",
        "faceOnLeft": false,
        "impliedDirection": 180,
        "testDirection": 0,
        "avgFps": 164,
        "minFps": 141,
        "maxFps": 169,
        "totalFrames": 185,
        "frameRates": 164
      },
      {
        "trial_number": 21,
        "trial_index": 160,
        "rt": 1002,
        "correct": true,
        "response": "ArrowLeft",
        "congruent": false,
        "gazeTowards": false,
        "gazeCondition": "away",
        "faceOnLeft": true,
        "impliedDirection": 0,
        "testDirection": 180,
        "avgFps": 163,
        "minFps": 141,
        "maxFps": 169,
        "totalFrames": 163,
        "frameRates": 163
      },
      {
        "trial_number": 22,
        "trial_index": 165,
        "rt": 952,
        "correct": true,
        "response": "ArrowRight",
        "congruent": true,
        "gazeTowards": false,
        "gazeCondition": "away",
        "faceOnLeft": true,
        "impliedDirection": 0,
        "testDirection": 0,
        "avgFps": 161,
        "minFps": 139,
        "maxFps": 169,
        "totalFrames": 154,
        "frameRates": 161
      },
      {
        "trial_number": 23,
        "trial_index": 170,
        "rt": 852,
        "correct": true,
        "response": "ArrowLeft",
        "congruent": true,
        "gazeTowards": true,
        "gazeCondition": "towards",
        "faceOnLeft": false,
        "impliedDirection": 180,
        "testDirection": 180,
        "avgFps": 163,
        "minFps": 77,
        "maxFps": 169,
        "totalFrames": 139,
        "frameRates": 163
      },
      {
        "trial_number": 24,
        "trial_index": 175,
        "rt": 780,
        "correct": true,
        "response": "ArrowLeft",
        "congruent": false,
        "gazeTowards": true,
        "gazeCondition": "towards",
        "faceOnLeft": true,
        "impliedDirection": 0,
        "testDirection": 180,
        "avgFps": 165,
        "minFps": 143,
        "maxFps": 333,
        "totalFrames": 129,
        "frameRates": 165
      },
      {
        "trial_number": 25,
        "trial_index": 180,
        "rt": 807,
        "correct": true,
        "response": "ArrowRight",
        "congruent": false,
        "gazeTowards": false,
        "gazeCondition": "away",
        "faceOnLeft": false,
        "impliedDirection": 180,
        "testDirection": 0,
        "avgFps": 165,
        "minFps": 161,
        "maxFps": 169,
        "totalFrames": 133,
        "frameRates": 165
      },
      {
        "trial_number": 26,
        "trial_index": 185,
        "rt": 838,
        "correct": true,
        "response": "ArrowLeft",
        "congruent": false,
        "gazeTowards": true,
        "gazeCondition": "towards",
        "faceOnLeft": true,
        "impliedDirection": 0,
        "testDirection": 180,
        "avgFps": 163,
        "minFps": 139,
        "maxFps": 169,
        "totalFrames": 136,
        "frameRates": 163
      },
      {
        "trial_number": 27,
        "trial_index": 190,
        "rt": 704,
        "correct": true,
        "response": "ArrowLeft",
        "congruent": false,
        "gazeTowards": false,
        "gazeCondition": "away",
        "faceOnLeft": true,
        "impliedDirection": 0,
        "testDirection": 180,
        "avgFps": 165,
        "minFps": 141,
        "maxFps": 169,
        "totalFrames": 116,
        "frameRates": 165
      },
      {
        "trial_number": 28,
        "trial_index": 195,
        "rt": 612,
        "correct": true,
        "response": "ArrowLeft",
        "congruent": true,
        "gazeTowards": false,
        "gazeCondition": "away",
        "faceOnLeft": false,
        "impliedDirection": 180,
        "testDirection": 180,
        "avgFps": 165,
        "minFps": 139,
        "maxFps": 169,
        "totalFrames": 101,
        "frameRates": 165
      },
      {
        "trial_number": 29,
        "trial_index": 200,
        "rt": 584,
        "correct": true,
        "response": "ArrowRight",
        "congruent": false,
        "gazeTowards": true,
        "gazeCondition": "towards",
        "faceOnLeft": false,
        "impliedDirection": 180,
        "testDirection": 0,
        "avgFps": 163,
        "minFps": 139,
        "maxFps": 223,
        "totalFrames": 95,
        "frameRates": 163
      },
      {
        "trial_number": 30,
        "trial_index": 205,
        "rt": 1512,
        "correct": true,
        "response": "ArrowLeft",
        "congruent": true,
        "gazeTowards": false,
        "gazeCondition": "away",
        "faceOnLeft": false,
        "impliedDirection": 180,
        "testDirection": 180,
        "avgFps": 164,
        "minFps": 81,
        "maxFps": 169,
        "totalFrames": 248,
        "frameRates": 164
      },
      {
        "trial_number": 31,
        "trial_index": 211,
        "rt": 1221,
        "correct": true,
        "response": "ArrowRight",
        "congruent": false,
        "gazeTowards": false,
        "gazeCondition": "away",
        "faceOnLeft": false,
        "impliedDirection": 180,
        "testDirection": 0,
        "avgFps": 165,
        "minFps": 111,
        "maxFps": 169,
        "totalFrames": 201,
        "frameRates": 165
      },
      {
        "trial_number": 32,
        "trial_index": 216,
        "rt": 665,
        "correct": true,
        "response": "ArrowLeft",
        "congruent": false,
        "gazeTowards": true,
        "gazeCondition": "towards",
        "faceOnLeft": true,
        "impliedDirection": 0,
        "testDirection": 180,
        "avgFps": 163,
        "minFps": 78,
        "maxFps": 169,
        "totalFrames": 109,
        "frameRates": 163
      },
      {
        "trial_number": 33,
        "trial_index": 221,
        "rt": 1244,
        "correct": true,
        "response": "ArrowRight",
        "congruent": true,
        "gazeTowards": false,
        "gazeCondition": "away",
        "faceOnLeft": true,
        "impliedDirection": 0,
        "testDirection": 0,
        "avgFps": 165,
        "minFps": 147,
        "maxFps": 167,
        "totalFrames": 205,
        "frameRates": 165
      },
      {
        "trial_number": 34,
        "trial_index": 226,
        "rt": 1190,
        "correct": true,
        "response": "ArrowRight",
        "congruent": false,
        "gazeTowards": true,
        "gazeCondition": "towards",
        "faceOnLeft": false,
        "impliedDirection": 180,
        "testDirection": 0,
        "avgFps": 164,
        "minFps": 139,
        "maxFps": 223,
        "totalFrames": 195,
        "frameRates": 164
      },
      {
        "trial_number": 35,
        "trial_index": 231,
        "rt": 677,
        "correct": true,
        "response": "ArrowLeft",
        "congruent": true,
        "gazeTowards": true,
        "gazeCondition": "towards",
        "faceOnLeft": false,
        "impliedDirection": 180,
        "testDirection": 180,
        "avgFps": 165,
        "minFps": 161,
        "maxFps": 167,
        "totalFrames": 111,
        "frameRates": 165
      },
      {
        "trial_number": 36,
        "trial_index": 236,
        "rt": 698,
        "correct": true,
        "response": "ArrowLeft",
        "congruent": true,
        "gazeTowards": false,
        "gazeCondition": "away",
        "faceOnLeft": false,
        "impliedDirection": 180,
        "testDirection": 180,
        "avgFps": 165,
        "minFps": 125,
        "maxFps": 213,
        "totalFrames": 114,
        "frameRates": 165
      },
      {
        "trial_number": 37,
        "trial_index": 244,
        "rt": 741,
        "correct": true,
        "response": "ArrowLeft",
        "congruent": true,
        "gazeTowards": false,
        "gazeCondition": "away",
        "faceOnLeft": false,
        "impliedDirection": 180,
        "testDirection": 180,
        "avgFps": 165,
        "minFps": 120,
        "maxFps": 208,
        "totalFrames": 122,
        "frameRates": 165
      },
      {
        "trial_number": 38,
        "trial_index": 249,
        "rt": 844,
        "correct": true,
        "response": "ArrowRight",
        "congruent": false,
        "gazeTowards": false,
        "gazeCondition": "away",
        "faceOnLeft": false,
        "impliedDirection": 180,
        "testDirection": 0,
        "avgFps": 165,
        "minFps": 143,
        "maxFps": 169,
        "totalFrames": 139,
        "frameRates": 165
      },
      {
        "trial_number": 39,
        "trial_index": 254,
        "rt": 607,
        "correct": true,
        "response": "ArrowLeft",
        "congruent": false,
        "gazeTowards": true,
        "gazeCondition": "towards",
        "faceOnLeft": true,
        "impliedDirection": 0,
        "testDirection": 180,
        "avgFps": 165,
        "minFps": 141,
        "maxFps": 169,
        "totalFrames": 100,
        "frameRates": 165
      },
      {
        "trial_number": 40,
        "trial_index": 259,
        "rt": 602,
        "correct": true,
        "response": "ArrowLeft",
        "congruent": false,
        "gazeTowards": true,
        "gazeCondition": "towards",
        "faceOnLeft": true,
        "impliedDirection": 0,
        "testDirection": 180,
        "avgFps": 165,
        "minFps": 152,
        "maxFps": 167,
        "totalFrames": 99,
        "frameRates": 165
      },
      {
        "trial_number": 41,
        "trial_index": 264,
        "rt": 530,
        "correct": true,
        "response": "ArrowRight",
        "congruent": false,
        "gazeTowards": false,
        "gazeCondition": "away",
        "faceOnLeft": false,
        "impliedDirection": 180,
        "testDirection": 0,
        "avgFps": 164,
        "minFps": 141,
        "maxFps": 556,
        "totalFrames": 86,
        "frameRates": 164
      },
      {
        "trial_number": 42,
        "trial_index": 269,
        "rt": 706,
        "correct": true,
        "response": "ArrowRight",
        "congruent": true,
        "gazeTowards": false,
        "gazeCondition": "away",
        "faceOnLeft": true,
        "impliedDirection": 0,
        "testDirection": 0,
        "avgFps": 165,
        "minFps": 141,
        "maxFps": 167,
        "totalFrames": 116,
        "frameRates": 165
      },
      {
        "trial_number": 43,
        "trial_index": 274,
        "rt": 501,
        "correct": true,
        "response": "ArrowLeft",
        "congruent": true,
        "gazeTowards": true,
        "gazeCondition": "towards",
        "faceOnLeft": false,
        "impliedDirection": 180,
        "testDirection": 180,
        "avgFps": 164,
        "minFps": 102,
        "maxFps": 233,
        "totalFrames": 82,
        "frameRates": 164
      },
      {
        "trial_number": 44,
        "trial_index": 279,
        "rt": 634,
        "correct": true,
        "response": "ArrowLeft",
        "congruent": true,
        "gazeTowards": true,
        "gazeCondition": "towards",
        "faceOnLeft": false,
        "impliedDirection": 180,
        "testDirection": 180,
        "avgFps": 164,
        "minFps": 97,
        "maxFps": 204,
        "totalFrames": 104,
        "frameRates": 164
      },
      {
        "trial_number": 45,
        "trial_index": 284,
        "rt": 631,
        "correct": true,
        "response": "ArrowLeft",
        "congruent": false,
        "gazeTowards": false,
        "gazeCondition": "away",
        "faceOnLeft": true,
        "impliedDirection": 0,
        "testDirection": 180,
        "avgFps": 163,
        "minFps": 141,
        "maxFps": 198,
        "totalFrames": 103,
        "frameRates": 163
      },
      {
        "trial_number": 46,
        "trial_index": 289,
        "rt": 1211,
        "correct": true,
        "response": "ArrowRight",
        "congruent": false,
        "gazeTowards": false,
        "gazeCondition": "away",
        "faceOnLeft": false,
        "impliedDirection": 180,
        "testDirection": 0,
        "avgFps": 165,
        "minFps": 143,
        "maxFps": 169,
        "totalFrames": 199,
        "frameRates": 165
      },
      {
        "trial_number": 47,
        "trial_index": 294,
        "rt": 808,
        "correct": true,
        "response": "ArrowLeft",
        "congruent": true,
        "gazeTowards": false,
        "gazeCondition": "away",
        "faceOnLeft": false,
        "impliedDirection": 180,
        "testDirection": 180,
        "avgFps": 165,
        "minFps": 141,
        "maxFps": 169,
        "totalFrames": 133,
        "frameRates": 165
      },
      {
        "trial_number": 48,
        "trial_index": 302,
        "rt": 1424,
        "correct": true,
        "response": "ArrowRight",
        "congruent": false,
        "gazeTowards": true,
        "gazeCondition": "towards",
        "faceOnLeft": false,
        "impliedDirection": 180,
        "testDirection": 0,
        "avgFps": 163,
        "minFps": 139,
        "maxFps": 338,
        "totalFrames": 231,
        "frameRates": 163
      },
      {
        "trial_number": 49,
        "trial_index": 307,
        "rt": 1275,
        "correct": true,
        "response": "ArrowRight",
        "congruent": false,
        "gazeTowards": false,
        "gazeCondition": "away",
        "faceOnLeft": false,
        "impliedDirection": 180,
        "testDirection": 0,
        "avgFps": 164,
        "minFps": 100,
        "maxFps": 169,
        "totalFrames": 209,
        "frameRates": 164
      },
      {
        "trial_number": 50,
        "trial_index": 312,
        "rt": 754,
        "correct": true,
        "response": "ArrowRight",
        "congruent": true,
        "gazeTowards": true,
        "gazeCondition": "towards",
        "faceOnLeft": true,
        "impliedDirection": 0,
        "testDirection": 0,
        "avgFps": 162,
        "minFps": 141,
        "maxFps": 169,
        "totalFrames": 122,
        "frameRates": 162
      },
      {
        "trial_number": 51,
        "trial_index": 317,
        "rt": 1519,
        "correct": true,
        "response": "ArrowRight",
        "congruent": true,
        "gazeTowards": true,
        "gazeCondition": "towards",
        "faceOnLeft": true,
        "impliedDirection": 0,
        "testDirection": 0,
        "avgFps": 164,
        "minFps": 141,
        "maxFps": 169,
        "totalFrames": 249,
        "frameRates": 164
      },
      {
        "trial_number": 52,
        "trial_index": 322,
        "rt": 674,
        "correct": true,
        "response": "ArrowRight",
        "congruent": false,
        "gazeTowards": true,
        "gazeCondition": "towards",
        "faceOnLeft": false,
        "impliedDirection": 180,
        "testDirection": 0,
        "avgFps": 163,
        "minFps": 141,
        "maxFps": 169,
        "totalFrames": 110,
        "frameRates": 163
      },
      {
        "trial_number": 53,
        "trial_index": 327,
        "rt": 791,
        "correct": true,
        "response": "ArrowRight",
        "congruent": false,
        "gazeTowards": true,
        "gazeCondition": "towards",
        "faceOnLeft": false,
        "impliedDirection": 180,
        "testDirection": 0,
        "avgFps": 164,
        "minFps": 70,
        "maxFps": 204,
        "totalFrames": 130,
        "frameRates": 164
      },
      {
        "trial_number": 54,
        "trial_index": 335,
        "rt": 659,
        "correct": true,
        "response": "ArrowRight",
        "congruent": true,
        "gazeTowards": true,
        "gazeCondition": "towards",
        "faceOnLeft": true,
        "impliedDirection": 0,
        "testDirection": 0,
        "avgFps": 163,
        "minFps": 139,
        "maxFps": 169,
        "totalFrames": 107,
        "frameRates": 163
      },
      {
        "trial_number": 55,
        "trial_index": 340,
        "rt": 790,
        "correct": true,
        "response": "ArrowLeft",
        "congruent": true,
        "gazeTowards": false,
        "gazeCondition": "away",
        "faceOnLeft": false,
        "impliedDirection": 180,
        "testDirection": 180,
        "avgFps": 162,
        "minFps": 76,
        "maxFps": 167,
        "totalFrames": 128,
        "frameRates": 162
      },
      {
        "trial_number": 56,
        "trial_index": 345,
        "rt": 638,
        "correct": true,
        "response": "ArrowRight",
        "congruent": true,
        "gazeTowards": false,
        "gazeCondition": "away",
        "faceOnLeft": true,
        "impliedDirection": 0,
        "testDirection": 0,
        "avgFps": 162,
        "minFps": 141,
        "maxFps": 167,
        "totalFrames": 103,
        "frameRates": 162
      },
      {
        "trial_number": 57,
        "trial_index": 350,
        "rt": 597,
        "correct": true,
        "response": "ArrowRight",
        "congruent": false,
        "gazeTowards": false,
        "gazeCondition": "away",
        "faceOnLeft": false,
        "impliedDirection": 180,
        "testDirection": 0,
        "avgFps": 163,
        "minFps": 139,
        "maxFps": 169,
        "totalFrames": 98,
        "frameRates": 163
      },
      {
        "trial_number": 58,
        "trial_index": 355,
        "rt": 739,
        "correct": true,
        "response": "ArrowRight",
        "congruent": true,
        "gazeTowards": false,
        "gazeCondition": "away",
        "faceOnLeft": true,
        "impliedDirection": 0,
        "testDirection": 0,
        "avgFps": 165,
        "minFps": 141,
        "maxFps": 169,
        "totalFrames": 122,
        "frameRates": 165
      },
      {
        "trial_number": 59,
        "trial_index": 360,
        "rt": 635,
        "correct": true,
        "response": "ArrowLeft",
        "congruent": true,
        "gazeTowards": true,
        "gazeCondition": "towards",
        "faceOnLeft": false,
        "impliedDirection": 180,
        "testDirection": 180,
        "avgFps": 163,
        "minFps": 139,
        "maxFps": 167,
        "totalFrames": 104,
        "frameRates": 163
      },
      {
        "trial_number": 60,
        "trial_index": 365,
        "rt": 737,
        "correct": true,
        "response": "ArrowLeft",
        "congruent": true,
        "gazeTowards": false,
        "gazeCondition": "away",
        "faceOnLeft": false,
        "impliedDirection": 180,
        "testDirection": 180,
        "avgFps": 161,
        "minFps": 139,
        "maxFps": 169,
        "totalFrames": 119,
        "frameRates": 161
      },
      {
        "trial_number": 61,
        "trial_index": 371,
        "rt": 1130,
        "correct": true,
        "response": "ArrowLeft",
        "congruent": false,
        "gazeTowards": false,
        "gazeCondition": "away",
        "faceOnLeft": true,
        "impliedDirection": 0,
        "testDirection": 180,
        "avgFps": 162,
        "minFps": 141,
        "maxFps": 281,
        "totalFrames": 183,
        "frameRates": 162
      },
      {
        "trial_number": 62,
        "trial_index": 376,
        "rt": 876,
        "correct": true,
        "response": "ArrowLeft",
        "congruent": false,
        "gazeTowards": true,
        "gazeCondition": "towards",
        "faceOnLeft": true,
        "impliedDirection": 0,
        "testDirection": 180,
        "avgFps": 162,
        "minFps": 139,
        "maxFps": 169,
        "totalFrames": 142,
        "frameRates": 162
      },
      {
        "trial_number": 63,
        "trial_index": 381,
        "rt": 661,
        "correct": true,
        "response": "ArrowRight",
        "congruent": true,
        "gazeTowards": false,
        "gazeCondition": "away",
        "faceOnLeft": true,
        "impliedDirection": 0,
        "testDirection": 0,
        "avgFps": 164,
        "minFps": 137,
        "maxFps": 169,
        "totalFrames": 109,
        "frameRates": 164
      },
      {
        "trial_number": 64,
        "trial_index": 386,
        "rt": 548,
        "correct": true,
        "response": "ArrowLeft",
        "congruent": true,
        "gazeTowards": true,
        "gazeCondition": "towards",
        "faceOnLeft": false,
        "impliedDirection": 180,
        "testDirection": 180,
        "avgFps": 164,
        "minFps": 139,
        "maxFps": 169,
        "totalFrames": 90,
        "frameRates": 164
      },
      {
        "trial_number": 65,
        "trial_index": 391,
        "rt": 1095,
        "correct": true,
        "response": "ArrowRight",
        "congruent": false,
        "gazeTowards": false,
        "gazeCondition": "away",
        "faceOnLeft": false,
        "impliedDirection": 180,
        "testDirection": 0,
        "avgFps": 165,
        "minFps": 139,
        "maxFps": 169,
        "totalFrames": 180,
        "frameRates": 165
      },
      {
        "trial_number": 66,
        "trial_index": 396,
        "rt": 597,
        "correct": true,
        "response": "ArrowLeft",
        "congruent": true,
        "gazeTowards": false,
        "gazeCondition": "away",
        "faceOnLeft": false,
        "impliedDirection": 180,
        "testDirection": 180,
        "avgFps": 165,
        "minFps": 141,
        "maxFps": 169,
        "totalFrames": 98,
        "frameRates": 165
      },
      {
        "trial_number": 67,
        "trial_index": 401,
        "rt": 663,
        "correct": true,
        "response": "ArrowRight",
        "congruent": true,
        "gazeTowards": false,
        "gazeCondition": "away",
        "faceOnLeft": true,
        "impliedDirection": 0,
        "testDirection": 0,
        "avgFps": 163,
        "minFps": 141,
        "maxFps": 169,
        "totalFrames": 108,
        "frameRates": 163
      },
      {
        "trial_number": 68,
        "trial_index": 406,
        "rt": 677,
        "correct": true,
        "response": "ArrowRight",
        "congruent": true,
        "gazeTowards": false,
        "gazeCondition": "away",
        "faceOnLeft": true,
        "impliedDirection": 0,
        "testDirection": 0,
        "avgFps": 166,
        "minFps": 161,
        "maxFps": 363,
        "totalFrames": 112,
        "frameRates": 166
      },
      {
        "trial_number": 69,
        "trial_index": 411,
        "rt": 989,
        "correct": true,
        "response": "ArrowRight",
        "congruent": true,
        "gazeTowards": true,
        "gazeCondition": "towards",
        "faceOnLeft": true,
        "impliedDirection": 0,
        "testDirection": 0,
        "avgFps": 164,
        "minFps": 139,
        "maxFps": 169,
        "totalFrames": 162,
        "frameRates": 164
      },
      {
        "trial_number": 70,
        "trial_index": 416,
        "rt": 827,
        "correct": true,
        "response": "ArrowRight",
        "congruent": true,
        "gazeTowards": true,
        "gazeCondition": "towards",
        "faceOnLeft": true,
        "impliedDirection": 0,
        "testDirection": 0,
        "avgFps": 163,
        "minFps": 139,
        "maxFps": 169,
        "totalFrames": 135,
        "frameRates": 163
      },
      {
        "trial_number": 71,
        "trial_index": 421,
        "rt": 567,
        "correct": true,
        "response": "ArrowLeft",
        "congruent": false,
        "gazeTowards": true,
        "gazeCondition": "towards",
        "faceOnLeft": true,
        "impliedDirection": 0,
        "testDirection": 180,
        "avgFps": 165,
        "minFps": 161,
        "maxFps": 169,
        "totalFrames": 93,
        "frameRates": 165
      },
      {
        "trial_number": 72,
        "trial_index": 426,
        "rt": 619,
        "correct": true,
        "response": "ArrowRight",
        "congruent": false,
        "gazeTowards": true,
        "gazeCondition": "towards",
        "faceOnLeft": false,
        "impliedDirection": 180,
        "testDirection": 0,
        "avgFps": 165,
        "minFps": 141,
        "maxFps": 169,
        "totalFrames": 102,
        "frameRates": 165
      },
      {
        "trial_number": 73,
        "trial_index": 431,
        "rt": 869,
        "correct": true,
        "response": "ArrowLeft",
        "congruent": false,
        "gazeTowards": true,
        "gazeCondition": "towards",
        "faceOnLeft": true,
        "impliedDirection": 0,
        "testDirection": 180,
        "avgFps": 164,
        "minFps": 75,
        "maxFps": 179,
        "totalFrames": 143,
        "frameRates": 164
      },
      {
        "trial_number": 74,
        "trial_index": 436,
        "rt": 684,
        "correct": true,
        "response": "ArrowRight",
        "congruent": false,
        "gazeTowards": true,
        "gazeCondition": "towards",
        "faceOnLeft": false,
        "impliedDirection": 180,
        "testDirection": 0,
        "avgFps": 163,
        "minFps": 111,
        "maxFps": 169,
        "totalFrames": 111,
        "frameRates": 163
      },
      {
        "trial_number": 75,
        "trial_index": 441,
        "rt": 664,
        "correct": true,
        "response": "ArrowRight",
        "congruent": true,
        "gazeTowards": true,
        "gazeCondition": "towards",
        "faceOnLeft": true,
        "impliedDirection": 0,
        "testDirection": 0,
        "avgFps": 164,
        "minFps": 141,
        "maxFps": 169,
        "totalFrames": 109,
        "frameRates": 164
      },
      {
        "trial_number": 76,
        "trial_index": 446,
        "rt": 663,
        "correct": true,
        "response": "ArrowRight",
        "congruent": true,
        "gazeTowards": true,
        "gazeCondition": "towards",
        "faceOnLeft": true,
        "impliedDirection": 0,
        "testDirection": 0,
        "avgFps": 164,
        "minFps": 141,
        "maxFps": 250,
        "totalFrames": 108,
        "frameRates": 164
      },
      {
        "trial_number": 77,
        "trial_index": 451,
        "rt": 1785,
        "correct": false,
        "response": "ArrowLeft",
        "congruent": true,
        "gazeTowards": true,
        "gazeCondition": "towards",
        "faceOnLeft": true,
        "impliedDirection": 0,
        "testDirection": 0,
        "avgFps": 164,
        "minFps": 125,
        "maxFps": 169,
        "totalFrames": 292,
        "frameRates": 164
      },
      {
        "trial_number": 78,
        "trial_index": 456,
        "rt": 815,
        "correct": true,
        "response": "ArrowLeft",
        "congruent": true,
        "gazeTowards": true,
        "gazeCondition": "towards",
        "faceOnLeft": false,
        "impliedDirection": 180,
        "testDirection": 180,
        "avgFps": 161,
        "minFps": 139,
        "maxFps": 169,
        "totalFrames": 131,
        "frameRates": 161
      },
      {
        "trial_number": 79,
        "trial_index": 461,
        "rt": 1383,
        "correct": true,
        "response": "ArrowRight",
        "congruent": true,
        "gazeTowards": true,
        "gazeCondition": "towards",
        "faceOnLeft": true,
        "impliedDirection": 0,
        "testDirection": 0,
        "avgFps": 162,
        "minFps": 139,
        "maxFps": 169,
        "totalFrames": 224,
        "frameRates": 162
      },
      {
        "trial_number": 80,
        "trial_index": 466,
        "rt": 764,
        "correct": true,
        "response": "ArrowRight",
        "congruent": false,
        "gazeTowards": true,
        "gazeCondition": "towards",
        "faceOnLeft": false,
        "impliedDirection": 180,
        "testDirection": 0,
        "avgFps": 162,
        "minFps": 139,
        "maxFps": 169,
        "totalFrames": 124,
        "frameRates": 162
      },
      {
        "trial_number": 81,
        "trial_index": 471,
        "rt": 689,
        "correct": true,
        "response": "ArrowRight",
        "congruent": false,
        "gazeTowards": false,
        "gazeCondition": "away",
        "faceOnLeft": false,
        "impliedDirection": 180,
        "testDirection": 0,
        "avgFps": 163,
        "minFps": 75,
        "maxFps": 169,
        "totalFrames": 113,
        "frameRates": 163
      },
      {
        "trial_number": 82,
        "trial_index": 476,
        "rt": 514,
        "correct": true,
        "response": "ArrowLeft",
        "congruent": true,
        "gazeTowards": false,
        "gazeCondition": "away",
        "faceOnLeft": false,
        "impliedDirection": 180,
        "testDirection": 180,
        "avgFps": 163,
        "minFps": 125,
        "maxFps": 167,
        "totalFrames": 84,
        "frameRates": 163
      },
      {
        "trial_number": 83,
        "trial_index": 487,
        "rt": 839,
        "correct": true,
        "response": "ArrowLeft",
        "congruent": false,
        "gazeTowards": true,
        "gazeCondition": "towards",
        "faceOnLeft": true,
        "impliedDirection": 0,
        "testDirection": 180,
        "avgFps": 165,
        "minFps": 161,
        "maxFps": 218,
        "totalFrames": 138,
        "frameRates": 165
      },
      {
        "trial_number": 84,
        "trial_index": 492,
        "rt": 863,
        "correct": true,
        "response": "ArrowLeft",
        "congruent": true,
        "gazeTowards": false,
        "gazeCondition": "away",
        "faceOnLeft": false,
        "impliedDirection": 180,
        "testDirection": 180,
        "avgFps": 165,
        "minFps": 161,
        "maxFps": 169,
        "totalFrames": 142,
        "frameRates": 165
      },
      {
        "trial_number": 85,
        "trial_index": 497,
        "rt": 738,
        "correct": true,
        "response": "ArrowRight",
        "congruent": true,
        "gazeTowards": false,
        "gazeCondition": "away",
        "faceOnLeft": true,
        "impliedDirection": 0,
        "testDirection": 0,
        "avgFps": 165,
        "minFps": 143,
        "maxFps": 169,
        "totalFrames": 121,
        "frameRates": 165
      },
      {
        "trial_number": 86,
        "trial_index": 502,
        "rt": 660,
        "correct": true,
        "response": "ArrowLeft",
        "congruent": true,
        "gazeTowards": false,
        "gazeCondition": "away",
        "faceOnLeft": false,
        "impliedDirection": 180,
        "testDirection": 180,
        "avgFps": 163,
        "minFps": 141,
        "maxFps": 169,
        "totalFrames": 107,
        "frameRates": 163
      },
      {
        "trial_number": 87,
        "trial_index": 507,
        "rt": 605,
        "correct": true,
        "response": "ArrowLeft",
        "congruent": false,
        "gazeTowards": true,
        "gazeCondition": "towards",
        "faceOnLeft": true,
        "impliedDirection": 0,
        "testDirection": 180,
        "avgFps": 164,
        "minFps": 110,
        "maxFps": 169,
        "totalFrames": 99,
        "frameRates": 164
      },
      {
        "trial_number": 88,
        "trial_index": 512,
        "rt": 687,
        "correct": true,
        "response": "ArrowLeft",
        "congruent": false,
        "gazeTowards": false,
        "gazeCondition": "away",
        "faceOnLeft": true,
        "impliedDirection": 0,
        "testDirection": 180,
        "avgFps": 165,
        "minFps": 125,
        "maxFps": 167,
        "totalFrames": 113,
        "frameRates": 165
      },
      {
        "trial_number": 89,
        "trial_index": 523,
        "rt": 717,
        "correct": true,
        "response": "ArrowLeft",
        "congruent": true,
        "gazeTowards": false,
        "gazeCondition": "away",
        "faceOnLeft": false,
        "impliedDirection": 180,
        "testDirection": 180,
        "avgFps": 165,
        "minFps": 143,
        "maxFps": 167,
        "totalFrames": 118,
        "frameRates": 165
      },
      {
        "trial_number": 90,
        "trial_index": 529,
        "rt": 563,
        "correct": true,
        "response": "ArrowLeft",
        "congruent": false,
        "gazeTowards": false,
        "gazeCondition": "away",
        "faceOnLeft": true,
        "impliedDirection": 0,
        "testDirection": 180,
        "avgFps": 164,
        "minFps": 141,
        "maxFps": 218,
        "totalFrames": 92,
        "frameRates": 164
      },
      {
        "trial_number": 91,
        "trial_index": 534,
        "rt": 480,
        "correct": true,
        "response": "ArrowRight",
        "congruent": false,
        "gazeTowards": false,
        "gazeCondition": "away",
        "faceOnLeft": false,
        "impliedDirection": 180,
        "testDirection": 0,
        "avgFps": 165,
        "minFps": 141,
        "maxFps": 223,
        "totalFrames": 79,
        "frameRates": 165
      },
      {
        "trial_number": 92,
        "trial_index": 539,
        "rt": 629,
        "correct": true,
        "response": "ArrowRight",
        "congruent": true,
        "gazeTowards": false,
        "gazeCondition": "away",
        "faceOnLeft": true,
        "impliedDirection": 0,
        "testDirection": 0,
        "avgFps": 165,
        "minFps": 161,
        "maxFps": 169,
        "totalFrames": 104,
        "frameRates": 165
      },
      {
        "trial_number": 93,
        "trial_index": 544,
        "rt": 578,
        "correct": true,
        "response": "ArrowLeft",
        "congruent": false,
        "gazeTowards": false,
        "gazeCondition": "away",
        "faceOnLeft": true,
        "impliedDirection": 0,
        "testDirection": 180,
        "avgFps": 162,
        "minFps": 139,
        "maxFps": 169,
        "totalFrames": 94,
        "frameRates": 162
      },
      {
        "trial_number": 94,
        "trial_index": 549,
        "rt": 557,
        "correct": true,
        "response": "ArrowRight",
        "congruent": true,
        "gazeTowards": false,
        "gazeCondition": "away",
        "faceOnLeft": true,
        "impliedDirection": 0,
        "testDirection": 0,
        "avgFps": 161,
        "minFps": 141,
        "maxFps": 169,
        "totalFrames": 89,
        "frameRates": 161
      },
      {
        "trial_number": 95,
        "trial_index": 554,
        "rt": 505,
        "correct": true,
        "response": "ArrowLeft",
        "congruent": false,
        "gazeTowards": true,
        "gazeCondition": "towards",
        "faceOnLeft": true,
        "impliedDirection": 0,
        "testDirection": 180,
        "avgFps": 165,
        "minFps": 139,
        "maxFps": 228,
        "totalFrames": 83,
        "frameRates": 165
      },
      {
        "trial_number": 96,
        "trial_index": 559,
        "rt": 654,
        "correct": true,
        "response": "ArrowRight",
        "congruent": false,
        "gazeTowards": false,
        "gazeCondition": "away",
        "faceOnLeft": false,
        "impliedDirection": 180,
        "testDirection": 0,
        "avgFps": 164,
        "minFps": 141,
        "maxFps": 167,
        "totalFrames": 107,
        "frameRates": 164
      },
      {
        "trial_number": 97,
        "trial_index": 564,
        "rt": 639,
        "correct": true,
        "response": "ArrowLeft",
        "congruent": false,
        "gazeTowards": true,
        "gazeCondition": "towards",
        "faceOnLeft": true,
        "impliedDirection": 0,
        "testDirection": 180,
        "avgFps": 165,
        "minFps": 141,
        "maxFps": 169,
        "totalFrames": 105,
        "frameRates": 165
      },
      {
        "trial_number": 98,
        "trial_index": 569,
        "rt": 574,
        "correct": true,
        "response": "ArrowLeft",
        "congruent": true,
        "gazeTowards": false,
        "gazeCondition": "away",
        "faceOnLeft": false,
        "impliedDirection": 180,
        "testDirection": 180,
        "avgFps": 164,
        "minFps": 141,
        "maxFps": 167,
        "totalFrames": 94,
        "frameRates": 164
      },
      {
        "trial_number": 99,
        "trial_index": 574,
        "rt": 651,
        "correct": true,
        "response": "ArrowLeft",
        "congruent": false,
        "gazeTowards": true,
        "gazeCondition": "towards",
        "faceOnLeft": true,
        "impliedDirection": 0,
        "testDirection": 180,
        "avgFps": 163,
        "minFps": 76,
        "maxFps": 204,
        "totalFrames": 107,
        "frameRates": 163
      },
      {
        "trial_number": 100,
        "trial_index": 579,
        "rt": 568,
        "correct": true,
        "response": "ArrowLeft",
        "congruent": false,
        "gazeTowards": false,
        "gazeCondition": "away",
        "faceOnLeft": true,
        "impliedDirection": 0,
        "testDirection": 180,
        "avgFps": 165,
        "minFps": 143,
        "maxFps": 169,
        "totalFrames": 93,
        "frameRates": 165
      },
      {
        "trial_number": 101,
        "trial_index": 584,
        "rt": 511,
        "correct": true,
        "response": "ArrowRight",
        "congruent": true,
        "gazeTowards": true,
        "gazeCondition": "towards",
        "faceOnLeft": true,
        "impliedDirection": 0,
        "testDirection": 0,
        "avgFps": 164,
        "minFps": 123,
        "maxFps": 169,
        "totalFrames": 84,
        "frameRates": 164
      },
      {
        "trial_number": 102,
        "trial_index": 589,
        "rt": 1013,
        "correct": true,
        "response": "ArrowRight",
        "congruent": true,
        "gazeTowards": true,
        "gazeCondition": "towards",
        "faceOnLeft": true,
        "impliedDirection": 0,
        "testDirection": 0,
        "avgFps": 165,
        "minFps": 143,
        "maxFps": 193,
        "totalFrames": 167,
        "frameRates": 165
      },
      {
        "trial_number": 103,
        "trial_index": 594,
        "rt": 922,
        "correct": true,
        "response": "ArrowRight",
        "congruent": true,
        "gazeTowards": true,
        "gazeCondition": "towards",
        "faceOnLeft": true,
        "impliedDirection": 0,
        "testDirection": 0,
        "avgFps": 164,
        "minFps": 110,
        "maxFps": 169,
        "totalFrames": 152,
        "frameRates": 164
      },
      {
        "trial_number": 104,
        "trial_index": 599,
        "rt": 673,
        "correct": true,
        "response": "ArrowRight",
        "congruent": true,
        "gazeTowards": true,
        "gazeCondition": "towards",
        "faceOnLeft": true,
        "impliedDirection": 0,
        "testDirection": 0,
        "avgFps": 163,
        "minFps": 141,
        "maxFps": 169,
        "totalFrames": 109,
        "frameRates": 163
      },
      {
        "trial_number": 105,
        "trial_index": 604,
        "rt": 944,
        "correct": true,
        "response": "ArrowRight",
        "congruent": true,
        "gazeTowards": false,
        "gazeCondition": "away",
        "faceOnLeft": true,
        "impliedDirection": 0,
        "testDirection": 0,
        "avgFps": 164,
        "minFps": 77,
        "maxFps": 244,
        "totalFrames": 155,
        "frameRates": 164
      },
      {
        "trial_number": 106,
        "trial_index": 609,
        "rt": 670,
        "correct": true,
        "response": "ArrowLeft",
        "congruent": false,
        "gazeTowards": false,
        "gazeCondition": "away",
        "faceOnLeft": true,
        "impliedDirection": 0,
        "testDirection": 180,
        "avgFps": 164,
        "minFps": 105,
        "maxFps": 179,
        "totalFrames": 109,
        "frameRates": 164
      },
      {
        "trial_number": 107,
        "trial_index": 614,
        "rt": 603,
        "correct": true,
        "response": "ArrowRight",
        "congruent": true,
        "gazeTowards": true,
        "gazeCondition": "towards",
        "faceOnLeft": true,
        "impliedDirection": 0,
        "testDirection": 0,
        "avgFps": 163,
        "minFps": 141,
        "maxFps": 167,
        "totalFrames": 98,
        "frameRates": 163
      },
      {
        "trial_number": 108,
        "trial_index": 619,
        "rt": 591,
        "correct": true,
        "response": "ArrowRight",
        "congruent": false,
        "gazeTowards": false,
        "gazeCondition": "away",
        "faceOnLeft": false,
        "impliedDirection": 180,
        "testDirection": 0,
        "avgFps": 161,
        "minFps": 139,
        "maxFps": 223,
        "totalFrames": 95,
        "frameRates": 161
      },
      {
        "trial_number": 109,
        "trial_index": 624,
        "rt": 604,
        "correct": true,
        "response": "ArrowLeft",
        "congruent": true,
        "gazeTowards": false,
        "gazeCondition": "away",
        "faceOnLeft": false,
        "impliedDirection": 180,
        "testDirection": 180,
        "avgFps": 163,
        "minFps": 141,
        "maxFps": 169,
        "totalFrames": 98,
        "frameRates": 163
      },
      {
        "trial_number": 110,
        "trial_index": 629,
        "rt": 1078,
        "correct": true,
        "response": "ArrowRight",
        "congruent": false,
        "gazeTowards": true,
        "gazeCondition": "towards",
        "faceOnLeft": false,
        "impliedDirection": 180,
        "testDirection": 0,
        "avgFps": 165,
        "minFps": 141,
        "maxFps": 169,
        "totalFrames": 177,
        "frameRates": 165
      },
      {
        "trial_number": 111,
        "trial_index": 634,
        "rt": 708,
        "correct": true,
        "response": "ArrowRight",
        "congruent": true,
        "gazeTowards": false,
        "gazeCondition": "away",
        "faceOnLeft": true,
        "impliedDirection": 0,
        "testDirection": 0,
        "avgFps": 163,
        "minFps": 139,
        "maxFps": 274,
        "totalFrames": 115,
        "frameRates": 163
      },
      {
        "trial_number": 112,
        "trial_index": 642,
        "rt": 672,
        "correct": true,
        "response": "ArrowRight",
        "congruent": true,
        "gazeTowards": true,
        "gazeCondition": "towards",
        "faceOnLeft": true,
        "impliedDirection": 0,
        "testDirection": 0,
        "avgFps": 161,
        "minFps": 81,
        "maxFps": 167,
        "totalFrames": 108,
        "frameRates": 161
      },
      {
        "trial_number": 113,
        "trial_index": 647,
        "rt": 533,
        "correct": true,
        "response": "ArrowLeft",
        "congruent": false,
        "gazeTowards": false,
        "gazeCondition": "away",
        "faceOnLeft": true,
        "impliedDirection": 0,
        "testDirection": 180,
        "avgFps": 160,
        "minFps": 77,
        "maxFps": 169,
        "totalFrames": 86,
        "frameRates": 160
      },
      {
        "trial_number": 114,
        "trial_index": 652,
        "rt": 615,
        "correct": true,
        "response": "ArrowRight",
        "congruent": false,
        "gazeTowards": true,
        "gazeCondition": "towards",
        "faceOnLeft": false,
        "impliedDirection": 180,
        "testDirection": 0,
        "avgFps": 165,
        "minFps": 161,
        "maxFps": 169,
        "totalFrames": 101,
        "frameRates": 165
      },
      {
        "trial_number": 115,
        "trial_index": 657,
        "rt": 763,
        "correct": true,
        "response": "ArrowLeft",
        "congruent": false,
        "gazeTowards": false,
        "gazeCondition": "away",
        "faceOnLeft": true,
        "impliedDirection": 0,
        "testDirection": 180,
        "avgFps": 162,
        "minFps": 141,
        "maxFps": 169,
        "totalFrames": 124,
        "frameRates": 162
      },
      {
        "trial_number": 116,
        "trial_index": 662,
        "rt": 665,
        "correct": true,
        "response": "ArrowRight",
        "congruent": false,
        "gazeTowards": false,
        "gazeCondition": "away",
        "faceOnLeft": false,
        "impliedDirection": 180,
        "testDirection": 0,
        "avgFps": 165,
        "minFps": 161,
        "maxFps": 218,
        "totalFrames": 110,
        "frameRates": 165
      },
      {
        "trial_number": 117,
        "trial_index": 670,
        "rt": 658,
        "correct": true,
        "response": "ArrowRight",
        "congruent": false,
        "gazeTowards": true,
        "gazeCondition": "towards",
        "faceOnLeft": false,
        "impliedDirection": 180,
        "testDirection": 0,
        "avgFps": 163,
        "minFps": 141,
        "maxFps": 169,
        "totalFrames": 107,
        "frameRates": 163
      },
      {
        "trial_number": 118,
        "trial_index": 675,
        "rt": 548,
        "correct": true,
        "response": "ArrowRight",
        "congruent": false,
        "gazeTowards": false,
        "gazeCondition": "away",
        "faceOnLeft": false,
        "impliedDirection": 180,
        "testDirection": 0,
        "avgFps": 164,
        "minFps": 125,
        "maxFps": 169,
        "totalFrames": 90,
        "frameRates": 164
      },
      {
        "trial_number": 119,
        "trial_index": 683,
        "rt": 673,
        "correct": true,
        "response": "ArrowLeft",
        "congruent": false,
        "gazeTowards": true,
        "gazeCondition": "towards",
        "faceOnLeft": true,
        "impliedDirection": 0,
        "testDirection": 180,
        "avgFps": 165,
        "minFps": 124,
        "maxFps": 179,
        "totalFrames": 110,
        "frameRates": 165
      }
    ],
    "catch": {
      "total": 12,
      "correct": 12,
      "accuracy": 100,
      "meanRT": 602,
      "trials": [
        {
          "trial_number": 0,
          "trial_index": 98,
          "rt": 647,
          "correct": true,
          "colorTarget": "tree",
          "gazeTowards": true,
          "gazeCondition": "towards",
          "faceOnLeft": false
        },
        {
          "trial_number": 1,
          "trial_index": 151,
          "rt": 1212,
          "correct": true,
          "colorTarget": "face",
          "gazeTowards": false,
          "gazeCondition": "away",
          "faceOnLeft": true
        },
        {
          "trial_number": 2,
          "trial_index": 240,
          "rt": 552,
          "correct": true,
          "colorTarget": "face",
          "gazeTowards": true,
          "gazeCondition": "towards",
          "faceOnLeft": true
        },
        {
          "trial_number": 3,
          "trial_index": 298,
          "rt": 597,
          "correct": true,
          "colorTarget": "face",
          "gazeTowards": true,
          "gazeCondition": "towards",
          "faceOnLeft": true
        },
        {
          "trial_number": 4,
          "trial_index": 331,
          "rt": 433,
          "correct": true,
          "colorTarget": "face",
          "gazeTowards": false,
          "gazeCondition": "away",
          "faceOnLeft": true
        },
        {
          "trial_number": 5,
          "trial_index": 480,
          "rt": 608,
          "correct": true,
          "colorTarget": "face",
          "gazeTowards": true,
          "gazeCondition": "towards",
          "faceOnLeft": false
        },
        {
          "trial_number": 6,
          "trial_index": 483,
          "rt": 490,
          "correct": true,
          "colorTarget": "tree",
          "gazeTowards": true,
          "gazeCondition": "towards",
          "faceOnLeft": false
        },
        {
          "trial_number": 7,
          "trial_index": 516,
          "rt": 699,
          "correct": true,
          "colorTarget": "tree",
          "gazeTowards": true,
          "gazeCondition": "towards",
          "faceOnLeft": true
        },
        {
          "trial_number": 8,
          "trial_index": 519,
          "rt": 337,
          "correct": true,
          "colorTarget": "tree",
          "gazeTowards": true,
          "gazeCondition": "towards",
          "faceOnLeft": true
        },
        {
          "trial_number": 9,
          "trial_index": 638,
          "rt": 606,
          "correct": true,
          "colorTarget": "tree",
          "gazeTowards": true,
          "gazeCondition": "towards",
          "faceOnLeft": false
        },
        {
          "trial_number": 10,
          "trial_index": 666,
          "rt": 509,
          "correct": true,
          "colorTarget": "tree",
          "gazeTowards": false,
          "gazeCondition": "away",
          "faceOnLeft": true
        },
        {
          "trial_number": 11,
          "trial_index": 679,
          "rt": 533,
          "correct": true,
          "colorTarget": "face",
          "gazeTowards": true,
          "gazeCondition": "towards",
          "faceOnLeft": false
        }
      ]
    },
    "practice": {
      "trials": [
        {
          "trial_number": 0,
          "rt": null,
          "correct": false,
          "direction": 0
        },
        {
          "trial_number": 1,
          "rt": 1374,
          "correct": true,
          "direction": 0
        },
        {
          "trial_number": 2,
          "rt": 1347,
          "correct": true,
          "direction": 0
        },
        {
          "trial_number": 3,
          "rt": 1457,
          "correct": true,
          "direction": 0
        },
        {
          "trial_number": 4,
          "rt": 1085,
          "correct": true,
          "direction": 0
        },
        {
          "trial_number": 5,
          "rt": 871,
          "correct": true,
          "direction": 180
        },
        {
          "trial_number": 6,
          "rt": 946,
          "correct": true,
          "direction": 180
        },
        {
          "trial_number": 7,
          "rt": 1088,
          "correct": true,
          "direction": 0
        },
        {
          "trial_number": 8,
          "rt": 1188,
          "correct": false,
          "direction": 0
        },
        {
          "trial_number": 9,
          "rt": 970,
          "correct": true,
          "direction": 180
        }
      ],
      "meanRT": 1147,
      "accuracy": 80
    }
  }
}