{
  "experiment": "rdk-face-1",
  "UUID": "f9734e53-eddd-47e5-8f45-fb03c17afb03",
  "data": {
    "session": {
      "experiment_version": "1.8.6",
      "treatment": "faces_towards_away_catch",
      "file_version": "1.8.6",
      "totalTrials": 120,
      "totalTrialsIncludingCatch": 132,
      "conditions": {
        "gazeTowardsCount": 60,
        "gazeAwayCount": 60,
        "gazeTowardsAccuracy": 100,
        "gazeAwayAccuracy": 98
      },
      "session_group": "default",
      "browserData": {
        "os": "Windows",
        "browser": "Chrome",
        "screenResolution": "3128x1310",
        "browserViewport": "3128x1310",
        "devicePixelRatio": 1.100000023841858,
        "colorDepth": 32,
        "hardwareConcurrency": 24,
        "deviceMemory": 8,
        "gpuRenderer": "ANGLE (AMD, AMD Radeon RX 6600 XT (0x000073FF) Direct3D11 vs_5_0 ps_5_0, D3D11)",
        "measuredRefreshRateHz": 116
      },
      "attention": {
        "visibilityEvents": [
          {
            "event": "visibilitychange",
            "state": "hidden",
            "timestamp": 1772767331274
          },
          {
            "event": "focus",
            "state": "focused",
            "timestamp": 1772767332727
          },
          {
            "event": "visibilitychange",
            "state": "visible",
            "timestamp": 1772767332750
          },
          {
            "event": "blur",
            "state": "blurred",
            "timestamp": 1772767332894
          },
          {
            "event": "focus",
            "state": "focused",
            "timestamp": 1772767338878
          },
          {
            "event": "blur",
            "state": "blurred",
            "timestamp": 1772767338881
          },
          {
            "event": "visibilitychange",
            "state": "hidden",
            "timestamp": 1772767338883
          },
          {
            "event": "visibilitychange",
            "state": "visible",
            "timestamp": 1772767341055
          },
          {
            "event": "focus",
            "state": "focused",
            "timestamp": 1772767341057
          }
        ]
      },
      "calibration": {
        "monitorWidthCm": 38,
        "viewingDistanceCm": 54,
        "pixelsPerDegree": 50
      },
      "parameters": {
        "coherence": 0.4,
        "apertureDeg": 5,
        "densityDotsPerDeg2": 40,
        "dotDiameterDeg": 0.035,
        "dotSpeedDegPerSec": 3,
        "lifetimeMs": 200,
        "fixationDurationMs": 1500,
        "faceDurationMs": 1500,
        "testDurationMs": 2000,
        "catchResponseMs": 3000
      },
      "prolific": {
        "prolificPid": "5c50046b2b89f500015e5f6b",
        "studyId": "",
        "sessionId": ""
      },
      "timing": {
        "startTime": "2026-03-06T03:22:05.075Z",
        "endTime": "2026-03-06T03:37:28.240Z",
        "totalElapsedTimeMs": 923165
      }
    },
    "trials": [
      {
        "trial_number": 0,
        "trial_index": 90,
        "rt": 935,
        "correct": true,
        "response": "ArrowRight",
        "congruent": true,
        "gazeTowards": true,
        "gazeCondition": "towards",
        "faceOnLeft": true,
        "impliedDirection": 0,
        "testDirection": 0,
        "avgFps": 120,
        "minFps": 119,
        "maxFps": 122,
        "totalFrames": 112,
        "frameRates": 120
      },
      {
        "trial_number": 1,
        "trial_index": 95,
        "rt": 720,
        "correct": true,
        "response": "ArrowLeft",
        "congruent": true,
        "gazeTowards": true,
        "gazeCondition": "towards",
        "faceOnLeft": false,
        "impliedDirection": 180,
        "testDirection": 180,
        "avgFps": 120,
        "minFps": 118,
        "maxFps": 122,
        "totalFrames": 86,
        "frameRates": 120
      },
      {
        "trial_number": 2,
        "trial_index": 100,
        "rt": 688,
        "correct": true,
        "response": "ArrowRight",
        "congruent": false,
        "gazeTowards": false,
        "gazeCondition": "away",
        "faceOnLeft": false,
        "impliedDirection": 180,
        "testDirection": 0,
        "avgFps": 120,
        "minFps": 119,
        "maxFps": 122,
        "totalFrames": 83,
        "frameRates": 120
      },
      {
        "trial_number": 3,
        "trial_index": 105,
        "rt": 617,
        "correct": true,
        "response": "ArrowLeft",
        "congruent": true,
        "gazeTowards": false,
        "gazeCondition": "away",
        "faceOnLeft": false,
        "impliedDirection": 180,
        "testDirection": 180,
        "avgFps": 120,
        "minFps": 118,
        "maxFps": 122,
        "totalFrames": 74,
        "frameRates": 120
      },
      {
        "trial_number": 4,
        "trial_index": 110,
        "rt": 589,
        "correct": true,
        "response": "ArrowLeft",
        "congruent": true,
        "gazeTowards": false,
        "gazeCondition": "away",
        "faceOnLeft": false,
        "impliedDirection": 180,
        "testDirection": 180,
        "avgFps": 120,
        "minFps": 118,
        "maxFps": 122,
        "totalFrames": 70,
        "frameRates": 120
      },
      {
        "trial_number": 5,
        "trial_index": 115,
        "rt": 756,
        "correct": true,
        "response": "ArrowRight",
        "congruent": false,
        "gazeTowards": false,
        "gazeCondition": "away",
        "faceOnLeft": false,
        "impliedDirection": 180,
        "testDirection": 0,
        "avgFps": 120,
        "minFps": 118,
        "maxFps": 122,
        "totalFrames": 90,
        "frameRates": 120
      },
      {
        "trial_number": 6,
        "trial_index": 120,
        "rt": 742,
        "correct": true,
        "response": "ArrowRight",
        "congruent": true,
        "gazeTowards": false,
        "gazeCondition": "away",
        "faceOnLeft": true,
        "impliedDirection": 0,
        "testDirection": 0,
        "avgFps": 120,
        "minFps": 118,
        "maxFps": 122,
        "totalFrames": 89,
        "frameRates": 120
      },
      {
        "trial_number": 7,
        "trial_index": 125,
        "rt": 594,
        "correct": true,
        "response": "ArrowRight",
        "congruent": true,
        "gazeTowards": false,
        "gazeCondition": "away",
        "faceOnLeft": true,
        "impliedDirection": 0,
        "testDirection": 0,
        "avgFps": 118,
        "minFps": 56,
        "maxFps": 135,
        "totalFrames": 71,
        "frameRates": 118
      },
      {
        "trial_number": 8,
        "trial_index": 130,
        "rt": 612,
        "correct": true,
        "response": "ArrowLeft",
        "congruent": true,
        "gazeTowards": false,
        "gazeCondition": "away",
        "faceOnLeft": false,
        "impliedDirection": 180,
        "testDirection": 180,
        "avgFps": 118,
        "minFps": 57,
        "maxFps": 135,
        "totalFrames": 73,
        "frameRates": 118
      },
      {
        "trial_number": 9,
        "trial_index": 135,
        "rt": 746,
        "correct": true,
        "response": "ArrowLeft",
        "congruent": false,
        "gazeTowards": true,
        "gazeCondition": "towards",
        "faceOnLeft": true,
        "impliedDirection": 0,
        "testDirection": 180,
        "avgFps": 120,
        "minFps": 118,
        "maxFps": 122,
        "totalFrames": 90,
        "frameRates": 120
      },
      {
        "trial_number": 10,
        "trial_index": 140,
        "rt": 600,
        "correct": true,
        "response": "ArrowRight",
        "congruent": false,
        "gazeTowards": false,
        "gazeCondition": "away",
        "faceOnLeft": false,
        "impliedDirection": 180,
        "testDirection": 0,
        "avgFps": 120,
        "minFps": 119,
        "maxFps": 122,
        "totalFrames": 72,
        "frameRates": 120
      },
      {
        "trial_number": 11,
        "trial_index": 145,
        "rt": 777,
        "correct": true,
        "response": "ArrowRight",
        "congruent": true,
        "gazeTowards": true,
        "gazeCondition": "towards",
        "faceOnLeft": true,
        "impliedDirection": 0,
        "testDirection": 0,
        "avgFps": 120,
        "minFps": 118,
        "maxFps": 122,
        "totalFrames": 93,
        "frameRates": 120
      },
      {
        "trial_number": 12,
        "trial_index": 150,
        "rt": 833,
        "correct": true,
        "response": "ArrowLeft",
        "congruent": true,
        "gazeTowards": true,
        "gazeCondition": "towards",
        "faceOnLeft": false,
        "impliedDirection": 180,
        "testDirection": 180,
        "avgFps": 120,
        "minFps": 118,
        "maxFps": 122,
        "totalFrames": 100,
        "frameRates": 120
      },
      {
        "trial_number": 13,
        "trial_index": 155,
        "rt": 832,
        "correct": true,
        "response": "ArrowRight",
        "congruent": false,
        "gazeTowards": false,
        "gazeCondition": "away",
        "faceOnLeft": false,
        "impliedDirection": 180,
        "testDirection": 0,
        "avgFps": 120,
        "minFps": 118,
        "maxFps": 122,
        "totalFrames": 99,
        "frameRates": 120
      },
      {
        "trial_number": 14,
        "trial_index": 163,
        "rt": 816,
        "correct": true,
        "response": "ArrowRight",
        "congruent": false,
        "gazeTowards": true,
        "gazeCondition": "towards",
        "faceOnLeft": false,
        "impliedDirection": 180,
        "testDirection": 0,
        "avgFps": 120,
        "minFps": 118,
        "maxFps": 122,
        "totalFrames": 98,
        "frameRates": 120
      },
      {
        "trial_number": 15,
        "trial_index": 168,
        "rt": 689,
        "correct": true,
        "response": "ArrowLeft",
        "congruent": false,
        "gazeTowards": false,
        "gazeCondition": "away",
        "faceOnLeft": true,
        "impliedDirection": 0,
        "testDirection": 180,
        "avgFps": 120,
        "minFps": 118,
        "maxFps": 122,
        "totalFrames": 82,
        "frameRates": 120
      },
      {
        "trial_number": 16,
        "trial_index": 173,
        "rt": 747,
        "correct": true,
        "response": "ArrowLeft",
        "congruent": false,
        "gazeTowards": false,
        "gazeCondition": "away",
        "faceOnLeft": true,
        "impliedDirection": 0,
        "testDirection": 180,
        "avgFps": 120,
        "minFps": 118,
        "maxFps": 122,
        "totalFrames": 90,
        "frameRates": 120
      },
      {
        "trial_number": 17,
        "trial_index": 181,
        "rt": 642,
        "correct": true,
        "response": "ArrowRight",
        "congruent": false,
        "gazeTowards": false,
        "gazeCondition": "away",
        "faceOnLeft": false,
        "impliedDirection": 180,
        "testDirection": 0,
        "avgFps": 120,
        "minFps": 118,
        "maxFps": 136,
        "totalFrames": 77,
        "frameRates": 120
      },
      {
        "trial_number": 18,
        "trial_index": 189,
        "rt": 607,
        "correct": true,
        "response": "ArrowLeft",
        "congruent": true,
        "gazeTowards": false,
        "gazeCondition": "away",
        "faceOnLeft": false,
        "impliedDirection": 180,
        "testDirection": 180,
        "avgFps": 119,
        "minFps": 63,
        "maxFps": 132,
        "totalFrames": 72,
        "frameRates": 119
      },
      {
        "trial_number": 19,
        "trial_index": 194,
        "rt": 1092,
        "correct": true,
        "response": "ArrowRight",
        "congruent": true,
        "gazeTowards": false,
        "gazeCondition": "away",
        "faceOnLeft": true,
        "impliedDirection": 0,
        "testDirection": 0,
        "avgFps": 120,
        "minFps": 119,
        "maxFps": 122,
        "totalFrames": 131,
        "frameRates": 120
      },
      {
        "trial_number": 20,
        "trial_index": 199,
        "rt": 750,
        "correct": true,
        "response": "ArrowRight",
        "congruent": false,
        "gazeTowards": false,
        "gazeCondition": "away",
        "faceOnLeft": false,
        "impliedDirection": 180,
        "testDirection": 0,
        "avgFps": 120,
        "minFps": 118,
        "maxFps": 122,
        "totalFrames": 90,
        "frameRates": 120
      },
      {
        "trial_number": 21,
        "trial_index": 204,
        "rt": 760,
        "correct": true,
        "response": "ArrowRight",
        "congruent": true,
        "gazeTowards": true,
        "gazeCondition": "towards",
        "faceOnLeft": true,
        "impliedDirection": 0,
        "testDirection": 0,
        "avgFps": 120,
        "minFps": 118,
        "maxFps": 122,
        "totalFrames": 91,
        "frameRates": 120
      },
      {
        "trial_number": 22,
        "trial_index": 209,
        "rt": 772,
        "correct": true,
        "response": "ArrowRight",
        "congruent": false,
        "gazeTowards": false,
        "gazeCondition": "away",
        "faceOnLeft": false,
        "impliedDirection": 180,
        "testDirection": 0,
        "avgFps": 119,
        "minFps": 60,
        "maxFps": 122,
        "totalFrames": 92,
        "frameRates": 119
      },
      {
        "trial_number": 23,
        "trial_index": 217,
        "rt": 747,
        "correct": true,
        "response": "ArrowLeft",
        "congruent": false,
        "gazeTowards": false,
        "gazeCondition": "away",
        "faceOnLeft": true,
        "impliedDirection": 0,
        "testDirection": 180,
        "avgFps": 120,
        "minFps": 118,
        "maxFps": 122,
        "totalFrames": 89,
        "frameRates": 120
      },
      {
        "trial_number": 24,
        "trial_index": 222,
        "rt": 1048,
        "correct": true,
        "response": "ArrowRight",
        "congruent": false,
        "gazeTowards": false,
        "gazeCondition": "away",
        "faceOnLeft": false,
        "impliedDirection": 180,
        "testDirection": 0,
        "avgFps": 120,
        "minFps": 118,
        "maxFps": 122,
        "totalFrames": 126,
        "frameRates": 120
      },
      {
        "trial_number": 25,
        "trial_index": 230,
        "rt": 703,
        "correct": true,
        "response": "ArrowLeft",
        "congruent": true,
        "gazeTowards": false,
        "gazeCondition": "away",
        "faceOnLeft": false,
        "impliedDirection": 180,
        "testDirection": 180,
        "avgFps": 120,
        "minFps": 118,
        "maxFps": 122,
        "totalFrames": 84,
        "frameRates": 120
      },
      {
        "trial_number": 26,
        "trial_index": 235,
        "rt": 1101,
        "correct": true,
        "response": "ArrowLeft",
        "congruent": true,
        "gazeTowards": true,
        "gazeCondition": "towards",
        "faceOnLeft": false,
        "impliedDirection": 180,
        "testDirection": 180,
        "avgFps": 120,
        "minFps": 119,
        "maxFps": 122,
        "totalFrames": 132,
        "frameRates": 120
      },
      {
        "trial_number": 27,
        "trial_index": 240,
        "rt": 992,
        "correct": true,
        "response": "ArrowRight",
        "congruent": true,
        "gazeTowards": true,
        "gazeCondition": "towards",
        "faceOnLeft": true,
        "impliedDirection": 0,
        "testDirection": 0,
        "avgFps": 120,
        "minFps": 118,
        "maxFps": 122,
        "totalFrames": 119,
        "frameRates": 120
      },
      {
        "trial_number": 28,
        "trial_index": 246,
        "rt": 927,
        "correct": true,
        "response": "ArrowRight",
        "congruent": false,
        "gazeTowards": true,
        "gazeCondition": "towards",
        "faceOnLeft": false,
        "impliedDirection": 180,
        "testDirection": 0,
        "avgFps": 120,
        "minFps": 119,
        "maxFps": 122,
        "totalFrames": 112,
        "frameRates": 120
      },
      {
        "trial_number": 29,
        "trial_index": 251,
        "rt": 825,
        "correct": true,
        "response": "ArrowLeft",
        "congruent": true,
        "gazeTowards": true,
        "gazeCondition": "towards",
        "faceOnLeft": false,
        "impliedDirection": 180,
        "testDirection": 180,
        "avgFps": 120,
        "minFps": 119,
        "maxFps": 122,
        "totalFrames": 99,
        "frameRates": 120
      },
      {
        "trial_number": 30,
        "trial_index": 256,
        "rt": 970,
        "correct": true,
        "response": "ArrowRight",
        "congruent": true,
        "gazeTowards": false,
        "gazeCondition": "away",
        "faceOnLeft": true,
        "impliedDirection": 0,
        "testDirection": 0,
        "avgFps": 120,
        "minFps": 119,
        "maxFps": 122,
        "totalFrames": 116,
        "frameRates": 120
      },
      {
        "trial_number": 31,
        "trial_index": 261,
        "rt": 1099,
        "correct": true,
        "response": "ArrowRight",
        "congruent": true,
        "gazeTowards": true,
        "gazeCondition": "towards",
        "faceOnLeft": true,
        "impliedDirection": 0,
        "testDirection": 0,
        "avgFps": 120,
        "minFps": 118,
        "maxFps": 122,
        "totalFrames": 132,
        "frameRates": 120
      },
      {
        "trial_number": 32,
        "trial_index": 266,
        "rt": 891,
        "correct": true,
        "response": "ArrowRight",
        "congruent": true,
        "gazeTowards": true,
        "gazeCondition": "towards",
        "faceOnLeft": true,
        "impliedDirection": 0,
        "testDirection": 0,
        "avgFps": 120,
        "minFps": 118,
        "maxFps": 122,
        "totalFrames": 107,
        "frameRates": 120
      },
      {
        "trial_number": 33,
        "trial_index": 271,
        "rt": 893,
        "correct": true,
        "response": "ArrowRight",
        "congruent": false,
        "gazeTowards": true,
        "gazeCondition": "towards",
        "faceOnLeft": false,
        "impliedDirection": 180,
        "testDirection": 0,
        "avgFps": 120,
        "minFps": 119,
        "maxFps": 122,
        "totalFrames": 107,
        "frameRates": 120
      },
      {
        "trial_number": 34,
        "trial_index": 276,
        "rt": 1144,
        "correct": true,
        "response": "ArrowRight",
        "congruent": true,
        "gazeTowards": false,
        "gazeCondition": "away",
        "faceOnLeft": true,
        "impliedDirection": 0,
        "testDirection": 0,
        "avgFps": 120,
        "minFps": 118,
        "maxFps": 122,
        "totalFrames": 137,
        "frameRates": 120
      },
      {
        "trial_number": 35,
        "trial_index": 281,
        "rt": 1305,
        "correct": true,
        "response": "ArrowRight",
        "congruent": false,
        "gazeTowards": true,
        "gazeCondition": "towards",
        "faceOnLeft": false,
        "impliedDirection": 180,
        "testDirection": 0,
        "avgFps": 120,
        "minFps": 119,
        "maxFps": 122,
        "totalFrames": 156,
        "frameRates": 120
      },
      {
        "trial_number": 36,
        "trial_index": 286,
        "rt": 993,
        "correct": true,
        "response": "ArrowRight",
        "congruent": false,
        "gazeTowards": false,
        "gazeCondition": "away",
        "faceOnLeft": false,
        "impliedDirection": 180,
        "testDirection": 0,
        "avgFps": 120,
        "minFps": 102,
        "maxFps": 143,
        "totalFrames": 119,
        "frameRates": 120
      },
      {
        "trial_number": 37,
        "trial_index": 291,
        "rt": 1116,
        "correct": true,
        "response": "ArrowRight",
        "congruent": true,
        "gazeTowards": false,
        "gazeCondition": "away",
        "faceOnLeft": true,
        "impliedDirection": 0,
        "testDirection": 0,
        "avgFps": 120,
        "minFps": 118,
        "maxFps": 122,
        "totalFrames": 134,
        "frameRates": 120
      },
      {
        "trial_number": 38,
        "trial_index": 296,
        "rt": 741,
        "correct": true,
        "response": "ArrowLeft",
        "congruent": true,
        "gazeTowards": true,
        "gazeCondition": "towards",
        "faceOnLeft": false,
        "impliedDirection": 180,
        "testDirection": 180,
        "avgFps": 120,
        "minFps": 118,
        "maxFps": 122,
        "totalFrames": 89,
        "frameRates": 120
      },
      {
        "trial_number": 39,
        "trial_index": 301,
        "rt": 829,
        "correct": true,
        "response": "ArrowRight",
        "congruent": true,
        "gazeTowards": true,
        "gazeCondition": "towards",
        "faceOnLeft": true,
        "impliedDirection": 0,
        "testDirection": 0,
        "avgFps": 120,
        "minFps": 118,
        "maxFps": 122,
        "totalFrames": 100,
        "frameRates": 120
      },
      {
        "trial_number": 40,
        "trial_index": 306,
        "rt": 1104,
        "correct": true,
        "response": "ArrowRight",
        "congruent": false,
        "gazeTowards": false,
        "gazeCondition": "away",
        "faceOnLeft": false,
        "impliedDirection": 180,
        "testDirection": 0,
        "avgFps": 119,
        "minFps": 55,
        "maxFps": 145,
        "totalFrames": 132,
        "frameRates": 119
      },
      {
        "trial_number": 41,
        "trial_index": 311,
        "rt": 893,
        "correct": true,
        "response": "ArrowRight",
        "congruent": true,
        "gazeTowards": true,
        "gazeCondition": "towards",
        "faceOnLeft": true,
        "impliedDirection": 0,
        "testDirection": 0,
        "avgFps": 120,
        "minFps": 118,
        "maxFps": 122,
        "totalFrames": 107,
        "frameRates": 120
      },
      {
        "trial_number": 42,
        "trial_index": 316,
        "rt": 995,
        "correct": true,
        "response": "ArrowRight",
        "congruent": false,
        "gazeTowards": false,
        "gazeCondition": "away",
        "faceOnLeft": false,
        "impliedDirection": 180,
        "testDirection": 0,
        "avgFps": 120,
        "minFps": 119,
        "maxFps": 122,
        "totalFrames": 119,
        "frameRates": 120
      },
      {
        "trial_number": 43,
        "trial_index": 321,
        "rt": 1212,
        "correct": true,
        "response": "ArrowLeft",
        "congruent": true,
        "gazeTowards": true,
        "gazeCondition": "towards",
        "faceOnLeft": false,
        "impliedDirection": 180,
        "testDirection": 180,
        "avgFps": 120,
        "minFps": 119,
        "maxFps": 122,
        "totalFrames": 145,
        "frameRates": 120
      },
      {
        "trial_number": 44,
        "trial_index": 326,
        "rt": 869,
        "correct": true,
        "response": "ArrowRight",
        "congruent": true,
        "gazeTowards": false,
        "gazeCondition": "away",
        "faceOnLeft": true,
        "impliedDirection": 0,
        "testDirection": 0,
        "avgFps": 120,
        "minFps": 119,
        "maxFps": 122,
        "totalFrames": 104,
        "frameRates": 120
      },
      {
        "trial_number": 45,
        "trial_index": 331,
        "rt": 734,
        "correct": true,
        "response": "ArrowRight",
        "congruent": true,
        "gazeTowards": false,
        "gazeCondition": "away",
        "faceOnLeft": true,
        "impliedDirection": 0,
        "testDirection": 0,
        "avgFps": 119,
        "minFps": 56,
        "maxFps": 141,
        "totalFrames": 88,
        "frameRates": 119
      },
      {
        "trial_number": 46,
        "trial_index": 336,
        "rt": 792,
        "correct": true,
        "response": "ArrowRight",
        "congruent": false,
        "gazeTowards": false,
        "gazeCondition": "away",
        "faceOnLeft": false,
        "impliedDirection": 180,
        "testDirection": 0,
        "avgFps": 120,
        "minFps": 118,
        "maxFps": 122,
        "totalFrames": 95,
        "frameRates": 120
      },
      {
        "trial_number": 47,
        "trial_index": 347,
        "rt": 952,
        "correct": true,
        "response": "ArrowRight",
        "congruent": true,
        "gazeTowards": false,
        "gazeCondition": "away",
        "faceOnLeft": true,
        "impliedDirection": 0,
        "testDirection": 0,
        "avgFps": 120,
        "minFps": 118,
        "maxFps": 122,
        "totalFrames": 115,
        "frameRates": 120
      },
      {
        "trial_number": 48,
        "trial_index": 352,
        "rt": 876,
        "correct": true,
        "response": "ArrowLeft",
        "congruent": true,
        "gazeTowards": true,
        "gazeCondition": "towards",
        "faceOnLeft": false,
        "impliedDirection": 180,
        "testDirection": 180,
        "avgFps": 120,
        "minFps": 118,
        "maxFps": 122,
        "totalFrames": 105,
        "frameRates": 120
      },
      {
        "trial_number": 49,
        "trial_index": 357,
        "rt": 1486,
        "correct": true,
        "response": "ArrowRight",
        "congruent": true,
        "gazeTowards": true,
        "gazeCondition": "towards",
        "faceOnLeft": true,
        "impliedDirection": 0,
        "testDirection": 0,
        "avgFps": 120,
        "minFps": 118,
        "maxFps": 122,
        "totalFrames": 179,
        "frameRates": 120
      },
      {
        "trial_number": 50,
        "trial_index": 362,
        "rt": 1617,
        "correct": true,
        "response": "ArrowRight",
        "congruent": false,
        "gazeTowards": false,
        "gazeCondition": "away",
        "faceOnLeft": false,
        "impliedDirection": 180,
        "testDirection": 0,
        "avgFps": 120,
        "minFps": 119,
        "maxFps": 122,
        "totalFrames": 194,
        "frameRates": 120
      },
      {
        "trial_number": 51,
        "trial_index": 367,
        "rt": 745,
        "correct": true,
        "response": "ArrowLeft",
        "congruent": true,
        "gazeTowards": false,
        "gazeCondition": "away",
        "faceOnLeft": false,
        "impliedDirection": 180,
        "testDirection": 180,
        "avgFps": 120,
        "minFps": 119,
        "maxFps": 122,
        "totalFrames": 89,
        "frameRates": 120
      },
      {
        "trial_number": 52,
        "trial_index": 372,
        "rt": 745,
        "correct": true,
        "response": "ArrowLeft",
        "congruent": false,
        "gazeTowards": false,
        "gazeCondition": "away",
        "faceOnLeft": true,
        "impliedDirection": 0,
        "testDirection": 180,
        "avgFps": 120,
        "minFps": 118,
        "maxFps": 122,
        "totalFrames": 89,
        "frameRates": 120
      },
      {
        "trial_number": 53,
        "trial_index": 377,
        "rt": 1293,
        "correct": true,
        "response": "ArrowRight",
        "congruent": true,
        "gazeTowards": false,
        "gazeCondition": "away",
        "faceOnLeft": true,
        "impliedDirection": 0,
        "testDirection": 0,
        "avgFps": 120,
        "minFps": 118,
        "maxFps": 122,
        "totalFrames": 155,
        "frameRates": 120
      },
      {
        "trial_number": 54,
        "trial_index": 382,
        "rt": 1482,
        "correct": true,
        "response": "ArrowRight",
        "congruent": false,
        "gazeTowards": false,
        "gazeCondition": "away",
        "faceOnLeft": false,
        "impliedDirection": 180,
        "testDirection": 0,
        "avgFps": 120,
        "minFps": 118,
        "maxFps": 122,
        "totalFrames": 178,
        "frameRates": 120
      },
      {
        "trial_number": 55,
        "trial_index": 387,
        "rt": 754,
        "correct": true,
        "response": "ArrowLeft",
        "congruent": true,
        "gazeTowards": true,
        "gazeCondition": "towards",
        "faceOnLeft": false,
        "impliedDirection": 180,
        "testDirection": 180,
        "avgFps": 120,
        "minFps": 118,
        "maxFps": 122,
        "totalFrames": 90,
        "frameRates": 120
      },
      {
        "trial_number": 56,
        "trial_index": 392,
        "rt": 1378,
        "correct": true,
        "response": "ArrowRight",
        "congruent": false,
        "gazeTowards": true,
        "gazeCondition": "towards",
        "faceOnLeft": false,
        "impliedDirection": 180,
        "testDirection": 0,
        "avgFps": 120,
        "minFps": 118,
        "maxFps": 122,
        "totalFrames": 165,
        "frameRates": 120
      },
      {
        "trial_number": 57,
        "trial_index": 397,
        "rt": 957,
        "correct": true,
        "response": "ArrowLeft",
        "congruent": true,
        "gazeTowards": true,
        "gazeCondition": "towards",
        "faceOnLeft": false,
        "impliedDirection": 180,
        "testDirection": 180,
        "avgFps": 120,
        "minFps": 119,
        "maxFps": 122,
        "totalFrames": 115,
        "frameRates": 120
      },
      {
        "trial_number": 58,
        "trial_index": 402,
        "rt": 879,
        "correct": true,
        "response": "ArrowRight",
        "congruent": true,
        "gazeTowards": true,
        "gazeCondition": "towards",
        "faceOnLeft": true,
        "impliedDirection": 0,
        "testDirection": 0,
        "avgFps": 120,
        "minFps": 118,
        "maxFps": 122,
        "totalFrames": 105,
        "frameRates": 120
      },
      {
        "trial_number": 59,
        "trial_index": 408,
        "rt": 1055,
        "correct": true,
        "response": "ArrowRight",
        "congruent": true,
        "gazeTowards": true,
        "gazeCondition": "towards",
        "faceOnLeft": true,
        "impliedDirection": 0,
        "testDirection": 0,
        "avgFps": 120,
        "minFps": 119,
        "maxFps": 122,
        "totalFrames": 126,
        "frameRates": 120
      },
      {
        "trial_number": 60,
        "trial_index": 413,
        "rt": 903,
        "correct": true,
        "response": "ArrowLeft",
        "congruent": true,
        "gazeTowards": false,
        "gazeCondition": "away",
        "faceOnLeft": false,
        "impliedDirection": 180,
        "testDirection": 180,
        "avgFps": 120,
        "minFps": 118,
        "maxFps": 122,
        "totalFrames": 109,
        "frameRates": 120
      },
      {
        "trial_number": 61,
        "trial_index": 418,
        "rt": 1281,
        "correct": true,
        "response": "ArrowRight",
        "congruent": false,
        "gazeTowards": false,
        "gazeCondition": "away",
        "faceOnLeft": false,
        "impliedDirection": 180,
        "testDirection": 0,
        "avgFps": 120,
        "minFps": 119,
        "maxFps": 122,
        "totalFrames": 153,
        "frameRates": 120
      },
      {
        "trial_number": 62,
        "trial_index": 423,
        "rt": 1094,
        "correct": true,
        "response": "ArrowLeft",
        "congruent": false,
        "gazeTowards": true,
        "gazeCondition": "towards",
        "faceOnLeft": true,
        "impliedDirection": 0,
        "testDirection": 180,
        "avgFps": 120,
        "minFps": 118,
        "maxFps": 122,
        "totalFrames": 131,
        "frameRates": 120
      },
      {
        "trial_number": 63,
        "trial_index": 428,
        "rt": 905,
        "correct": true,
        "response": "ArrowRight",
        "congruent": false,
        "gazeTowards": true,
        "gazeCondition": "towards",
        "faceOnLeft": false,
        "impliedDirection": 180,
        "testDirection": 0,
        "avgFps": 120,
        "minFps": 119,
        "maxFps": 122,
        "totalFrames": 109,
        "frameRates": 120
      },
      {
        "trial_number": 64,
        "trial_index": 433,
        "rt": 1122,
        "correct": true,
        "response": "ArrowLeft",
        "congruent": false,
        "gazeTowards": true,
        "gazeCondition": "towards",
        "faceOnLeft": true,
        "impliedDirection": 0,
        "testDirection": 180,
        "avgFps": 120,
        "minFps": 119,
        "maxFps": 122,
        "totalFrames": 135,
        "frameRates": 120
      },
      {
        "trial_number": 65,
        "trial_index": 438,
        "rt": 1171,
        "correct": true,
        "response": "ArrowLeft",
        "congruent": false,
        "gazeTowards": true,
        "gazeCondition": "towards",
        "faceOnLeft": true,
        "impliedDirection": 0,
        "testDirection": 180,
        "avgFps": 119,
        "minFps": 57,
        "maxFps": 133,
        "totalFrames": 140,
        "frameRates": 119
      },
      {
        "trial_number": 66,
        "trial_index": 443,
        "rt": 994,
        "correct": true,
        "response": "ArrowRight",
        "congruent": false,
        "gazeTowards": true,
        "gazeCondition": "towards",
        "faceOnLeft": false,
        "impliedDirection": 180,
        "testDirection": 0,
        "avgFps": 120,
        "minFps": 118,
        "maxFps": 122,
        "totalFrames": 119,
        "frameRates": 120
      },
      {
        "trial_number": 67,
        "trial_index": 448,
        "rt": 1281,
        "correct": true,
        "response": "ArrowRight",
        "congruent": false,
        "gazeTowards": false,
        "gazeCondition": "away",
        "faceOnLeft": false,
        "impliedDirection": 180,
        "testDirection": 0,
        "avgFps": 120,
        "minFps": 118,
        "maxFps": 122,
        "totalFrames": 154,
        "frameRates": 120
      },
      {
        "trial_number": 68,
        "trial_index": 453,
        "rt": 988,
        "correct": true,
        "response": "ArrowLeft",
        "congruent": false,
        "gazeTowards": true,
        "gazeCondition": "towards",
        "faceOnLeft": true,
        "impliedDirection": 0,
        "testDirection": 180,
        "avgFps": 120,
        "minFps": 119,
        "maxFps": 122,
        "totalFrames": 119,
        "frameRates": 120
      },
      {
        "trial_number": 69,
        "trial_index": 458,
        "rt": 1176,
        "correct": true,
        "response": "ArrowLeft",
        "congruent": true,
        "gazeTowards": true,
        "gazeCondition": "towards",
        "faceOnLeft": false,
        "impliedDirection": 180,
        "testDirection": 180,
        "avgFps": 120,
        "minFps": 118,
        "maxFps": 122,
        "totalFrames": 141,
        "frameRates": 120
      },
      {
        "trial_number": 70,
        "trial_index": 463,
        "rt": 1024,
        "correct": true,
        "response": "ArrowRight",
        "congruent": false,
        "gazeTowards": false,
        "gazeCondition": "away",
        "faceOnLeft": false,
        "impliedDirection": 180,
        "testDirection": 0,
        "avgFps": 120,
        "minFps": 119,
        "maxFps": 122,
        "totalFrames": 123,
        "frameRates": 120
      },
      {
        "trial_number": 71,
        "trial_index": 468,
        "rt": 912,
        "correct": true,
        "response": "ArrowRight",
        "congruent": true,
        "gazeTowards": false,
        "gazeCondition": "away",
        "faceOnLeft": true,
        "impliedDirection": 0,
        "testDirection": 0,
        "avgFps": 120,
        "minFps": 118,
        "maxFps": 122,
        "totalFrames": 109,
        "frameRates": 120
      },
      {
        "trial_number": 72,
        "trial_index": 473,
        "rt": 1050,
        "correct": true,
        "response": "ArrowLeft",
        "congruent": true,
        "gazeTowards": false,
        "gazeCondition": "away",
        "faceOnLeft": false,
        "impliedDirection": 180,
        "testDirection": 180,
        "avgFps": 120,
        "minFps": 119,
        "maxFps": 122,
        "totalFrames": 125,
        "frameRates": 120
      },
      {
        "trial_number": 73,
        "trial_index": 478,
        "rt": 1079,
        "correct": true,
        "response": "ArrowLeft",
        "congruent": false,
        "gazeTowards": false,
        "gazeCondition": "away",
        "faceOnLeft": true,
        "impliedDirection": 0,
        "testDirection": 180,
        "avgFps": 120,
        "minFps": 118,
        "maxFps": 122,
        "totalFrames": 129,
        "frameRates": 120
      },
      {
        "trial_number": 74,
        "trial_index": 483,
        "rt": 907,
        "correct": true,
        "response": "ArrowRight",
        "congruent": false,
        "gazeTowards": true,
        "gazeCondition": "towards",
        "faceOnLeft": false,
        "impliedDirection": 180,
        "testDirection": 0,
        "avgFps": 120,
        "minFps": 118,
        "maxFps": 122,
        "totalFrames": 109,
        "frameRates": 120
      },
      {
        "trial_number": 75,
        "trial_index": 488,
        "rt": 1038,
        "correct": true,
        "response": "ArrowLeft",
        "congruent": false,
        "gazeTowards": true,
        "gazeCondition": "towards",
        "faceOnLeft": true,
        "impliedDirection": 0,
        "testDirection": 180,
        "avgFps": 120,
        "minFps": 119,
        "maxFps": 122,
        "totalFrames": 124,
        "frameRates": 120
      },
      {
        "trial_number": 76,
        "trial_index": 493,
        "rt": 1180,
        "correct": true,
        "response": "ArrowLeft",
        "congruent": false,
        "gazeTowards": true,
        "gazeCondition": "towards",
        "faceOnLeft": true,
        "impliedDirection": 0,
        "testDirection": 180,
        "avgFps": 120,
        "minFps": 119,
        "maxFps": 122,
        "totalFrames": 142,
        "frameRates": 120
      },
      {
        "trial_number": 77,
        "trial_index": 498,
        "rt": 1675,
        "correct": true,
        "response": "ArrowLeft",
        "congruent": true,
        "gazeTowards": true,
        "gazeCondition": "towards",
        "faceOnLeft": false,
        "impliedDirection": 180,
        "testDirection": 180,
        "avgFps": 120,
        "minFps": 100,
        "maxFps": 147,
        "totalFrames": 200,
        "frameRates": 120
      },
      {
        "trial_number": 78,
        "trial_index": 503,
        "rt": null,
        "correct": false,
        "response": null,
        "congruent": false,
        "gazeTowards": false,
        "gazeCondition": "away",
        "faceOnLeft": true,
        "impliedDirection": 0,
        "testDirection": 180,
        "avgFps": 120,
        "minFps": 118,
        "maxFps": 122,
        "totalFrames": 240,
        "frameRates": 120
      },
      {
        "trial_number": 79,
        "trial_index": 508,
        "rt": 927,
        "correct": true,
        "response": "ArrowLeft",
        "congruent": true,
        "gazeTowards": true,
        "gazeCondition": "towards",
        "faceOnLeft": false,
        "impliedDirection": 180,
        "testDirection": 180,
        "avgFps": 120,
        "minFps": 118,
        "maxFps": 122,
        "totalFrames": 111,
        "frameRates": 120
      },
      {
        "trial_number": 80,
        "trial_index": 513,
        "rt": 946,
        "correct": true,
        "response": "ArrowRight",
        "congruent": true,
        "gazeTowards": true,
        "gazeCondition": "towards",
        "faceOnLeft": true,
        "impliedDirection": 0,
        "testDirection": 0,
        "avgFps": 119,
        "minFps": 56,
        "maxFps": 141,
        "totalFrames": 113,
        "frameRates": 119
      },
      {
        "trial_number": 81,
        "trial_index": 518,
        "rt": 1057,
        "correct": true,
        "response": "ArrowRight",
        "congruent": true,
        "gazeTowards": true,
        "gazeCondition": "towards",
        "faceOnLeft": true,
        "impliedDirection": 0,
        "testDirection": 0,
        "avgFps": 120,
        "minFps": 119,
        "maxFps": 122,
        "totalFrames": 127,
        "frameRates": 120
      },
      {
        "trial_number": 82,
        "trial_index": 523,
        "rt": 1036,
        "correct": true,
        "response": "ArrowRight",
        "congruent": true,
        "gazeTowards": false,
        "gazeCondition": "away",
        "faceOnLeft": true,
        "impliedDirection": 0,
        "testDirection": 0,
        "avgFps": 120,
        "minFps": 118,
        "maxFps": 122,
        "totalFrames": 124,
        "frameRates": 120
      },
      {
        "trial_number": 83,
        "trial_index": 528,
        "rt": 798,
        "correct": true,
        "response": "ArrowLeft",
        "congruent": true,
        "gazeTowards": false,
        "gazeCondition": "away",
        "faceOnLeft": false,
        "impliedDirection": 180,
        "testDirection": 180,
        "avgFps": 120,
        "minFps": 119,
        "maxFps": 122,
        "totalFrames": 96,
        "frameRates": 120
      },
      {
        "trial_number": 84,
        "trial_index": 533,
        "rt": 879,
        "correct": true,
        "response": "ArrowLeft",
        "congruent": false,
        "gazeTowards": true,
        "gazeCondition": "towards",
        "faceOnLeft": true,
        "impliedDirection": 0,
        "testDirection": 180,
        "avgFps": 120,
        "minFps": 118,
        "maxFps": 122,
        "totalFrames": 105,
        "frameRates": 120
      },
      {
        "trial_number": 85,
        "trial_index": 538,
        "rt": 965,
        "correct": true,
        "response": "ArrowRight",
        "congruent": true,
        "gazeTowards": false,
        "gazeCondition": "away",
        "faceOnLeft": true,
        "impliedDirection": 0,
        "testDirection": 0,
        "avgFps": 120,
        "minFps": 118,
        "maxFps": 122,
        "totalFrames": 116,
        "frameRates": 120
      },
      {
        "trial_number": 86,
        "trial_index": 543,
        "rt": 992,
        "correct": true,
        "response": "ArrowRight",
        "congruent": true,
        "gazeTowards": true,
        "gazeCondition": "towards",
        "faceOnLeft": true,
        "impliedDirection": 0,
        "testDirection": 0,
        "avgFps": 120,
        "minFps": 118,
        "maxFps": 122,
        "totalFrames": 119,
        "frameRates": 120
      },
      {
        "trial_number": 87,
        "trial_index": 548,
        "rt": 1038,
        "correct": true,
        "response": "ArrowLeft",
        "congruent": true,
        "gazeTowards": false,
        "gazeCondition": "away",
        "faceOnLeft": false,
        "impliedDirection": 180,
        "testDirection": 180,
        "avgFps": 120,
        "minFps": 118,
        "maxFps": 122,
        "totalFrames": 124,
        "frameRates": 120
      },
      {
        "trial_number": 88,
        "trial_index": 553,
        "rt": 771,
        "correct": true,
        "response": "ArrowRight",
        "congruent": false,
        "gazeTowards": true,
        "gazeCondition": "towards",
        "faceOnLeft": false,
        "impliedDirection": 180,
        "testDirection": 0,
        "avgFps": 120,
        "minFps": 119,
        "maxFps": 122,
        "totalFrames": 93,
        "frameRates": 120
      },
      {
        "trial_number": 89,
        "trial_index": 558,
        "rt": 1073,
        "correct": true,
        "response": "ArrowRight",
        "congruent": false,
        "gazeTowards": false,
        "gazeCondition": "away",
        "faceOnLeft": false,
        "impliedDirection": 180,
        "testDirection": 0,
        "avgFps": 120,
        "minFps": 119,
        "maxFps": 122,
        "totalFrames": 129,
        "frameRates": 120
      },
      {
        "trial_number": 90,
        "trial_index": 563,
        "rt": 1018,
        "correct": true,
        "response": "ArrowRight",
        "congruent": false,
        "gazeTowards": false,
        "gazeCondition": "away",
        "faceOnLeft": false,
        "impliedDirection": 180,
        "testDirection": 0,
        "avgFps": 120,
        "minFps": 119,
        "maxFps": 122,
        "totalFrames": 122,
        "frameRates": 120
      },
      {
        "trial_number": 91,
        "trial_index": 572,
        "rt": 830,
        "correct": true,
        "response": "ArrowLeft",
        "congruent": true,
        "gazeTowards": false,
        "gazeCondition": "away",
        "faceOnLeft": false,
        "impliedDirection": 180,
        "testDirection": 180,
        "avgFps": 120,
        "minFps": 118,
        "maxFps": 122,
        "totalFrames": 99,
        "frameRates": 120
      },
      {
        "trial_number": 92,
        "trial_index": 577,
        "rt": 617,
        "correct": true,
        "response": "ArrowRight",
        "congruent": false,
        "gazeTowards": true,
        "gazeCondition": "towards",
        "faceOnLeft": false,
        "impliedDirection": 180,
        "testDirection": 0,
        "avgFps": 120,
        "minFps": 119,
        "maxFps": 122,
        "totalFrames": 74,
        "frameRates": 120
      },
      {
        "trial_number": 93,
        "trial_index": 582,
        "rt": 945,
        "correct": true,
        "response": "ArrowRight",
        "congruent": true,
        "gazeTowards": false,
        "gazeCondition": "away",
        "faceOnLeft": true,
        "impliedDirection": 0,
        "testDirection": 0,
        "avgFps": 120,
        "minFps": 118,
        "maxFps": 122,
        "totalFrames": 114,
        "frameRates": 120
      },
      {
        "trial_number": 94,
        "trial_index": 587,
        "rt": 961,
        "correct": true,
        "response": "ArrowRight",
        "congruent": false,
        "gazeTowards": true,
        "gazeCondition": "towards",
        "faceOnLeft": false,
        "impliedDirection": 180,
        "testDirection": 0,
        "avgFps": 119,
        "minFps": 56,
        "maxFps": 137,
        "totalFrames": 115,
        "frameRates": 119
      },
      {
        "trial_number": 95,
        "trial_index": 592,
        "rt": 937,
        "correct": true,
        "response": "ArrowLeft",
        "congruent": true,
        "gazeTowards": true,
        "gazeCondition": "towards",
        "faceOnLeft": false,
        "impliedDirection": 180,
        "testDirection": 180,
        "avgFps": 120,
        "minFps": 119,
        "maxFps": 136,
        "totalFrames": 113,
        "frameRates": 120
      },
      {
        "trial_number": 96,
        "trial_index": 597,
        "rt": 915,
        "correct": true,
        "response": "ArrowRight",
        "congruent": false,
        "gazeTowards": true,
        "gazeCondition": "towards",
        "faceOnLeft": false,
        "impliedDirection": 180,
        "testDirection": 0,
        "avgFps": 120,
        "minFps": 118,
        "maxFps": 122,
        "totalFrames": 110,
        "frameRates": 120
      },
      {
        "trial_number": 97,
        "trial_index": 602,
        "rt": 1047,
        "correct": true,
        "response": "ArrowRight",
        "congruent": false,
        "gazeTowards": true,
        "gazeCondition": "towards",
        "faceOnLeft": false,
        "impliedDirection": 180,
        "testDirection": 0,
        "avgFps": 120,
        "minFps": 118,
        "maxFps": 122,
        "totalFrames": 125,
        "frameRates": 120
      },
      {
        "trial_number": 98,
        "trial_index": 607,
        "rt": 991,
        "correct": true,
        "response": "ArrowLeft",
        "congruent": false,
        "gazeTowards": false,
        "gazeCondition": "away",
        "faceOnLeft": true,
        "impliedDirection": 0,
        "testDirection": 180,
        "avgFps": 120,
        "minFps": 118,
        "maxFps": 122,
        "totalFrames": 119,
        "frameRates": 120
      },
      {
        "trial_number": 99,
        "trial_index": 615,
        "rt": 1025,
        "correct": true,
        "response": "ArrowLeft",
        "congruent": false,
        "gazeTowards": true,
        "gazeCondition": "towards",
        "faceOnLeft": true,
        "impliedDirection": 0,
        "testDirection": 180,
        "avgFps": 120,
        "minFps": 119,
        "maxFps": 122,
        "totalFrames": 123,
        "frameRates": 120
      },
      {
        "trial_number": 100,
        "trial_index": 620,
        "rt": 897,
        "correct": true,
        "response": "ArrowLeft",
        "congruent": true,
        "gazeTowards": false,
        "gazeCondition": "away",
        "faceOnLeft": false,
        "impliedDirection": 180,
        "testDirection": 180,
        "avgFps": 120,
        "minFps": 119,
        "maxFps": 122,
        "totalFrames": 108,
        "frameRates": 120
      },
      {
        "trial_number": 101,
        "trial_index": 625,
        "rt": 855,
        "correct": true,
        "response": "ArrowLeft",
        "congruent": true,
        "gazeTowards": false,
        "gazeCondition": "away",
        "faceOnLeft": false,
        "impliedDirection": 180,
        "testDirection": 180,
        "avgFps": 120,
        "minFps": 119,
        "maxFps": 122,
        "totalFrames": 103,
        "frameRates": 120
      },
      {
        "trial_number": 102,
        "trial_index": 630,
        "rt": 725,
        "correct": true,
        "response": "ArrowLeft",
        "congruent": false,
        "gazeTowards": true,
        "gazeCondition": "towards",
        "faceOnLeft": true,
        "impliedDirection": 0,
        "testDirection": 180,
        "avgFps": 120,
        "minFps": 118,
        "maxFps": 122,
        "totalFrames": 87,
        "frameRates": 120
      },
      {
        "trial_number": 103,
        "trial_index": 638,
        "rt": 1010,
        "correct": true,
        "response": "ArrowLeft",
        "congruent": false,
        "gazeTowards": true,
        "gazeCondition": "towards",
        "faceOnLeft": true,
        "impliedDirection": 0,
        "testDirection": 180,
        "avgFps": 120,
        "minFps": 118,
        "maxFps": 122,
        "totalFrames": 121,
        "frameRates": 120
      },
      {
        "trial_number": 104,
        "trial_index": 643,
        "rt": 740,
        "correct": true,
        "response": "ArrowLeft",
        "congruent": false,
        "gazeTowards": true,
        "gazeCondition": "towards",
        "faceOnLeft": true,
        "impliedDirection": 0,
        "testDirection": 180,
        "avgFps": 120,
        "minFps": 119,
        "maxFps": 122,
        "totalFrames": 89,
        "frameRates": 120
      },
      {
        "trial_number": 105,
        "trial_index": 648,
        "rt": 775,
        "correct": true,
        "response": "ArrowRight",
        "congruent": false,
        "gazeTowards": true,
        "gazeCondition": "towards",
        "faceOnLeft": false,
        "impliedDirection": 180,
        "testDirection": 0,
        "avgFps": 120,
        "minFps": 119,
        "maxFps": 122,
        "totalFrames": 93,
        "frameRates": 120
      },
      {
        "trial_number": 106,
        "trial_index": 653,
        "rt": 726,
        "correct": true,
        "response": "ArrowLeft",
        "congruent": false,
        "gazeTowards": false,
        "gazeCondition": "away",
        "faceOnLeft": true,
        "impliedDirection": 0,
        "testDirection": 180,
        "avgFps": 120,
        "minFps": 118,
        "maxFps": 122,
        "totalFrames": 87,
        "frameRates": 120
      },
      {
        "trial_number": 107,
        "trial_index": 658,
        "rt": 703,
        "correct": true,
        "response": "ArrowLeft",
        "congruent": true,
        "gazeTowards": false,
        "gazeCondition": "away",
        "faceOnLeft": false,
        "impliedDirection": 180,
        "testDirection": 180,
        "avgFps": 120,
        "minFps": 119,
        "maxFps": 122,
        "totalFrames": 84,
        "frameRates": 120
      },
      {
        "trial_number": 108,
        "trial_index": 663,
        "rt": 752,
        "correct": true,
        "response": "ArrowRight",
        "congruent": false,
        "gazeTowards": true,
        "gazeCondition": "towards",
        "faceOnLeft": false,
        "impliedDirection": 180,
        "testDirection": 0,
        "avgFps": 120,
        "minFps": 118,
        "maxFps": 122,
        "totalFrames": 90,
        "frameRates": 120
      },
      {
        "trial_number": 109,
        "trial_index": 668,
        "rt": 727,
        "correct": true,
        "response": "ArrowLeft",
        "congruent": false,
        "gazeTowards": true,
        "gazeCondition": "towards",
        "faceOnLeft": true,
        "impliedDirection": 0,
        "testDirection": 180,
        "avgFps": 120,
        "minFps": 118,
        "maxFps": 122,
        "totalFrames": 87,
        "frameRates": 120
      },
      {
        "trial_number": 110,
        "trial_index": 673,
        "rt": 755,
        "correct": true,
        "response": "ArrowLeft",
        "congruent": true,
        "gazeTowards": true,
        "gazeCondition": "towards",
        "faceOnLeft": false,
        "impliedDirection": 180,
        "testDirection": 180,
        "avgFps": 119,
        "minFps": 56,
        "maxFps": 141,
        "totalFrames": 90,
        "frameRates": 119
      },
      {
        "trial_number": 111,
        "trial_index": 681,
        "rt": 649,
        "correct": true,
        "response": "ArrowLeft",
        "congruent": true,
        "gazeTowards": false,
        "gazeCondition": "away",
        "faceOnLeft": false,
        "impliedDirection": 180,
        "testDirection": 180,
        "avgFps": 120,
        "minFps": 118,
        "maxFps": 122,
        "totalFrames": 77,
        "frameRates": 120
      },
      {
        "trial_number": 112,
        "trial_index": 686,
        "rt": 864,
        "correct": true,
        "response": "ArrowRight",
        "congruent": false,
        "gazeTowards": false,
        "gazeCondition": "away",
        "faceOnLeft": false,
        "impliedDirection": 180,
        "testDirection": 0,
        "avgFps": 120,
        "minFps": 119,
        "maxFps": 122,
        "totalFrames": 104,
        "frameRates": 120
      },
      {
        "trial_number": 113,
        "trial_index": 691,
        "rt": 1165,
        "correct": true,
        "response": "ArrowRight",
        "congruent": false,
        "gazeTowards": true,
        "gazeCondition": "towards",
        "faceOnLeft": false,
        "impliedDirection": 180,
        "testDirection": 0,
        "avgFps": 120,
        "minFps": 119,
        "maxFps": 122,
        "totalFrames": 140,
        "frameRates": 120
      },
      {
        "trial_number": 114,
        "trial_index": 696,
        "rt": 696,
        "correct": true,
        "response": "ArrowLeft",
        "congruent": true,
        "gazeTowards": false,
        "gazeCondition": "away",
        "faceOnLeft": false,
        "impliedDirection": 180,
        "testDirection": 180,
        "avgFps": 120,
        "minFps": 119,
        "maxFps": 122,
        "totalFrames": 84,
        "frameRates": 120
      },
      {
        "trial_number": 115,
        "trial_index": 701,
        "rt": 1221,
        "correct": true,
        "response": "ArrowLeft",
        "congruent": false,
        "gazeTowards": false,
        "gazeCondition": "away",
        "faceOnLeft": true,
        "impliedDirection": 0,
        "testDirection": 180,
        "avgFps": 120,
        "minFps": 118,
        "maxFps": 122,
        "totalFrames": 146,
        "frameRates": 120
      },
      {
        "trial_number": 116,
        "trial_index": 706,
        "rt": 879,
        "correct": true,
        "response": "ArrowRight",
        "congruent": true,
        "gazeTowards": true,
        "gazeCondition": "towards",
        "faceOnLeft": true,
        "impliedDirection": 0,
        "testDirection": 0,
        "avgFps": 120,
        "minFps": 118,
        "maxFps": 122,
        "totalFrames": 106,
        "frameRates": 120
      },
      {
        "trial_number": 117,
        "trial_index": 714,
        "rt": 1093,
        "correct": true,
        "response": "ArrowRight",
        "congruent": false,
        "gazeTowards": false,
        "gazeCondition": "away",
        "faceOnLeft": false,
        "impliedDirection": 180,
        "testDirection": 0,
        "avgFps": 120,
        "minFps": 119,
        "maxFps": 122,
        "totalFrames": 131,
        "frameRates": 120
      },
      {
        "trial_number": 118,
        "trial_index": 719,
        "rt": 1284,
        "correct": true,
        "response": "ArrowRight",
        "congruent": false,
        "gazeTowards": true,
        "gazeCondition": "towards",
        "faceOnLeft": false,
        "impliedDirection": 180,
        "testDirection": 0,
        "avgFps": 120,
        "minFps": 119,
        "maxFps": 122,
        "totalFrames": 154,
        "frameRates": 120
      },
      {
        "trial_number": 119,
        "trial_index": 724,
        "rt": 1391,
        "correct": true,
        "response": "ArrowLeft",
        "congruent": true,
        "gazeTowards": true,
        "gazeCondition": "towards",
        "faceOnLeft": false,
        "impliedDirection": 180,
        "testDirection": 180,
        "avgFps": 120,
        "minFps": 118,
        "maxFps": 122,
        "totalFrames": 167,
        "frameRates": 120
      }
    ],
    "catch": {
      "total": 12,
      "correct": 12,
      "accuracy": 100,
      "meanRT": 683,
      "trials": [
        {
          "trial_number": 0,
          "trial_index": 159,
          "rt": 674,
          "correct": true,
          "colorTarget": "face",
          "gazeTowards": true,
          "gazeCondition": "towards",
          "faceOnLeft": true
        },
        {
          "trial_number": 1,
          "trial_index": 177,
          "rt": 451,
          "correct": true,
          "colorTarget": "tree",
          "gazeTowards": true,
          "gazeCondition": "towards",
          "faceOnLeft": false
        },
        {
          "trial_number": 2,
          "trial_index": 185,
          "rt": 618,
          "correct": true,
          "colorTarget": "tree",
          "gazeTowards": false,
          "gazeCondition": "away",
          "faceOnLeft": false
        },
        {
          "trial_number": 3,
          "trial_index": 213,
          "rt": 1044,
          "correct": true,
          "colorTarget": "face",
          "gazeTowards": false,
          "gazeCondition": "away",
          "faceOnLeft": true
        },
        {
          "trial_number": 4,
          "trial_index": 226,
          "rt": 760,
          "correct": true,
          "colorTarget": "face",
          "gazeTowards": false,
          "gazeCondition": "away",
          "faceOnLeft": true
        },
        {
          "trial_number": 5,
          "trial_index": 340,
          "rt": 721,
          "correct": true,
          "colorTarget": "face",
          "gazeTowards": false,
          "gazeCondition": "away",
          "faceOnLeft": true
        },
        {
          "trial_number": 6,
          "trial_index": 343,
          "rt": 588,
          "correct": true,
          "colorTarget": "tree",
          "gazeTowards": false,
          "gazeCondition": "away",
          "faceOnLeft": true
        },
        {
          "trial_number": 7,
          "trial_index": 567,
          "rt": 559,
          "correct": true,
          "colorTarget": "tree",
          "gazeTowards": false,
          "gazeCondition": "away",
          "faceOnLeft": false
        },
        {
          "trial_number": 8,
          "trial_index": 611,
          "rt": 625,
          "correct": true,
          "colorTarget": "face",
          "gazeTowards": true,
          "gazeCondition": "towards",
          "faceOnLeft": true
        },
        {
          "trial_number": 9,
          "trial_index": 634,
          "rt": 840,
          "correct": true,
          "colorTarget": "tree",
          "gazeTowards": true,
          "gazeCondition": "towards",
          "faceOnLeft": true
        },
        {
          "trial_number": 10,
          "trial_index": 677,
          "rt": 573,
          "correct": true,
          "colorTarget": "tree",
          "gazeTowards": true,
          "gazeCondition": "towards",
          "faceOnLeft": true
        },
        {
          "trial_number": 11,
          "trial_index": 710,
          "rt": 743,
          "correct": true,
          "colorTarget": "face",
          "gazeTowards": true,
          "gazeCondition": "towards",
          "faceOnLeft": false
        }
      ]
    },
    "practice": {
      "trials": [
        {
          "trial_number": 0,
          "rt": null,
          "correct": false,
          "direction": 180
        },
        {
          "trial_number": 1,
          "rt": 1470,
          "correct": true,
          "direction": 180
        },
        {
          "trial_number": 2,
          "rt": null,
          "correct": false,
          "direction": 180
        },
        {
          "trial_number": 3,
          "rt": 1122,
          "correct": false,
          "direction": 180
        },
        {
          "trial_number": 4,
          "rt": 1229,
          "correct": true,
          "direction": 0
        },
        {
          "trial_number": 5,
          "rt": 1222,
          "correct": true,
          "direction": 180
        },
        {
          "trial_number": 6,
          "rt": 1017,
          "correct": true,
          "direction": 180
        },
        {
          "trial_number": 7,
          "rt": 847,
          "correct": true,
          "direction": 180
        },
        {
          "trial_number": 8,
          "rt": 942,
          "correct": false,
          "direction": 180
        },
        {
          "trial_number": 9,
          "rt": 744,
          "correct": true,
          "direction": 180
        },
        {
          "trial_number": 10,
          "rt": 861,
          "correct": true,
          "direction": 180
        },
        {
          "trial_number": 11,
          "rt": 763,
          "correct": true,
          "direction": 180
        },
        {
          "trial_number": 12,
          "rt": 566,
          "correct": true,
          "direction": 180
        },
        {
          "trial_number": 13,
          "rt": 854,
          "correct": true,
          "direction": 180
        },
        {
          "trial_number": 14,
          "rt": 491,
          "correct": true,
          "direction": 0
        },
        {
          "trial_number": 15,
          "rt": 564,
          "correct": true,
          "direction": 180
        },
        {
          "trial_number": 16,
          "rt": 682,
          "correct": true,
          "direction": 180
        },
        {
          "trial_number": 17,
          "rt": 569,
          "correct": true,
          "direction": 180
        },
        {
          "trial_number": 18,
          "rt": 629,
          "correct": true,
          "direction": 180
        },
        {
          "trial_number": 19,
          "rt": 627,
          "correct": true,
          "direction": 180
        }
      ],
      "meanRT": 844,
      "accuracy": 80
    }
  }
}