{
  "experiment": "rdk-face-1",
  "UUID": "4f17f6e1-f62a-4cd7-972b-37532bbecc51",
  "data": {
    "session": {
      "experiment_version": "1.8.6",
      "treatment": "faces_towards_away_catch",
      "file_version": "1.8.6",
      "totalTrials": 120,
      "totalTrialsIncludingCatch": 132,
      "conditions": {
        "gazeTowardsCount": 60,
        "gazeAwayCount": 60,
        "gazeTowardsAccuracy": 95,
        "gazeAwayAccuracy": 93
      },
      "session_group": "default",
      "browserData": {
        "os": "Linux",
        "browser": "Firefox",
        "screenResolution": "1920x1080",
        "browserViewport": "1920x1080",
        "devicePixelRatio": 1,
        "colorDepth": 24,
        "hardwareConcurrency": 8,
        "deviceMemory": "Unknown",
        "gpuRenderer": "Intel 945GM, or similar",
        "measuredRefreshRateHz": 59
      },
      "attention": {
        "visibilityEvents": []
      },
      "calibration": {
        "monitorWidthCm": 38,
        "viewingDistanceCm": 54,
        "pixelsPerDegree": 50
      },
      "parameters": {
        "coherence": 0.4,
        "apertureDeg": 5,
        "densityDotsPerDeg2": 40,
        "dotDiameterDeg": 0.035,
        "dotSpeedDegPerSec": 3,
        "lifetimeMs": 200,
        "fixationDurationMs": 1500,
        "faceDurationMs": 1500,
        "testDurationMs": 2000,
        "catchResponseMs": 3000
      },
      "prolific": {
        "prolificPid": "5d453e8723a5bb0001492546",
        "studyId": "",
        "sessionId": ""
      },
      "timing": {
        "startTime": "2026-03-06T04:19:45.957Z",
        "endTime": "2026-03-06T07:14:01.665Z",
        "totalElapsedTimeMs": 10455708
      }
    },
    "trials": [
      {
        "trial_number": 0,
        "trial_index": 49,
        "rt": 1467,
        "correct": true,
        "response": "ArrowRight",
        "congruent": false,
        "gazeTowards": false,
        "gazeCondition": "away",
        "faceOnLeft": false,
        "impliedDirection": 180,
        "testDirection": 0,
        "avgFps": 61,
        "minFps": 58,
        "maxFps": 10000,
        "totalFrames": 89,
        "frameRates": 61
      },
      {
        "trial_number": 1,
        "trial_index": 54,
        "rt": 1812,
        "correct": true,
        "response": "ArrowRight",
        "congruent": true,
        "gazeTowards": false,
        "gazeCondition": "away",
        "faceOnLeft": true,
        "impliedDirection": 0,
        "testDirection": 0,
        "avgFps": 61,
        "minFps": 58,
        "maxFps": 7143,
        "totalFrames": 109,
        "frameRates": 61
      },
      {
        "trial_number": 2,
        "trial_index": 59,
        "rt": 1015,
        "correct": true,
        "response": "ArrowLeft",
        "congruent": true,
        "gazeTowards": false,
        "gazeCondition": "away",
        "faceOnLeft": false,
        "impliedDirection": 180,
        "testDirection": 180,
        "avgFps": 58,
        "minFps": 30,
        "maxFps": 260,
        "totalFrames": 58,
        "frameRates": 58
      },
      {
        "trial_number": 3,
        "trial_index": 64,
        "rt": 1489,
        "correct": true,
        "response": "ArrowRight",
        "congruent": false,
        "gazeTowards": false,
        "gazeCondition": "away",
        "faceOnLeft": false,
        "impliedDirection": 180,
        "testDirection": 0,
        "avgFps": 61,
        "minFps": 58,
        "maxFps": 6250,
        "totalFrames": 90,
        "frameRates": 61
      },
      {
        "trial_number": 4,
        "trial_index": 69,
        "rt": 1259,
        "correct": true,
        "response": "ArrowLeft",
        "congruent": false,
        "gazeTowards": false,
        "gazeCondition": "away",
        "faceOnLeft": true,
        "impliedDirection": 0,
        "testDirection": 180,
        "avgFps": 61,
        "minFps": 58,
        "maxFps": 6250,
        "totalFrames": 76,
        "frameRates": 61
      },
      {
        "trial_number": 5,
        "trial_index": 74,
        "rt": null,
        "correct": false,
        "response": null,
        "congruent": true,
        "gazeTowards": true,
        "gazeCondition": "towards",
        "faceOnLeft": true,
        "impliedDirection": 0,
        "testDirection": 0,
        "avgFps": 61,
        "minFps": 58,
        "maxFps": 6250,
        "totalFrames": 121,
        "frameRates": 61
      },
      {
        "trial_number": 6,
        "trial_index": 79,
        "rt": 634,
        "correct": true,
        "response": "ArrowLeft",
        "congruent": false,
        "gazeTowards": false,
        "gazeCondition": "away",
        "faceOnLeft": true,
        "impliedDirection": 0,
        "testDirection": 180,
        "avgFps": 62,
        "minFps": 58,
        "maxFps": 7143,
        "totalFrames": 39,
        "frameRates": 62
      },
      {
        "trial_number": 7,
        "trial_index": 84,
        "rt": 1126,
        "correct": true,
        "response": "ArrowLeft",
        "congruent": true,
        "gazeTowards": true,
        "gazeCondition": "towards",
        "faceOnLeft": false,
        "impliedDirection": 180,
        "testDirection": 180,
        "avgFps": 61,
        "minFps": 58,
        "maxFps": 12500,
        "totalFrames": 68,
        "frameRates": 61
      },
      {
        "trial_number": 8,
        "trial_index": 89,
        "rt": 1348,
        "correct": true,
        "response": "ArrowRight",
        "congruent": true,
        "gazeTowards": false,
        "gazeCondition": "away",
        "faceOnLeft": true,
        "impliedDirection": 0,
        "testDirection": 0,
        "avgFps": 61,
        "minFps": 58,
        "maxFps": 7143,
        "totalFrames": 81,
        "frameRates": 61
      },
      {
        "trial_number": 9,
        "trial_index": 97,
        "rt": 686,
        "correct": true,
        "response": "ArrowLeft",
        "congruent": true,
        "gazeTowards": false,
        "gazeCondition": "away",
        "faceOnLeft": false,
        "impliedDirection": 180,
        "testDirection": 180,
        "avgFps": 62,
        "minFps": 58,
        "maxFps": 7143,
        "totalFrames": 42,
        "frameRates": 62
      },
      {
        "trial_number": 10,
        "trial_index": 102,
        "rt": 1138,
        "correct": true,
        "response": "ArrowRight",
        "congruent": false,
        "gazeTowards": false,
        "gazeCondition": "away",
        "faceOnLeft": false,
        "impliedDirection": 180,
        "testDirection": 0,
        "avgFps": 61,
        "minFps": 58,
        "maxFps": 7143,
        "totalFrames": 69,
        "frameRates": 61
      },
      {
        "trial_number": 11,
        "trial_index": 107,
        "rt": 1295,
        "correct": true,
        "response": "ArrowRight",
        "congruent": true,
        "gazeTowards": true,
        "gazeCondition": "towards",
        "faceOnLeft": true,
        "impliedDirection": 0,
        "testDirection": 0,
        "avgFps": 61,
        "minFps": 58,
        "maxFps": 7143,
        "totalFrames": 78,
        "frameRates": 61
      },
      {
        "trial_number": 12,
        "trial_index": 112,
        "rt": 894,
        "correct": true,
        "response": "ArrowLeft",
        "congruent": true,
        "gazeTowards": true,
        "gazeCondition": "towards",
        "faceOnLeft": false,
        "impliedDirection": 180,
        "testDirection": 180,
        "avgFps": 61,
        "minFps": 58,
        "maxFps": 8333,
        "totalFrames": 54,
        "frameRates": 61
      },
      {
        "trial_number": 13,
        "trial_index": 117,
        "rt": 946,
        "correct": true,
        "response": "ArrowLeft",
        "congruent": true,
        "gazeTowards": true,
        "gazeCondition": "towards",
        "faceOnLeft": false,
        "impliedDirection": 180,
        "testDirection": 180,
        "avgFps": 60,
        "minFps": 58,
        "maxFps": 67,
        "totalFrames": 56,
        "frameRates": 60
      },
      {
        "trial_number": 14,
        "trial_index": 122,
        "rt": 1396,
        "correct": true,
        "response": "ArrowRight",
        "congruent": true,
        "gazeTowards": false,
        "gazeCondition": "away",
        "faceOnLeft": true,
        "impliedDirection": 0,
        "testDirection": 0,
        "avgFps": 61,
        "minFps": 58,
        "maxFps": 8333,
        "totalFrames": 84,
        "frameRates": 61
      },
      {
        "trial_number": 15,
        "trial_index": 127,
        "rt": 613,
        "correct": true,
        "response": "ArrowLeft",
        "congruent": false,
        "gazeTowards": true,
        "gazeCondition": "towards",
        "faceOnLeft": true,
        "impliedDirection": 0,
        "testDirection": 180,
        "avgFps": 62,
        "minFps": 58,
        "maxFps": 5000,
        "totalFrames": 37,
        "frameRates": 62
      },
      {
        "trial_number": 16,
        "trial_index": 135,
        "rt": 1288,
        "correct": true,
        "response": "ArrowRight",
        "congruent": false,
        "gazeTowards": false,
        "gazeCondition": "away",
        "faceOnLeft": false,
        "impliedDirection": 180,
        "testDirection": 0,
        "avgFps": 60,
        "minFps": 30,
        "maxFps": 4167,
        "totalFrames": 77,
        "frameRates": 60
      },
      {
        "trial_number": 17,
        "trial_index": 140,
        "rt": 1222,
        "correct": true,
        "response": "ArrowRight",
        "congruent": false,
        "gazeTowards": true,
        "gazeCondition": "towards",
        "faceOnLeft": false,
        "impliedDirection": 180,
        "testDirection": 0,
        "avgFps": 61,
        "minFps": 58,
        "maxFps": 5556,
        "totalFrames": 74,
        "frameRates": 61
      },
      {
        "trial_number": 18,
        "trial_index": 145,
        "rt": 1156,
        "correct": true,
        "response": "ArrowLeft",
        "congruent": false,
        "gazeTowards": false,
        "gazeCondition": "away",
        "faceOnLeft": true,
        "impliedDirection": 0,
        "testDirection": 180,
        "avgFps": 61,
        "minFps": 58,
        "maxFps": 8333,
        "totalFrames": 70,
        "frameRates": 61
      },
      {
        "trial_number": 19,
        "trial_index": 150,
        "rt": 794,
        "correct": true,
        "response": "ArrowLeft",
        "congruent": false,
        "gazeTowards": false,
        "gazeCondition": "away",
        "faceOnLeft": true,
        "impliedDirection": 0,
        "testDirection": 180,
        "avgFps": 61,
        "minFps": 58,
        "maxFps": 3571,
        "totalFrames": 48,
        "frameRates": 61
      },
      {
        "trial_number": 20,
        "trial_index": 155,
        "rt": 702,
        "correct": true,
        "response": "ArrowLeft",
        "congruent": false,
        "gazeTowards": false,
        "gazeCondition": "away",
        "faceOnLeft": true,
        "impliedDirection": 0,
        "testDirection": 180,
        "avgFps": 60,
        "minFps": 56,
        "maxFps": 62,
        "totalFrames": 42,
        "frameRates": 60
      },
      {
        "trial_number": 21,
        "trial_index": 160,
        "rt": 594,
        "correct": true,
        "response": "ArrowLeft",
        "congruent": false,
        "gazeTowards": false,
        "gazeCondition": "away",
        "faceOnLeft": true,
        "impliedDirection": 0,
        "testDirection": 180,
        "avgFps": 62,
        "minFps": 58,
        "maxFps": 7143,
        "totalFrames": 36,
        "frameRates": 62
      },
      {
        "trial_number": 22,
        "trial_index": 165,
        "rt": 1338,
        "correct": true,
        "response": "ArrowRight",
        "congruent": true,
        "gazeTowards": true,
        "gazeCondition": "towards",
        "faceOnLeft": true,
        "impliedDirection": 0,
        "testDirection": 0,
        "avgFps": 61,
        "minFps": 58,
        "maxFps": 12500,
        "totalFrames": 81,
        "frameRates": 61
      },
      {
        "trial_number": 23,
        "trial_index": 170,
        "rt": 725,
        "correct": true,
        "response": "ArrowLeft",
        "congruent": true,
        "gazeTowards": false,
        "gazeCondition": "away",
        "faceOnLeft": false,
        "impliedDirection": 180,
        "testDirection": 180,
        "avgFps": 61,
        "minFps": 58,
        "maxFps": 6250,
        "totalFrames": 44,
        "frameRates": 61
      },
      {
        "trial_number": 24,
        "trial_index": 175,
        "rt": 635,
        "correct": true,
        "response": "ArrowLeft",
        "congruent": false,
        "gazeTowards": false,
        "gazeCondition": "away",
        "faceOnLeft": true,
        "impliedDirection": 0,
        "testDirection": 180,
        "avgFps": 62,
        "minFps": 58,
        "maxFps": 6250,
        "totalFrames": 39,
        "frameRates": 62
      },
      {
        "trial_number": 25,
        "trial_index": 180,
        "rt": 723,
        "correct": true,
        "response": "ArrowLeft",
        "congruent": false,
        "gazeTowards": false,
        "gazeCondition": "away",
        "faceOnLeft": true,
        "impliedDirection": 0,
        "testDirection": 180,
        "avgFps": 61,
        "minFps": 58,
        "maxFps": 7143,
        "totalFrames": 44,
        "frameRates": 61
      },
      {
        "trial_number": 26,
        "trial_index": 185,
        "rt": 960,
        "correct": true,
        "response": "ArrowRight",
        "congruent": true,
        "gazeTowards": false,
        "gazeCondition": "away",
        "faceOnLeft": true,
        "impliedDirection": 0,
        "testDirection": 0,
        "avgFps": 61,
        "minFps": 58,
        "maxFps": 6250,
        "totalFrames": 58,
        "frameRates": 61
      },
      {
        "trial_number": 27,
        "trial_index": 190,
        "rt": 1007,
        "correct": true,
        "response": "ArrowRight",
        "congruent": true,
        "gazeTowards": true,
        "gazeCondition": "towards",
        "faceOnLeft": true,
        "impliedDirection": 0,
        "testDirection": 0,
        "avgFps": 61,
        "minFps": 58,
        "maxFps": 8333,
        "totalFrames": 61,
        "frameRates": 61
      },
      {
        "trial_number": 28,
        "trial_index": 195,
        "rt": 1167,
        "correct": true,
        "response": "ArrowRight",
        "congruent": true,
        "gazeTowards": true,
        "gazeCondition": "towards",
        "faceOnLeft": true,
        "impliedDirection": 0,
        "testDirection": 0,
        "avgFps": 61,
        "minFps": 58,
        "maxFps": 6250,
        "totalFrames": 71,
        "frameRates": 61
      },
      {
        "trial_number": 29,
        "trial_index": 200,
        "rt": 1233,
        "correct": true,
        "response": "ArrowRight",
        "congruent": true,
        "gazeTowards": false,
        "gazeCondition": "away",
        "faceOnLeft": true,
        "impliedDirection": 0,
        "testDirection": 0,
        "avgFps": 59,
        "minFps": 30,
        "maxFps": 87,
        "totalFrames": 73,
        "frameRates": 59
      },
      {
        "trial_number": 30,
        "trial_index": 205,
        "rt": 672,
        "correct": true,
        "response": "ArrowLeft",
        "congruent": false,
        "gazeTowards": false,
        "gazeCondition": "away",
        "faceOnLeft": true,
        "impliedDirection": 0,
        "testDirection": 180,
        "avgFps": 62,
        "minFps": 58,
        "maxFps": 5556,
        "totalFrames": 41,
        "frameRates": 62
      },
      {
        "trial_number": 31,
        "trial_index": 211,
        "rt": 1077,
        "correct": true,
        "response": "ArrowRight",
        "congruent": true,
        "gazeTowards": false,
        "gazeCondition": "away",
        "faceOnLeft": true,
        "impliedDirection": 0,
        "testDirection": 0,
        "avgFps": 61,
        "minFps": 58,
        "maxFps": 10000,
        "totalFrames": 65,
        "frameRates": 61
      },
      {
        "trial_number": 32,
        "trial_index": 216,
        "rt": 593,
        "correct": true,
        "response": "ArrowLeft",
        "congruent": false,
        "gazeTowards": true,
        "gazeCondition": "towards",
        "faceOnLeft": true,
        "impliedDirection": 0,
        "testDirection": 180,
        "avgFps": 62,
        "minFps": 58,
        "maxFps": 7143,
        "totalFrames": 36,
        "frameRates": 62
      },
      {
        "trial_number": 33,
        "trial_index": 221,
        "rt": 1062,
        "correct": true,
        "response": "ArrowRight",
        "congruent": true,
        "gazeTowards": false,
        "gazeCondition": "away",
        "faceOnLeft": true,
        "impliedDirection": 0,
        "testDirection": 0,
        "avgFps": 61,
        "minFps": 58,
        "maxFps": 5000,
        "totalFrames": 64,
        "frameRates": 61
      },
      {
        "trial_number": 34,
        "trial_index": 226,
        "rt": 1410,
        "correct": false,
        "response": "ArrowLeft",
        "congruent": false,
        "gazeTowards": false,
        "gazeCondition": "away",
        "faceOnLeft": false,
        "impliedDirection": 180,
        "testDirection": 0,
        "avgFps": 61,
        "minFps": 58,
        "maxFps": 7143,
        "totalFrames": 85,
        "frameRates": 61
      },
      {
        "trial_number": 35,
        "trial_index": 231,
        "rt": 910,
        "correct": true,
        "response": "ArrowLeft",
        "congruent": false,
        "gazeTowards": true,
        "gazeCondition": "towards",
        "faceOnLeft": true,
        "impliedDirection": 0,
        "testDirection": 180,
        "avgFps": 59,
        "minFps": 26,
        "maxFps": 62,
        "totalFrames": 53,
        "frameRates": 59
      },
      {
        "trial_number": 36,
        "trial_index": 236,
        "rt": 817,
        "correct": true,
        "response": "ArrowLeft",
        "congruent": false,
        "gazeTowards": true,
        "gazeCondition": "towards",
        "faceOnLeft": true,
        "impliedDirection": 0,
        "testDirection": 180,
        "avgFps": 61,
        "minFps": 58,
        "maxFps": 6250,
        "totalFrames": 50,
        "frameRates": 61
      },
      {
        "trial_number": 37,
        "trial_index": 241,
        "rt": 795,
        "correct": true,
        "response": "ArrowLeft",
        "congruent": true,
        "gazeTowards": true,
        "gazeCondition": "towards",
        "faceOnLeft": false,
        "impliedDirection": 180,
        "testDirection": 180,
        "avgFps": 61,
        "minFps": 57,
        "maxFps": 7143,
        "totalFrames": 48,
        "frameRates": 61
      },
      {
        "trial_number": 38,
        "trial_index": 246,
        "rt": 1048,
        "correct": true,
        "response": "ArrowLeft",
        "congruent": true,
        "gazeTowards": true,
        "gazeCondition": "towards",
        "faceOnLeft": false,
        "impliedDirection": 180,
        "testDirection": 180,
        "avgFps": 61,
        "minFps": 58,
        "maxFps": 7143,
        "totalFrames": 63,
        "frameRates": 61
      },
      {
        "trial_number": 39,
        "trial_index": 257,
        "rt": 1573,
        "correct": true,
        "response": "ArrowRight",
        "congruent": true,
        "gazeTowards": false,
        "gazeCondition": "away",
        "faceOnLeft": true,
        "impliedDirection": 0,
        "testDirection": 0,
        "avgFps": 61,
        "minFps": 58,
        "maxFps": 5000,
        "totalFrames": 95,
        "frameRates": 61
      },
      {
        "trial_number": 40,
        "trial_index": 262,
        "rt": 1373,
        "correct": true,
        "response": "ArrowRight",
        "congruent": false,
        "gazeTowards": false,
        "gazeCondition": "away",
        "faceOnLeft": false,
        "impliedDirection": 180,
        "testDirection": 0,
        "avgFps": 61,
        "minFps": 58,
        "maxFps": 8333,
        "totalFrames": 83,
        "frameRates": 61
      },
      {
        "trial_number": 41,
        "trial_index": 267,
        "rt": 921,
        "correct": true,
        "response": "ArrowLeft",
        "congruent": false,
        "gazeTowards": true,
        "gazeCondition": "towards",
        "faceOnLeft": true,
        "impliedDirection": 0,
        "testDirection": 180,
        "avgFps": 61,
        "minFps": 58,
        "maxFps": 10000,
        "totalFrames": 56,
        "frameRates": 61
      },
      {
        "trial_number": 42,
        "trial_index": 272,
        "rt": 1054,
        "correct": true,
        "response": "ArrowRight",
        "congruent": false,
        "gazeTowards": false,
        "gazeCondition": "away",
        "faceOnLeft": false,
        "impliedDirection": 180,
        "testDirection": 0,
        "avgFps": 61,
        "minFps": 58,
        "maxFps": 7143,
        "totalFrames": 64,
        "frameRates": 61
      },
      {
        "trial_number": 43,
        "trial_index": 277,
        "rt": 1700,
        "correct": false,
        "response": "ArrowLeft",
        "congruent": false,
        "gazeTowards": true,
        "gazeCondition": "towards",
        "faceOnLeft": false,
        "impliedDirection": 180,
        "testDirection": 0,
        "avgFps": 61,
        "minFps": 58,
        "maxFps": 10000,
        "totalFrames": 103,
        "frameRates": 61
      },
      {
        "trial_number": 44,
        "trial_index": 282,
        "rt": 1719,
        "correct": true,
        "response": "ArrowLeft",
        "congruent": true,
        "gazeTowards": true,
        "gazeCondition": "towards",
        "faceOnLeft": false,
        "impliedDirection": 180,
        "testDirection": 180,
        "avgFps": 61,
        "minFps": 58,
        "maxFps": 7143,
        "totalFrames": 104,
        "frameRates": 61
      },
      {
        "trial_number": 45,
        "trial_index": 293,
        "rt": 1343,
        "correct": true,
        "response": "ArrowRight",
        "congruent": true,
        "gazeTowards": true,
        "gazeCondition": "towards",
        "faceOnLeft": true,
        "impliedDirection": 0,
        "testDirection": 0,
        "avgFps": 61,
        "minFps": 58,
        "maxFps": 10000,
        "totalFrames": 81,
        "frameRates": 61
      },
      {
        "trial_number": 46,
        "trial_index": 298,
        "rt": 600,
        "correct": true,
        "response": "ArrowLeft",
        "congruent": false,
        "gazeTowards": false,
        "gazeCondition": "away",
        "faceOnLeft": true,
        "impliedDirection": 0,
        "testDirection": 180,
        "avgFps": 62,
        "minFps": 58,
        "maxFps": 7143,
        "totalFrames": 37,
        "frameRates": 62
      },
      {
        "trial_number": 47,
        "trial_index": 306,
        "rt": 848,
        "correct": true,
        "response": "ArrowLeft",
        "congruent": true,
        "gazeTowards": true,
        "gazeCondition": "towards",
        "faceOnLeft": false,
        "impliedDirection": 180,
        "testDirection": 180,
        "avgFps": 61,
        "minFps": 58,
        "maxFps": 6250,
        "totalFrames": 51,
        "frameRates": 61
      },
      {
        "trial_number": 48,
        "trial_index": 311,
        "rt": 1238,
        "correct": true,
        "response": "ArrowRight",
        "congruent": true,
        "gazeTowards": true,
        "gazeCondition": "towards",
        "faceOnLeft": true,
        "impliedDirection": 0,
        "testDirection": 0,
        "avgFps": 61,
        "minFps": 58,
        "maxFps": 7143,
        "totalFrames": 75,
        "frameRates": 61
      },
      {
        "trial_number": 49,
        "trial_index": 316,
        "rt": 1473,
        "correct": true,
        "response": "ArrowLeft",
        "congruent": true,
        "gazeTowards": false,
        "gazeCondition": "away",
        "faceOnLeft": false,
        "impliedDirection": 180,
        "testDirection": 180,
        "avgFps": 61,
        "minFps": 58,
        "maxFps": 10000,
        "totalFrames": 89,
        "frameRates": 61
      },
      {
        "trial_number": 50,
        "trial_index": 321,
        "rt": 982,
        "correct": true,
        "response": "ArrowRight",
        "congruent": false,
        "gazeTowards": true,
        "gazeCondition": "towards",
        "faceOnLeft": false,
        "impliedDirection": 180,
        "testDirection": 0,
        "avgFps": 61,
        "minFps": 58,
        "maxFps": 10000,
        "totalFrames": 60,
        "frameRates": 61
      },
      {
        "trial_number": 51,
        "trial_index": 326,
        "rt": 720,
        "correct": true,
        "response": "ArrowLeft",
        "congruent": false,
        "gazeTowards": false,
        "gazeCondition": "away",
        "faceOnLeft": true,
        "impliedDirection": 0,
        "testDirection": 180,
        "avgFps": 62,
        "minFps": 58,
        "maxFps": 7143,
        "totalFrames": 44,
        "frameRates": 62
      },
      {
        "trial_number": 52,
        "trial_index": 331,
        "rt": 779,
        "correct": true,
        "response": "ArrowLeft",
        "congruent": false,
        "gazeTowards": false,
        "gazeCondition": "away",
        "faceOnLeft": true,
        "impliedDirection": 0,
        "testDirection": 180,
        "avgFps": 61,
        "minFps": 58,
        "maxFps": 6250,
        "totalFrames": 47,
        "frameRates": 61
      },
      {
        "trial_number": 53,
        "trial_index": 336,
        "rt": 1149,
        "correct": true,
        "response": "ArrowLeft",
        "congruent": false,
        "gazeTowards": false,
        "gazeCondition": "away",
        "faceOnLeft": true,
        "impliedDirection": 0,
        "testDirection": 180,
        "avgFps": 61,
        "minFps": 58,
        "maxFps": 7143,
        "totalFrames": 70,
        "frameRates": 61
      },
      {
        "trial_number": 54,
        "trial_index": 344,
        "rt": 929,
        "correct": true,
        "response": "ArrowLeft",
        "congruent": false,
        "gazeTowards": true,
        "gazeCondition": "towards",
        "faceOnLeft": true,
        "impliedDirection": 0,
        "testDirection": 180,
        "avgFps": 61,
        "minFps": 58,
        "maxFps": 7143,
        "totalFrames": 56,
        "frameRates": 61
      },
      {
        "trial_number": 55,
        "trial_index": 349,
        "rt": 1413,
        "correct": true,
        "response": "ArrowRight",
        "congruent": true,
        "gazeTowards": true,
        "gazeCondition": "towards",
        "faceOnLeft": true,
        "impliedDirection": 0,
        "testDirection": 0,
        "avgFps": 61,
        "minFps": 58,
        "maxFps": 6250,
        "totalFrames": 85,
        "frameRates": 61
      },
      {
        "trial_number": 56,
        "trial_index": 354,
        "rt": 894,
        "correct": true,
        "response": "ArrowLeft",
        "congruent": true,
        "gazeTowards": false,
        "gazeCondition": "away",
        "faceOnLeft": false,
        "impliedDirection": 180,
        "testDirection": 180,
        "avgFps": 61,
        "minFps": 58,
        "maxFps": 16667,
        "totalFrames": 54,
        "frameRates": 61
      },
      {
        "trial_number": 57,
        "trial_index": 359,
        "rt": 851,
        "correct": true,
        "response": "ArrowLeft",
        "congruent": true,
        "gazeTowards": true,
        "gazeCondition": "towards",
        "faceOnLeft": false,
        "impliedDirection": 180,
        "testDirection": 180,
        "avgFps": 61,
        "minFps": 58,
        "maxFps": 12500,
        "totalFrames": 52,
        "frameRates": 61
      },
      {
        "trial_number": 58,
        "trial_index": 365,
        "rt": 992,
        "correct": true,
        "response": "ArrowRight",
        "congruent": false,
        "gazeTowards": false,
        "gazeCondition": "away",
        "faceOnLeft": false,
        "impliedDirection": 180,
        "testDirection": 0,
        "avgFps": 61,
        "minFps": 58,
        "maxFps": 7143,
        "totalFrames": 60,
        "frameRates": 61
      },
      {
        "trial_number": 59,
        "trial_index": 370,
        "rt": 1526,
        "correct": true,
        "response": "ArrowRight",
        "congruent": false,
        "gazeTowards": true,
        "gazeCondition": "towards",
        "faceOnLeft": false,
        "impliedDirection": 180,
        "testDirection": 0,
        "avgFps": 61,
        "minFps": 58,
        "maxFps": 6250,
        "totalFrames": 92,
        "frameRates": 61
      },
      {
        "trial_number": 60,
        "trial_index": 375,
        "rt": 1737,
        "correct": true,
        "response": "ArrowRight",
        "congruent": false,
        "gazeTowards": true,
        "gazeCondition": "towards",
        "faceOnLeft": false,
        "impliedDirection": 180,
        "testDirection": 0,
        "avgFps": 61,
        "minFps": 58,
        "maxFps": 6250,
        "totalFrames": 105,
        "frameRates": 61
      },
      {
        "trial_number": 61,
        "trial_index": 380,
        "rt": 1285,
        "correct": true,
        "response": "ArrowRight",
        "congruent": false,
        "gazeTowards": false,
        "gazeCondition": "away",
        "faceOnLeft": false,
        "impliedDirection": 180,
        "testDirection": 0,
        "avgFps": 61,
        "minFps": 57,
        "maxFps": 10000,
        "totalFrames": 78,
        "frameRates": 61
      },
      {
        "trial_number": 62,
        "trial_index": 385,
        "rt": 1709,
        "correct": true,
        "response": "ArrowRight",
        "congruent": true,
        "gazeTowards": false,
        "gazeCondition": "away",
        "faceOnLeft": true,
        "impliedDirection": 0,
        "testDirection": 0,
        "avgFps": 61,
        "minFps": 58,
        "maxFps": 7143,
        "totalFrames": 103,
        "frameRates": 61
      },
      {
        "trial_number": 63,
        "trial_index": 390,
        "rt": 1919,
        "correct": true,
        "response": "ArrowRight",
        "congruent": true,
        "gazeTowards": false,
        "gazeCondition": "away",
        "faceOnLeft": true,
        "impliedDirection": 0,
        "testDirection": 0,
        "avgFps": 61,
        "minFps": 58,
        "maxFps": 10000,
        "totalFrames": 116,
        "frameRates": 61
      },
      {
        "trial_number": 64,
        "trial_index": 395,
        "rt": 1479,
        "correct": true,
        "response": "ArrowRight",
        "congruent": true,
        "gazeTowards": true,
        "gazeCondition": "towards",
        "faceOnLeft": true,
        "impliedDirection": 0,
        "testDirection": 0,
        "avgFps": 61,
        "minFps": 58,
        "maxFps": 7143,
        "totalFrames": 89,
        "frameRates": 61
      },
      {
        "trial_number": 65,
        "trial_index": 400,
        "rt": 1056,
        "correct": true,
        "response": "ArrowLeft",
        "congruent": false,
        "gazeTowards": false,
        "gazeCondition": "away",
        "faceOnLeft": true,
        "impliedDirection": 0,
        "testDirection": 180,
        "avgFps": 61,
        "minFps": 58,
        "maxFps": 5556,
        "totalFrames": 64,
        "frameRates": 61
      },
      {
        "trial_number": 66,
        "trial_index": 408,
        "rt": 1909,
        "correct": true,
        "response": "ArrowLeft",
        "congruent": false,
        "gazeTowards": true,
        "gazeCondition": "towards",
        "faceOnLeft": true,
        "impliedDirection": 0,
        "testDirection": 180,
        "avgFps": 61,
        "minFps": 58,
        "maxFps": 10000,
        "totalFrames": 115,
        "frameRates": 61
      },
      {
        "trial_number": 67,
        "trial_index": 413,
        "rt": 867,
        "correct": true,
        "response": "ArrowLeft",
        "congruent": true,
        "gazeTowards": false,
        "gazeCondition": "away",
        "faceOnLeft": false,
        "impliedDirection": 180,
        "testDirection": 180,
        "avgFps": 61,
        "minFps": 58,
        "maxFps": 7143,
        "totalFrames": 53,
        "frameRates": 61
      },
      {
        "trial_number": 68,
        "trial_index": 418,
        "rt": 1274,
        "correct": true,
        "response": "ArrowRight",
        "congruent": true,
        "gazeTowards": true,
        "gazeCondition": "towards",
        "faceOnLeft": true,
        "impliedDirection": 0,
        "testDirection": 0,
        "avgFps": 61,
        "minFps": 58,
        "maxFps": 7143,
        "totalFrames": 77,
        "frameRates": 61
      },
      {
        "trial_number": 69,
        "trial_index": 423,
        "rt": 1513,
        "correct": true,
        "response": "ArrowRight",
        "congruent": true,
        "gazeTowards": false,
        "gazeCondition": "away",
        "faceOnLeft": true,
        "impliedDirection": 0,
        "testDirection": 0,
        "avgFps": 61,
        "minFps": 58,
        "maxFps": 6250,
        "totalFrames": 92,
        "frameRates": 61
      },
      {
        "trial_number": 70,
        "trial_index": 428,
        "rt": 1041,
        "correct": true,
        "response": "ArrowRight",
        "congruent": true,
        "gazeTowards": true,
        "gazeCondition": "towards",
        "faceOnLeft": true,
        "impliedDirection": 0,
        "testDirection": 0,
        "avgFps": 61,
        "minFps": 58,
        "maxFps": 6250,
        "totalFrames": 63,
        "frameRates": 61
      },
      {
        "trial_number": 71,
        "trial_index": 433,
        "rt": 1550,
        "correct": true,
        "response": "ArrowLeft",
        "congruent": true,
        "gazeTowards": false,
        "gazeCondition": "away",
        "faceOnLeft": false,
        "impliedDirection": 180,
        "testDirection": 180,
        "avgFps": 60,
        "minFps": 45,
        "maxFps": 62,
        "totalFrames": 92,
        "frameRates": 60
      },
      {
        "trial_number": 72,
        "trial_index": 438,
        "rt": 989,
        "correct": true,
        "response": "ArrowRight",
        "congruent": true,
        "gazeTowards": false,
        "gazeCondition": "away",
        "faceOnLeft": true,
        "impliedDirection": 0,
        "testDirection": 0,
        "avgFps": 61,
        "minFps": 58,
        "maxFps": 6250,
        "totalFrames": 60,
        "frameRates": 61
      },
      {
        "trial_number": 73,
        "trial_index": 443,
        "rt": 1428,
        "correct": true,
        "response": "ArrowRight",
        "congruent": false,
        "gazeTowards": true,
        "gazeCondition": "towards",
        "faceOnLeft": false,
        "impliedDirection": 180,
        "testDirection": 0,
        "avgFps": 61,
        "minFps": 58,
        "maxFps": 6250,
        "totalFrames": 86,
        "frameRates": 61
      },
      {
        "trial_number": 74,
        "trial_index": 448,
        "rt": 1915,
        "correct": true,
        "response": "ArrowRight",
        "congruent": false,
        "gazeTowards": true,
        "gazeCondition": "towards",
        "faceOnLeft": false,
        "impliedDirection": 180,
        "testDirection": 0,
        "avgFps": 61,
        "minFps": 58,
        "maxFps": 3333,
        "totalFrames": 116,
        "frameRates": 61
      },
      {
        "trial_number": 75,
        "trial_index": 453,
        "rt": 1616,
        "correct": true,
        "response": "ArrowRight",
        "congruent": true,
        "gazeTowards": true,
        "gazeCondition": "towards",
        "faceOnLeft": true,
        "impliedDirection": 0,
        "testDirection": 0,
        "avgFps": 61,
        "minFps": 58,
        "maxFps": 6250,
        "totalFrames": 98,
        "frameRates": 61
      },
      {
        "trial_number": 76,
        "trial_index": 458,
        "rt": 1528,
        "correct": true,
        "response": "ArrowRight",
        "congruent": true,
        "gazeTowards": false,
        "gazeCondition": "away",
        "faceOnLeft": true,
        "impliedDirection": 0,
        "testDirection": 0,
        "avgFps": 61,
        "minFps": 58,
        "maxFps": 7143,
        "totalFrames": 92,
        "frameRates": 61
      },
      {
        "trial_number": 77,
        "trial_index": 463,
        "rt": 1379,
        "correct": true,
        "response": "ArrowRight",
        "congruent": true,
        "gazeTowards": true,
        "gazeCondition": "towards",
        "faceOnLeft": true,
        "impliedDirection": 0,
        "testDirection": 0,
        "avgFps": 61,
        "minFps": 58,
        "maxFps": 5000,
        "totalFrames": 83,
        "frameRates": 61
      },
      {
        "trial_number": 78,
        "trial_index": 468,
        "rt": 1507,
        "correct": true,
        "response": "ArrowRight",
        "congruent": false,
        "gazeTowards": false,
        "gazeCondition": "away",
        "faceOnLeft": false,
        "impliedDirection": 180,
        "testDirection": 0,
        "avgFps": 61,
        "minFps": 58,
        "maxFps": 6250,
        "totalFrames": 91,
        "frameRates": 61
      },
      {
        "trial_number": 79,
        "trial_index": 473,
        "rt": 1542,
        "correct": true,
        "response": "ArrowLeft",
        "congruent": false,
        "gazeTowards": true,
        "gazeCondition": "towards",
        "faceOnLeft": true,
        "impliedDirection": 0,
        "testDirection": 180,
        "avgFps": 61,
        "minFps": 58,
        "maxFps": 6250,
        "totalFrames": 93,
        "frameRates": 61
      },
      {
        "trial_number": 80,
        "trial_index": 478,
        "rt": 1093,
        "correct": true,
        "response": "ArrowLeft",
        "congruent": true,
        "gazeTowards": true,
        "gazeCondition": "towards",
        "faceOnLeft": false,
        "impliedDirection": 180,
        "testDirection": 180,
        "avgFps": 61,
        "minFps": 58,
        "maxFps": 6250,
        "totalFrames": 66,
        "frameRates": 61
      },
      {
        "trial_number": 81,
        "trial_index": 483,
        "rt": 1503,
        "correct": true,
        "response": "ArrowRight",
        "congruent": true,
        "gazeTowards": true,
        "gazeCondition": "towards",
        "faceOnLeft": true,
        "impliedDirection": 0,
        "testDirection": 0,
        "avgFps": 61,
        "minFps": 58,
        "maxFps": 6250,
        "totalFrames": 91,
        "frameRates": 61
      },
      {
        "trial_number": 82,
        "trial_index": 488,
        "rt": 1372,
        "correct": true,
        "response": "ArrowLeft",
        "congruent": false,
        "gazeTowards": true,
        "gazeCondition": "towards",
        "faceOnLeft": true,
        "impliedDirection": 0,
        "testDirection": 180,
        "avgFps": 61,
        "minFps": 58,
        "maxFps": 7143,
        "totalFrames": 83,
        "frameRates": 61
      },
      {
        "trial_number": 83,
        "trial_index": 493,
        "rt": 1263,
        "correct": true,
        "response": "ArrowRight",
        "congruent": true,
        "gazeTowards": false,
        "gazeCondition": "away",
        "faceOnLeft": true,
        "impliedDirection": 0,
        "testDirection": 0,
        "avgFps": 61,
        "minFps": 58,
        "maxFps": 10000,
        "totalFrames": 76,
        "frameRates": 61
      },
      {
        "trial_number": 84,
        "trial_index": 498,
        "rt": 1164,
        "correct": true,
        "response": "ArrowRight",
        "congruent": true,
        "gazeTowards": true,
        "gazeCondition": "towards",
        "faceOnLeft": true,
        "impliedDirection": 0,
        "testDirection": 0,
        "avgFps": 61,
        "minFps": 58,
        "maxFps": 8333,
        "totalFrames": 70,
        "frameRates": 61
      },
      {
        "trial_number": 85,
        "trial_index": 503,
        "rt": 1907,
        "correct": true,
        "response": "ArrowRight",
        "congruent": true,
        "gazeTowards": true,
        "gazeCondition": "towards",
        "faceOnLeft": true,
        "impliedDirection": 0,
        "testDirection": 0,
        "avgFps": 61,
        "minFps": 58,
        "maxFps": 7143,
        "totalFrames": 115,
        "frameRates": 61
      },
      {
        "trial_number": 86,
        "trial_index": 508,
        "rt": 1431,
        "correct": true,
        "response": "ArrowLeft",
        "congruent": false,
        "gazeTowards": false,
        "gazeCondition": "away",
        "faceOnLeft": true,
        "impliedDirection": 0,
        "testDirection": 180,
        "avgFps": 61,
        "minFps": 58,
        "maxFps": 8333,
        "totalFrames": 86,
        "frameRates": 61
      },
      {
        "trial_number": 87,
        "trial_index": 513,
        "rt": 1200,
        "correct": true,
        "response": "ArrowLeft",
        "congruent": true,
        "gazeTowards": true,
        "gazeCondition": "towards",
        "faceOnLeft": false,
        "impliedDirection": 180,
        "testDirection": 180,
        "avgFps": 61,
        "minFps": 58,
        "maxFps": 7143,
        "totalFrames": 73,
        "frameRates": 61
      },
      {
        "trial_number": 88,
        "trial_index": 521,
        "rt": 1490,
        "correct": true,
        "response": "ArrowLeft",
        "congruent": false,
        "gazeTowards": true,
        "gazeCondition": "towards",
        "faceOnLeft": true,
        "impliedDirection": 0,
        "testDirection": 180,
        "avgFps": 61,
        "minFps": 58,
        "maxFps": 6250,
        "totalFrames": 90,
        "frameRates": 61
      },
      {
        "trial_number": 89,
        "trial_index": 527,
        "rt": 771,
        "correct": true,
        "response": "ArrowLeft",
        "congruent": false,
        "gazeTowards": true,
        "gazeCondition": "towards",
        "faceOnLeft": true,
        "impliedDirection": 0,
        "testDirection": 180,
        "avgFps": 61,
        "minFps": 58,
        "maxFps": 6250,
        "totalFrames": 47,
        "frameRates": 61
      },
      {
        "trial_number": 90,
        "trial_index": 532,
        "rt": 1277,
        "correct": true,
        "response": "ArrowLeft",
        "congruent": false,
        "gazeTowards": false,
        "gazeCondition": "away",
        "faceOnLeft": true,
        "impliedDirection": 0,
        "testDirection": 180,
        "avgFps": 61,
        "minFps": 58,
        "maxFps": 6250,
        "totalFrames": 77,
        "frameRates": 61
      },
      {
        "trial_number": 91,
        "trial_index": 537,
        "rt": 1557,
        "correct": true,
        "response": "ArrowRight",
        "congruent": true,
        "gazeTowards": false,
        "gazeCondition": "away",
        "faceOnLeft": true,
        "impliedDirection": 0,
        "testDirection": 0,
        "avgFps": 61,
        "minFps": 58,
        "maxFps": 7143,
        "totalFrames": 94,
        "frameRates": 61
      },
      {
        "trial_number": 92,
        "trial_index": 542,
        "rt": 1252,
        "correct": true,
        "response": "ArrowLeft",
        "congruent": true,
        "gazeTowards": false,
        "gazeCondition": "away",
        "faceOnLeft": false,
        "impliedDirection": 180,
        "testDirection": 180,
        "avgFps": 61,
        "minFps": 58,
        "maxFps": 10000,
        "totalFrames": 76,
        "frameRates": 61
      },
      {
        "trial_number": 93,
        "trial_index": 547,
        "rt": 1148,
        "correct": true,
        "response": "ArrowLeft",
        "congruent": true,
        "gazeTowards": false,
        "gazeCondition": "away",
        "faceOnLeft": false,
        "impliedDirection": 180,
        "testDirection": 180,
        "avgFps": 61,
        "minFps": 58,
        "maxFps": 8333,
        "totalFrames": 70,
        "frameRates": 61
      },
      {
        "trial_number": 94,
        "trial_index": 552,
        "rt": 1240,
        "correct": true,
        "response": "ArrowLeft",
        "congruent": true,
        "gazeTowards": false,
        "gazeCondition": "away",
        "faceOnLeft": false,
        "impliedDirection": 180,
        "testDirection": 180,
        "avgFps": 61,
        "minFps": 58,
        "maxFps": 7143,
        "totalFrames": 75,
        "frameRates": 61
      },
      {
        "trial_number": 95,
        "trial_index": 557,
        "rt": 1739,
        "correct": true,
        "response": "ArrowLeft",
        "congruent": true,
        "gazeTowards": true,
        "gazeCondition": "towards",
        "faceOnLeft": false,
        "impliedDirection": 180,
        "testDirection": 180,
        "avgFps": 61,
        "minFps": 58,
        "maxFps": 8333,
        "totalFrames": 105,
        "frameRates": 61
      },
      {
        "trial_number": 96,
        "trial_index": 562,
        "rt": 1794,
        "correct": true,
        "response": "ArrowRight",
        "congruent": false,
        "gazeTowards": true,
        "gazeCondition": "towards",
        "faceOnLeft": false,
        "impliedDirection": 180,
        "testDirection": 0,
        "avgFps": 61,
        "minFps": 58,
        "maxFps": 12500,
        "totalFrames": 108,
        "frameRates": 61
      },
      {
        "trial_number": 97,
        "trial_index": 567,
        "rt": 1535,
        "correct": true,
        "response": "ArrowRight",
        "congruent": true,
        "gazeTowards": true,
        "gazeCondition": "towards",
        "faceOnLeft": true,
        "impliedDirection": 0,
        "testDirection": 0,
        "avgFps": 61,
        "minFps": 58,
        "maxFps": 6250,
        "totalFrames": 93,
        "frameRates": 61
      },
      {
        "trial_number": 98,
        "trial_index": 572,
        "rt": 1904,
        "correct": true,
        "response": "ArrowLeft",
        "congruent": false,
        "gazeTowards": true,
        "gazeCondition": "towards",
        "faceOnLeft": true,
        "impliedDirection": 0,
        "testDirection": 180,
        "avgFps": 61,
        "minFps": 58,
        "maxFps": 10000,
        "totalFrames": 115,
        "frameRates": 61
      },
      {
        "trial_number": 99,
        "trial_index": 577,
        "rt": 1753,
        "correct": true,
        "response": "ArrowRight",
        "congruent": false,
        "gazeTowards": true,
        "gazeCondition": "towards",
        "faceOnLeft": false,
        "impliedDirection": 180,
        "testDirection": 0,
        "avgFps": 61,
        "minFps": 58,
        "maxFps": 8333,
        "totalFrames": 106,
        "frameRates": 61
      },
      {
        "trial_number": 100,
        "trial_index": 582,
        "rt": 1393,
        "correct": true,
        "response": "ArrowRight",
        "congruent": false,
        "gazeTowards": true,
        "gazeCondition": "towards",
        "faceOnLeft": false,
        "impliedDirection": 180,
        "testDirection": 0,
        "avgFps": 61,
        "minFps": 58,
        "maxFps": 8333,
        "totalFrames": 84,
        "frameRates": 61
      },
      {
        "trial_number": 101,
        "trial_index": 587,
        "rt": 1507,
        "correct": true,
        "response": "ArrowLeft",
        "congruent": false,
        "gazeTowards": true,
        "gazeCondition": "towards",
        "faceOnLeft": true,
        "impliedDirection": 0,
        "testDirection": 180,
        "avgFps": 61,
        "minFps": 58,
        "maxFps": 7143,
        "totalFrames": 91,
        "frameRates": 61
      },
      {
        "trial_number": 102,
        "trial_index": 592,
        "rt": 1480,
        "correct": true,
        "response": "ArrowLeft",
        "congruent": false,
        "gazeTowards": false,
        "gazeCondition": "away",
        "faceOnLeft": true,
        "impliedDirection": 0,
        "testDirection": 180,
        "avgFps": 61,
        "minFps": 58,
        "maxFps": 8333,
        "totalFrames": 89,
        "frameRates": 61
      },
      {
        "trial_number": 103,
        "trial_index": 597,
        "rt": 1626,
        "correct": true,
        "response": "ArrowRight",
        "congruent": true,
        "gazeTowards": false,
        "gazeCondition": "away",
        "faceOnLeft": true,
        "impliedDirection": 0,
        "testDirection": 0,
        "avgFps": 61,
        "minFps": 58,
        "maxFps": 6250,
        "totalFrames": 98,
        "frameRates": 61
      },
      {
        "trial_number": 104,
        "trial_index": 602,
        "rt": 1595,
        "correct": true,
        "response": "ArrowLeft",
        "congruent": true,
        "gazeTowards": true,
        "gazeCondition": "towards",
        "faceOnLeft": false,
        "impliedDirection": 180,
        "testDirection": 180,
        "avgFps": 61,
        "minFps": 58,
        "maxFps": 6250,
        "totalFrames": 96,
        "frameRates": 61
      },
      {
        "trial_number": 105,
        "trial_index": 607,
        "rt": null,
        "correct": false,
        "response": null,
        "congruent": true,
        "gazeTowards": true,
        "gazeCondition": "towards",
        "faceOnLeft": true,
        "impliedDirection": 0,
        "testDirection": 0,
        "avgFps": 61,
        "minFps": 58,
        "maxFps": 8333,
        "totalFrames": 121,
        "frameRates": 61
      },
      {
        "trial_number": 106,
        "trial_index": 612,
        "rt": 1206,
        "correct": true,
        "response": "ArrowLeft",
        "congruent": false,
        "gazeTowards": true,
        "gazeCondition": "towards",
        "faceOnLeft": true,
        "impliedDirection": 0,
        "testDirection": 180,
        "avgFps": 61,
        "minFps": 58,
        "maxFps": 12500,
        "totalFrames": 73,
        "frameRates": 61
      },
      {
        "trial_number": 107,
        "trial_index": 617,
        "rt": 1596,
        "correct": true,
        "response": "ArrowRight",
        "congruent": false,
        "gazeTowards": true,
        "gazeCondition": "towards",
        "faceOnLeft": false,
        "impliedDirection": 180,
        "testDirection": 0,
        "avgFps": 61,
        "minFps": 58,
        "maxFps": 6250,
        "totalFrames": 96,
        "frameRates": 61
      },
      {
        "trial_number": 108,
        "trial_index": 622,
        "rt": 1196,
        "correct": true,
        "response": "ArrowLeft",
        "congruent": false,
        "gazeTowards": true,
        "gazeCondition": "towards",
        "faceOnLeft": true,
        "impliedDirection": 0,
        "testDirection": 180,
        "avgFps": 61,
        "minFps": 57,
        "maxFps": 7143,
        "totalFrames": 72,
        "frameRates": 61
      },
      {
        "trial_number": 109,
        "trial_index": 627,
        "rt": 1592,
        "correct": true,
        "response": "ArrowRight",
        "congruent": false,
        "gazeTowards": false,
        "gazeCondition": "away",
        "faceOnLeft": false,
        "impliedDirection": 180,
        "testDirection": 0,
        "avgFps": 60,
        "minFps": 58,
        "maxFps": 123,
        "totalFrames": 96,
        "frameRates": 60
      },
      {
        "trial_number": 110,
        "trial_index": 632,
        "rt": 1545,
        "correct": true,
        "response": "ArrowLeft",
        "congruent": false,
        "gazeTowards": true,
        "gazeCondition": "towards",
        "faceOnLeft": true,
        "impliedDirection": 0,
        "testDirection": 180,
        "avgFps": 61,
        "minFps": 58,
        "maxFps": 6250,
        "totalFrames": 93,
        "frameRates": 61
      },
      {
        "trial_number": 111,
        "trial_index": 637,
        "rt": 1823,
        "correct": true,
        "response": "ArrowRight",
        "congruent": false,
        "gazeTowards": true,
        "gazeCondition": "towards",
        "faceOnLeft": false,
        "impliedDirection": 180,
        "testDirection": 0,
        "avgFps": 61,
        "minFps": 58,
        "maxFps": 12500,
        "totalFrames": 110,
        "frameRates": 61
      },
      {
        "trial_number": 112,
        "trial_index": 642,
        "rt": 1512,
        "correct": true,
        "response": "ArrowLeft",
        "congruent": false,
        "gazeTowards": true,
        "gazeCondition": "towards",
        "faceOnLeft": true,
        "impliedDirection": 0,
        "testDirection": 180,
        "avgFps": 61,
        "minFps": 58,
        "maxFps": 6250,
        "totalFrames": 91,
        "frameRates": 61
      },
      {
        "trial_number": 113,
        "trial_index": 647,
        "rt": 1448,
        "correct": true,
        "response": "ArrowLeft",
        "congruent": false,
        "gazeTowards": true,
        "gazeCondition": "towards",
        "faceOnLeft": true,
        "impliedDirection": 0,
        "testDirection": 180,
        "avgFps": 61,
        "minFps": 58,
        "maxFps": 3571,
        "totalFrames": 87,
        "frameRates": 61
      },
      {
        "trial_number": 114,
        "trial_index": 652,
        "rt": 1917,
        "correct": false,
        "response": "ArrowRight",
        "congruent": false,
        "gazeTowards": false,
        "gazeCondition": "away",
        "faceOnLeft": true,
        "impliedDirection": 0,
        "testDirection": 180,
        "avgFps": 61,
        "minFps": 58,
        "maxFps": 10000,
        "totalFrames": 116,
        "frameRates": 61
      },
      {
        "trial_number": 115,
        "trial_index": 657,
        "rt": 1562,
        "correct": true,
        "response": "ArrowLeft",
        "congruent": true,
        "gazeTowards": false,
        "gazeCondition": "away",
        "faceOnLeft": false,
        "impliedDirection": 180,
        "testDirection": 180,
        "avgFps": 61,
        "minFps": 58,
        "maxFps": 6250,
        "totalFrames": 94,
        "frameRates": 61
      },
      {
        "trial_number": 116,
        "trial_index": 662,
        "rt": 1765,
        "correct": true,
        "response": "ArrowLeft",
        "congruent": false,
        "gazeTowards": false,
        "gazeCondition": "away",
        "faceOnLeft": true,
        "impliedDirection": 0,
        "testDirection": 180,
        "avgFps": 61,
        "minFps": 58,
        "maxFps": 6250,
        "totalFrames": 107,
        "frameRates": 61
      },
      {
        "trial_number": 117,
        "trial_index": 667,
        "rt": 1576,
        "correct": false,
        "response": "ArrowLeft",
        "congruent": true,
        "gazeTowards": false,
        "gazeCondition": "away",
        "faceOnLeft": true,
        "impliedDirection": 0,
        "testDirection": 0,
        "avgFps": 61,
        "minFps": 58,
        "maxFps": 12500,
        "totalFrames": 95,
        "frameRates": 61
      },
      {
        "trial_number": 118,
        "trial_index": 672,
        "rt": 1790,
        "correct": true,
        "response": "ArrowLeft",
        "congruent": true,
        "gazeTowards": false,
        "gazeCondition": "away",
        "faceOnLeft": false,
        "impliedDirection": 180,
        "testDirection": 180,
        "avgFps": 61,
        "minFps": 58,
        "maxFps": 6250,
        "totalFrames": 108,
        "frameRates": 61
      },
      {
        "trial_number": 119,
        "trial_index": 677,
        "rt": 1827,
        "correct": false,
        "response": "ArrowRight",
        "congruent": true,
        "gazeTowards": false,
        "gazeCondition": "away",
        "faceOnLeft": false,
        "impliedDirection": 180,
        "testDirection": 180,
        "avgFps": 61,
        "minFps": 58,
        "maxFps": 8333,
        "totalFrames": 110,
        "frameRates": 61
      }
    ],
    "catch": {
      "total": 12,
      "correct": 12,
      "accuracy": 100,
      "meanRT": 656,
      "trials": [
        {
          "trial_number": 0,
          "trial_index": 93,
          "rt": 710,
          "correct": true,
          "colorTarget": "face",
          "gazeTowards": true,
          "gazeCondition": "towards",
          "faceOnLeft": false
        },
        {
          "trial_number": 1,
          "trial_index": 131,
          "rt": 684,
          "correct": true,
          "colorTarget": "tree",
          "gazeTowards": true,
          "gazeCondition": "towards",
          "faceOnLeft": true
        },
        {
          "trial_number": 2,
          "trial_index": 250,
          "rt": 672,
          "correct": true,
          "colorTarget": "tree",
          "gazeTowards": false,
          "gazeCondition": "away",
          "faceOnLeft": false
        },
        {
          "trial_number": 3,
          "trial_index": 253,
          "rt": 519,
          "correct": true,
          "colorTarget": "tree",
          "gazeTowards": false,
          "gazeCondition": "away",
          "faceOnLeft": false
        },
        {
          "trial_number": 4,
          "trial_index": 286,
          "rt": 643,
          "correct": true,
          "colorTarget": "face",
          "gazeTowards": false,
          "gazeCondition": "away",
          "faceOnLeft": true
        },
        {
          "trial_number": 5,
          "trial_index": 289,
          "rt": 769,
          "correct": true,
          "colorTarget": "tree",
          "gazeTowards": false,
          "gazeCondition": "away",
          "faceOnLeft": false
        },
        {
          "trial_number": 6,
          "trial_index": 302,
          "rt": 624,
          "correct": true,
          "colorTarget": "tree",
          "gazeTowards": true,
          "gazeCondition": "towards",
          "faceOnLeft": true
        },
        {
          "trial_number": 7,
          "trial_index": 340,
          "rt": 664,
          "correct": true,
          "colorTarget": "face",
          "gazeTowards": true,
          "gazeCondition": "towards",
          "faceOnLeft": false
        },
        {
          "trial_number": 8,
          "trial_index": 404,
          "rt": 763,
          "correct": true,
          "colorTarget": "tree",
          "gazeTowards": false,
          "gazeCondition": "away",
          "faceOnLeft": true
        },
        {
          "trial_number": 9,
          "trial_index": 517,
          "rt": 699,
          "correct": true,
          "colorTarget": "face",
          "gazeTowards": false,
          "gazeCondition": "away",
          "faceOnLeft": true
        },
        {
          "trial_number": 10,
          "trial_index": 681,
          "rt": 605,
          "correct": true,
          "colorTarget": "face",
          "gazeTowards": false,
          "gazeCondition": "away",
          "faceOnLeft": true
        },
        {
          "trial_number": 11,
          "trial_index": 684,
          "rt": 523,
          "correct": true,
          "colorTarget": "face",
          "gazeTowards": true,
          "gazeCondition": "towards",
          "faceOnLeft": false
        }
      ]
    },
    "practice": {
      "trials": [
        {
          "trial_number": 0,
          "rt": null,
          "correct": false,
          "direction": 0
        },
        {
          "trial_number": 1,
          "rt": 1741,
          "correct": true,
          "direction": 180
        },
        {
          "trial_number": 2,
          "rt": 1280,
          "correct": true,
          "direction": 180
        },
        {
          "trial_number": 3,
          "rt": 1587,
          "correct": true,
          "direction": 0
        },
        {
          "trial_number": 4,
          "rt": 1394,
          "correct": true,
          "direction": 0
        },
        {
          "trial_number": 5,
          "rt": 1431,
          "correct": true,
          "direction": 180
        },
        {
          "trial_number": 6,
          "rt": 1597,
          "correct": true,
          "direction": 180
        },
        {
          "trial_number": 7,
          "rt": 1664,
          "correct": true,
          "direction": 180
        },
        {
          "trial_number": 8,
          "rt": 1702,
          "correct": true,
          "direction": 0
        },
        {
          "trial_number": 9,
          "rt": 1425,
          "correct": true,
          "direction": 0
        }
      ],
      "meanRT": 1536,
      "accuracy": 90
    }
  }
}