{
  "experiment": "rdk-bars",
  "UUID": "a9ec671b-9345-45e9-a911-dbbd10bcef08",
  "data": {
    "session": {
      "experiment_version": "1.0",
      "treatment": "bars",
      "file_version": "1.1",
      "totalTrials": 30,
      "session_group": "default",
      "browserData": {
        "os": "Windows",
        "browser": "Firefox",
        "screenResolution": "1920x1080",
        "browserViewport": "1920x919",
        "extraHardware": {
          "userAgent": "Mozilla/5.0 (Windows NT 10.0; Win64; x64; rv:144.0) Gecko/20100101 Firefox/144.0",
          "platform": "Win32",
          "hardwareConcurrency": 8,
          "deviceMemory": null,
          "gpu": {
            "vendor": "Google Inc. (NVIDIA)",
            "renderer": "ANGLE (NVIDIA, NVIDIA GeForce GTX 980 Direct3D11 vs_5_0 ps_5_0), or similar"
          },
          "screen": {
            "width": 1920,
            "height": 1080,
            "availWidth": 1920,
            "availHeight": 1032,
            "colorDepth": 24
          },
          "viewport": {
            "width": 1920,
            "height": 919
          },
          "devicePixelRatio": 1,
          "maxTouchPoints": 0,
          "pointer": {
            "coarse": false,
            "fine": true,
            "hover": true
          },
          "timeZone": "America/New_York",
          "language": "en-US",
          "languages": [
            "en-US",
            "en"
          ]
        }
      },
      "calibration": {
        "monitorWidthCm": 38,
        "viewingDistanceCm": 54,
        "pixelsPerDegree": 0
      },
      "parameters": {
        "coherence": 0.4,
        "apertureDeg": 5,
        "dotSpeedDegPerSec": 2,
        "lifetimeMs": 200,
        "fixationDurationMs": 1500,
        "adaptorDurationMs": 1500,
        "testDurationMs": 2000
      },
      "mturk": {
        "assignmentId": "",
        "workerId": "",
        "hitId": ""
      }
    },
    "trials": [
      {
        "trial_index": 47,
        "rt": 1390,
        "correct": true,
        "response": "ArrowRight",
        "congruent": false,
        "adaptorDirection": 180,
        "testDirection": 0
      },
      {
        "trial_index": 52,
        "rt": 805,
        "correct": true,
        "response": "ArrowLeft",
        "congruent": false,
        "adaptorDirection": 0,
        "testDirection": 180
      },
      {
        "trial_index": 57,
        "rt": 1085,
        "correct": true,
        "response": "ArrowRight",
        "congruent": true,
        "adaptorDirection": 0,
        "testDirection": 0
      },
      {
        "trial_index": 62,
        "rt": 991,
        "correct": true,
        "response": "ArrowRight",
        "congruent": false,
        "adaptorDirection": 180,
        "testDirection": 0
      },
      {
        "trial_index": 67,
        "rt": 1008,
        "correct": false,
        "response": "ArrowLeft",
        "congruent": true,
        "adaptorDirection": 0,
        "testDirection": 0
      },
      {
        "trial_index": 72,
        "rt": 987,
        "correct": true,
        "response": "ArrowLeft",
        "congruent": false,
        "adaptorDirection": 0,
        "testDirection": 180
      },
      {
        "trial_index": 77,
        "rt": 740,
        "correct": true,
        "response": "ArrowRight",
        "congruent": false,
        "adaptorDirection": 180,
        "testDirection": 0
      },
      {
        "trial_index": 82,
        "rt": 798,
        "correct": true,
        "response": "ArrowRight",
        "congruent": false,
        "adaptorDirection": 180,
        "testDirection": 0
      },
      {
        "trial_index": 87,
        "rt": 1166,
        "correct": true,
        "response": "ArrowLeft",
        "congruent": true,
        "adaptorDirection": 180,
        "testDirection": 180
      },
      {
        "trial_index": 92,
        "rt": 1032,
        "correct": true,
        "response": "ArrowLeft",
        "congruent": false,
        "adaptorDirection": 0,
        "testDirection": 180
      },
      {
        "trial_index": 97,
        "rt": 1149,
        "correct": true,
        "response": "ArrowLeft",
        "congruent": false,
        "adaptorDirection": 0,
        "testDirection": 180
      },
      {
        "trial_index": 102,
        "rt": 826,
        "correct": true,
        "response": "ArrowRight",
        "congruent": false,
        "adaptorDirection": 180,
        "testDirection": 0
      },
      {
        "trial_index": 107,
        "rt": 1166,
        "correct": true,
        "response": "ArrowRight",
        "congruent": true,
        "adaptorDirection": 0,
        "testDirection": 0
      },
      {
        "trial_index": 112,
        "rt": 1305,
        "correct": true,
        "response": "ArrowRight",
        "congruent": false,
        "adaptorDirection": 180,
        "testDirection": 0
      },
      {
        "trial_index": 117,
        "rt": 1574,
        "correct": false,
        "response": "ArrowLeft",
        "congruent": true,
        "adaptorDirection": 0,
        "testDirection": 0
      },
      {
        "trial_index": 122,
        "rt": 1766,
        "correct": true,
        "response": "ArrowRight",
        "congruent": true,
        "adaptorDirection": 0,
        "testDirection": 0
      },
      {
        "trial_index": 127,
        "rt": 1161,
        "correct": true,
        "response": "ArrowRight",
        "congruent": false,
        "adaptorDirection": 180,
        "testDirection": 0
      },
      {
        "trial_index": 132,
        "rt": 876,
        "correct": true,
        "response": "ArrowLeft",
        "congruent": true,
        "adaptorDirection": 180,
        "testDirection": 180
      },
      {
        "trial_index": 137,
        "rt": 1396,
        "correct": true,
        "response": "ArrowLeft",
        "congruent": false,
        "adaptorDirection": 0,
        "testDirection": 180
      },
      {
        "trial_index": 142,
        "rt": 1207,
        "correct": true,
        "response": "ArrowRight",
        "congruent": true,
        "adaptorDirection": 0,
        "testDirection": 0
      },
      {
        "trial_index": 147,
        "rt": 1415,
        "correct": true,
        "response": "ArrowLeft",
        "congruent": true,
        "adaptorDirection": 180,
        "testDirection": 180
      },
      {
        "trial_index": 152,
        "rt": 984,
        "correct": true,
        "response": "ArrowRight",
        "congruent": false,
        "adaptorDirection": 180,
        "testDirection": 0
      },
      {
        "trial_index": 157,
        "rt": 1240,
        "correct": true,
        "response": "ArrowRight",
        "congruent": true,
        "adaptorDirection": 0,
        "testDirection": 0
      },
      {
        "trial_index": 162,
        "rt": 1996,
        "correct": false,
        "response": "ArrowLeft",
        "congruent": true,
        "adaptorDirection": 0,
        "testDirection": 0
      },
      {
        "trial_index": 167,
        "rt": 1835,
        "correct": true,
        "response": "ArrowLeft",
        "congruent": true,
        "adaptorDirection": 180,
        "testDirection": 180
      },
      {
        "trial_index": 172,
        "rt": 1017,
        "correct": false,
        "response": "ArrowLeft",
        "congruent": true,
        "adaptorDirection": 0,
        "testDirection": 0
      },
      {
        "trial_index": 177,
        "rt": 1002,
        "correct": true,
        "response": "ArrowRight",
        "congruent": true,
        "adaptorDirection": 0,
        "testDirection": 0
      },
      {
        "trial_index": 182,
        "rt": 831,
        "correct": true,
        "response": "ArrowLeft",
        "congruent": false,
        "adaptorDirection": 0,
        "testDirection": 180
      },
      {
        "trial_index": 187,
        "rt": 1368,
        "correct": true,
        "response": "ArrowLeft",
        "congruent": false,
        "adaptorDirection": 0,
        "testDirection": 180
      },
      {
        "trial_index": 192,
        "rt": null,
        "correct": false,
        "response": null,
        "congruent": true,
        "adaptorDirection": 0,
        "testDirection": 0
      }
    ]
  }
}