{
  "experiment": "rdk-face-1",
  "UUID": "b708e811-c84a-40bb-9abe-2b371471152c",
  "data": {
    "session": {
      "experiment_version": "1.8.6",
      "treatment": "faces_towards_away_catch",
      "file_version": "1.8.6",
      "totalTrials": 120,
      "totalTrialsIncludingCatch": 132,
      "conditions": {
        "gazeTowardsCount": 60,
        "gazeAwayCount": 60,
        "gazeTowardsAccuracy": 85,
        "gazeAwayAccuracy": 78
      },
      "session_group": "default",
      "browserData": {
        "os": "Windows",
        "browser": "Firefox",
        "screenResolution": "2219x1248",
        "browserViewport": "2219x1248",
        "devicePixelRatio": 1.1538461538461537,
        "colorDepth": 24,
        "hardwareConcurrency": 8,
        "deviceMemory": "Unknown",
        "gpuRenderer": "ANGLE (NVIDIA, NVIDIA GeForce GTX 980 Direct3D11 vs_5_0 ps_5_0), or similar",
        "measuredRefreshRateHz": 159
      },
      "attention": {
        "visibilityEvents": [
          {
            "event": "focus",
            "state": "focused",
            "timestamp": 1772768624102
          },
          {
            "event": "blur",
            "state": "blurred",
            "timestamp": 1772768635203
          },
          {
            "event": "focus",
            "state": "focused",
            "timestamp": 1772768636930
          }
        ]
      },
      "calibration": {
        "monitorWidthCm": 38,
        "viewingDistanceCm": 54,
        "pixelsPerDegree": 50
      },
      "parameters": {
        "coherence": 0.4,
        "apertureDeg": 5,
        "densityDotsPerDeg2": 40,
        "dotDiameterDeg": 0.035,
        "dotSpeedDegPerSec": 3,
        "lifetimeMs": 200,
        "fixationDurationMs": 1500,
        "faceDurationMs": 1500,
        "testDurationMs": 2000,
        "catchResponseMs": 3000
      },
      "prolific": {
        "prolificPid": "5f88fc9a4157a110c725e6f5",
        "studyId": "",
        "sessionId": ""
      },
      "timing": {
        "startTime": "2026-03-06T03:43:44.074Z",
        "endTime": "2026-03-06T03:58:38.587Z",
        "totalElapsedTimeMs": 894513
      }
    },
    "trials": [
      {
        "trial_number": 0,
        "trial_index": 90,
        "rt": 1007,
        "correct": false,
        "response": "ArrowLeft",
        "congruent": false,
        "gazeTowards": false,
        "gazeCondition": "away",
        "faceOnLeft": false,
        "impliedDirection": 180,
        "testDirection": 0,
        "avgFps": 167,
        "minFps": 164,
        "maxFps": 5556,
        "totalFrames": 167,
        "frameRates": 167
      },
      {
        "trial_number": 1,
        "trial_index": 98,
        "rt": 918,
        "correct": true,
        "response": "ArrowRight",
        "congruent": false,
        "gazeTowards": true,
        "gazeCondition": "towards",
        "faceOnLeft": false,
        "impliedDirection": 180,
        "testDirection": 0,
        "avgFps": 166,
        "minFps": 115,
        "maxFps": 3846,
        "totalFrames": 152,
        "frameRates": 166
      },
      {
        "trial_number": 2,
        "trial_index": 103,
        "rt": 915,
        "correct": false,
        "response": "ArrowLeft",
        "congruent": false,
        "gazeTowards": true,
        "gazeCondition": "towards",
        "faceOnLeft": false,
        "impliedDirection": 180,
        "testDirection": 0,
        "avgFps": 166,
        "minFps": 164,
        "maxFps": 12500,
        "totalFrames": 152,
        "frameRates": 166
      },
      {
        "trial_number": 3,
        "trial_index": 108,
        "rt": 768,
        "correct": true,
        "response": "ArrowLeft",
        "congruent": true,
        "gazeTowards": false,
        "gazeCondition": "away",
        "faceOnLeft": false,
        "impliedDirection": 180,
        "testDirection": 180,
        "avgFps": 167,
        "minFps": 164,
        "maxFps": 12500,
        "totalFrames": 128,
        "frameRates": 167
      },
      {
        "trial_number": 4,
        "trial_index": 113,
        "rt": 1075,
        "correct": true,
        "response": "ArrowRight",
        "congruent": false,
        "gazeTowards": false,
        "gazeCondition": "away",
        "faceOnLeft": false,
        "impliedDirection": 180,
        "testDirection": 0,
        "avgFps": 166,
        "minFps": 164,
        "maxFps": 12500,
        "totalFrames": 178,
        "frameRates": 166
      },
      {
        "trial_number": 5,
        "trial_index": 118,
        "rt": 1067,
        "correct": true,
        "response": "ArrowRight",
        "congruent": false,
        "gazeTowards": false,
        "gazeCondition": "away",
        "faceOnLeft": false,
        "impliedDirection": 180,
        "testDirection": 0,
        "avgFps": 166,
        "minFps": 164,
        "maxFps": 16667,
        "totalFrames": 177,
        "frameRates": 166
      },
      {
        "trial_number": 6,
        "trial_index": 126,
        "rt": 942,
        "correct": false,
        "response": "ArrowLeft",
        "congruent": false,
        "gazeTowards": false,
        "gazeCondition": "away",
        "faceOnLeft": false,
        "impliedDirection": 180,
        "testDirection": 0,
        "avgFps": 167,
        "minFps": 164,
        "maxFps": 16667,
        "totalFrames": 157,
        "frameRates": 167
      },
      {
        "trial_number": 7,
        "trial_index": 131,
        "rt": 1145,
        "correct": true,
        "response": "ArrowRight",
        "congruent": true,
        "gazeTowards": false,
        "gazeCondition": "away",
        "faceOnLeft": true,
        "impliedDirection": 0,
        "testDirection": 0,
        "avgFps": 166,
        "minFps": 164,
        "maxFps": 12500,
        "totalFrames": 190,
        "frameRates": 166
      },
      {
        "trial_number": 8,
        "trial_index": 136,
        "rt": 996,
        "correct": true,
        "response": "ArrowLeft",
        "congruent": true,
        "gazeTowards": true,
        "gazeCondition": "towards",
        "faceOnLeft": false,
        "impliedDirection": 180,
        "testDirection": 180,
        "avgFps": 166,
        "minFps": 152,
        "maxFps": 12500,
        "totalFrames": 164,
        "frameRates": 166
      },
      {
        "trial_number": 9,
        "trial_index": 141,
        "rt": 863,
        "correct": true,
        "response": "ArrowLeft",
        "congruent": false,
        "gazeTowards": false,
        "gazeCondition": "away",
        "faceOnLeft": true,
        "impliedDirection": 0,
        "testDirection": 180,
        "avgFps": 166,
        "minFps": 164,
        "maxFps": 7143,
        "totalFrames": 143,
        "frameRates": 166
      },
      {
        "trial_number": 10,
        "trial_index": 149,
        "rt": 1112,
        "correct": true,
        "response": "ArrowRight",
        "congruent": true,
        "gazeTowards": true,
        "gazeCondition": "towards",
        "faceOnLeft": true,
        "impliedDirection": 0,
        "testDirection": 0,
        "avgFps": 166,
        "minFps": 164,
        "maxFps": 2941,
        "totalFrames": 184,
        "frameRates": 166
      },
      {
        "trial_number": 11,
        "trial_index": 154,
        "rt": 1134,
        "correct": true,
        "response": "ArrowRight",
        "congruent": true,
        "gazeTowards": false,
        "gazeCondition": "away",
        "faceOnLeft": true,
        "impliedDirection": 0,
        "testDirection": 0,
        "avgFps": 166,
        "minFps": 164,
        "maxFps": 4545,
        "totalFrames": 188,
        "frameRates": 166
      },
      {
        "trial_number": 12,
        "trial_index": 159,
        "rt": 707,
        "correct": true,
        "response": "ArrowLeft",
        "congruent": true,
        "gazeTowards": false,
        "gazeCondition": "away",
        "faceOnLeft": false,
        "impliedDirection": 180,
        "testDirection": 180,
        "avgFps": 166,
        "minFps": 164,
        "maxFps": 12500,
        "totalFrames": 117,
        "frameRates": 166
      },
      {
        "trial_number": 13,
        "trial_index": 164,
        "rt": 1270,
        "correct": false,
        "response": "ArrowLeft",
        "congruent": true,
        "gazeTowards": true,
        "gazeCondition": "towards",
        "faceOnLeft": true,
        "impliedDirection": 0,
        "testDirection": 0,
        "avgFps": 165,
        "minFps": 128,
        "maxFps": 3333,
        "totalFrames": 210,
        "frameRates": 165
      },
      {
        "trial_number": 14,
        "trial_index": 169,
        "rt": 972,
        "correct": true,
        "response": "ArrowRight",
        "congruent": false,
        "gazeTowards": true,
        "gazeCondition": "towards",
        "faceOnLeft": false,
        "impliedDirection": 180,
        "testDirection": 0,
        "avgFps": 166,
        "minFps": 99,
        "maxFps": 12500,
        "totalFrames": 161,
        "frameRates": 166
      },
      {
        "trial_number": 15,
        "trial_index": 174,
        "rt": 895,
        "correct": true,
        "response": "ArrowLeft",
        "congruent": true,
        "gazeTowards": false,
        "gazeCondition": "away",
        "faceOnLeft": false,
        "impliedDirection": 180,
        "testDirection": 180,
        "avgFps": 166,
        "minFps": 164,
        "maxFps": 12500,
        "totalFrames": 148,
        "frameRates": 166
      },
      {
        "trial_number": 16,
        "trial_index": 179,
        "rt": 831,
        "correct": true,
        "response": "ArrowRight",
        "congruent": false,
        "gazeTowards": true,
        "gazeCondition": "towards",
        "faceOnLeft": false,
        "impliedDirection": 180,
        "testDirection": 0,
        "avgFps": 167,
        "minFps": 164,
        "maxFps": 6250,
        "totalFrames": 138,
        "frameRates": 167
      },
      {
        "trial_number": 17,
        "trial_index": 184,
        "rt": 663,
        "correct": true,
        "response": "ArrowLeft",
        "congruent": true,
        "gazeTowards": true,
        "gazeCondition": "towards",
        "faceOnLeft": false,
        "impliedDirection": 180,
        "testDirection": 180,
        "avgFps": 166,
        "minFps": 107,
        "maxFps": 12500,
        "totalFrames": 110,
        "frameRates": 166
      },
      {
        "trial_number": 18,
        "trial_index": 189,
        "rt": 1002,
        "correct": true,
        "response": "ArrowLeft",
        "congruent": false,
        "gazeTowards": true,
        "gazeCondition": "towards",
        "faceOnLeft": true,
        "impliedDirection": 0,
        "testDirection": 180,
        "avgFps": 166,
        "minFps": 164,
        "maxFps": 12500,
        "totalFrames": 166,
        "frameRates": 166
      },
      {
        "trial_number": 19,
        "trial_index": 194,
        "rt": 980,
        "correct": true,
        "response": "ArrowLeft",
        "congruent": true,
        "gazeTowards": true,
        "gazeCondition": "towards",
        "faceOnLeft": false,
        "impliedDirection": 180,
        "testDirection": 180,
        "avgFps": 166,
        "minFps": 164,
        "maxFps": 12500,
        "totalFrames": 163,
        "frameRates": 166
      },
      {
        "trial_number": 20,
        "trial_index": 199,
        "rt": 1256,
        "correct": true,
        "response": "ArrowLeft",
        "congruent": false,
        "gazeTowards": true,
        "gazeCondition": "towards",
        "faceOnLeft": true,
        "impliedDirection": 0,
        "testDirection": 180,
        "avgFps": 166,
        "minFps": 164,
        "maxFps": 10000,
        "totalFrames": 208,
        "frameRates": 166
      },
      {
        "trial_number": 21,
        "trial_index": 207,
        "rt": 1203,
        "correct": true,
        "response": "ArrowLeft",
        "congruent": true,
        "gazeTowards": true,
        "gazeCondition": "towards",
        "faceOnLeft": false,
        "impliedDirection": 180,
        "testDirection": 180,
        "avgFps": 166,
        "minFps": 104,
        "maxFps": 10000,
        "totalFrames": 199,
        "frameRates": 166
      },
      {
        "trial_number": 22,
        "trial_index": 212,
        "rt": 1010,
        "correct": true,
        "response": "ArrowRight",
        "congruent": true,
        "gazeTowards": true,
        "gazeCondition": "towards",
        "faceOnLeft": true,
        "impliedDirection": 0,
        "testDirection": 0,
        "avgFps": 166,
        "minFps": 131,
        "maxFps": 12500,
        "totalFrames": 167,
        "frameRates": 166
      },
      {
        "trial_number": 23,
        "trial_index": 217,
        "rt": 883,
        "correct": true,
        "response": "ArrowLeft",
        "congruent": true,
        "gazeTowards": false,
        "gazeCondition": "away",
        "faceOnLeft": false,
        "impliedDirection": 180,
        "testDirection": 180,
        "avgFps": 167,
        "minFps": 164,
        "maxFps": 5556,
        "totalFrames": 146,
        "frameRates": 167
      },
      {
        "trial_number": 24,
        "trial_index": 222,
        "rt": 848,
        "correct": true,
        "response": "ArrowRight",
        "congruent": true,
        "gazeTowards": false,
        "gazeCondition": "away",
        "faceOnLeft": true,
        "impliedDirection": 0,
        "testDirection": 0,
        "avgFps": 167,
        "minFps": 164,
        "maxFps": 3571,
        "totalFrames": 141,
        "frameRates": 167
      },
      {
        "trial_number": 25,
        "trial_index": 227,
        "rt": 1093,
        "correct": false,
        "response": "ArrowLeft",
        "congruent": false,
        "gazeTowards": true,
        "gazeCondition": "towards",
        "faceOnLeft": false,
        "impliedDirection": 180,
        "testDirection": 0,
        "avgFps": 166,
        "minFps": 164,
        "maxFps": 12500,
        "totalFrames": 181,
        "frameRates": 166
      },
      {
        "trial_number": 26,
        "trial_index": 232,
        "rt": 1005,
        "correct": true,
        "response": "ArrowRight",
        "congruent": false,
        "gazeTowards": true,
        "gazeCondition": "towards",
        "faceOnLeft": false,
        "impliedDirection": 180,
        "testDirection": 0,
        "avgFps": 166,
        "minFps": 113,
        "maxFps": 10000,
        "totalFrames": 166,
        "frameRates": 166
      },
      {
        "trial_number": 27,
        "trial_index": 237,
        "rt": 918,
        "correct": true,
        "response": "ArrowLeft",
        "congruent": false,
        "gazeTowards": false,
        "gazeCondition": "away",
        "faceOnLeft": true,
        "impliedDirection": 0,
        "testDirection": 180,
        "avgFps": 166,
        "minFps": 164,
        "maxFps": 8333,
        "totalFrames": 152,
        "frameRates": 166
      },
      {
        "trial_number": 28,
        "trial_index": 242,
        "rt": 853,
        "correct": true,
        "response": "ArrowRight",
        "congruent": true,
        "gazeTowards": false,
        "gazeCondition": "away",
        "faceOnLeft": true,
        "impliedDirection": 0,
        "testDirection": 0,
        "avgFps": 166,
        "minFps": 164,
        "maxFps": 12500,
        "totalFrames": 141,
        "frameRates": 166
      },
      {
        "trial_number": 29,
        "trial_index": 248,
        "rt": 1423,
        "correct": true,
        "response": "ArrowRight",
        "congruent": false,
        "gazeTowards": false,
        "gazeCondition": "away",
        "faceOnLeft": false,
        "impliedDirection": 180,
        "testDirection": 0,
        "avgFps": 166,
        "minFps": 164,
        "maxFps": 10000,
        "totalFrames": 236,
        "frameRates": 166
      },
      {
        "trial_number": 30,
        "trial_index": 253,
        "rt": 1387,
        "correct": true,
        "response": "ArrowRight",
        "congruent": false,
        "gazeTowards": false,
        "gazeCondition": "away",
        "faceOnLeft": false,
        "impliedDirection": 180,
        "testDirection": 0,
        "avgFps": 166,
        "minFps": 164,
        "maxFps": 10000,
        "totalFrames": 229,
        "frameRates": 166
      },
      {
        "trial_number": 31,
        "trial_index": 258,
        "rt": 1132,
        "correct": false,
        "response": "ArrowLeft",
        "congruent": false,
        "gazeTowards": false,
        "gazeCondition": "away",
        "faceOnLeft": false,
        "impliedDirection": 180,
        "testDirection": 0,
        "avgFps": 166,
        "minFps": 164,
        "maxFps": 16667,
        "totalFrames": 187,
        "frameRates": 166
      },
      {
        "trial_number": 32,
        "trial_index": 263,
        "rt": 1540,
        "correct": false,
        "response": "ArrowLeft",
        "congruent": false,
        "gazeTowards": false,
        "gazeCondition": "away",
        "faceOnLeft": false,
        "impliedDirection": 180,
        "testDirection": 0,
        "avgFps": 165,
        "minFps": 113,
        "maxFps": 12500,
        "totalFrames": 254,
        "frameRates": 165
      },
      {
        "trial_number": 33,
        "trial_index": 268,
        "rt": 1066,
        "correct": true,
        "response": "ArrowRight",
        "congruent": false,
        "gazeTowards": true,
        "gazeCondition": "towards",
        "faceOnLeft": false,
        "impliedDirection": 180,
        "testDirection": 0,
        "avgFps": 166,
        "minFps": 164,
        "maxFps": 7143,
        "totalFrames": 177,
        "frameRates": 166
      },
      {
        "trial_number": 34,
        "trial_index": 273,
        "rt": 772,
        "correct": true,
        "response": "ArrowLeft",
        "congruent": true,
        "gazeTowards": true,
        "gazeCondition": "towards",
        "faceOnLeft": false,
        "impliedDirection": 180,
        "testDirection": 180,
        "avgFps": 166,
        "minFps": 164,
        "maxFps": 781,
        "totalFrames": 128,
        "frameRates": 166
      },
      {
        "trial_number": 35,
        "trial_index": 278,
        "rt": 803,
        "correct": true,
        "response": "ArrowLeft",
        "congruent": false,
        "gazeTowards": false,
        "gazeCondition": "away",
        "faceOnLeft": true,
        "impliedDirection": 0,
        "testDirection": 180,
        "avgFps": 166,
        "minFps": 127,
        "maxFps": 12500,
        "totalFrames": 133,
        "frameRates": 166
      },
      {
        "trial_number": 36,
        "trial_index": 283,
        "rt": 995,
        "correct": true,
        "response": "ArrowRight",
        "congruent": false,
        "gazeTowards": true,
        "gazeCondition": "towards",
        "faceOnLeft": false,
        "impliedDirection": 180,
        "testDirection": 0,
        "avgFps": 166,
        "minFps": 164,
        "maxFps": 5556,
        "totalFrames": 165,
        "frameRates": 166
      },
      {
        "trial_number": 37,
        "trial_index": 291,
        "rt": 944,
        "correct": true,
        "response": "ArrowLeft",
        "congruent": false,
        "gazeTowards": false,
        "gazeCondition": "away",
        "faceOnLeft": true,
        "impliedDirection": 0,
        "testDirection": 180,
        "avgFps": 165,
        "minFps": 84,
        "maxFps": 16667,
        "totalFrames": 155,
        "frameRates": 165
      },
      {
        "trial_number": 38,
        "trial_index": 296,
        "rt": 1044,
        "correct": true,
        "response": "ArrowRight",
        "congruent": false,
        "gazeTowards": false,
        "gazeCondition": "away",
        "faceOnLeft": false,
        "impliedDirection": 180,
        "testDirection": 0,
        "avgFps": 166,
        "minFps": 164,
        "maxFps": 7143,
        "totalFrames": 173,
        "frameRates": 166
      },
      {
        "trial_number": 39,
        "trial_index": 301,
        "rt": 1329,
        "correct": false,
        "response": "ArrowLeft",
        "congruent": false,
        "gazeTowards": false,
        "gazeCondition": "away",
        "faceOnLeft": false,
        "impliedDirection": 180,
        "testDirection": 0,
        "avgFps": 166,
        "minFps": 164,
        "maxFps": 4545,
        "totalFrames": 220,
        "frameRates": 166
      },
      {
        "trial_number": 40,
        "trial_index": 306,
        "rt": 991,
        "correct": true,
        "response": "ArrowLeft",
        "congruent": false,
        "gazeTowards": false,
        "gazeCondition": "away",
        "faceOnLeft": true,
        "impliedDirection": 0,
        "testDirection": 180,
        "avgFps": 166,
        "minFps": 164,
        "maxFps": 16667,
        "totalFrames": 164,
        "frameRates": 166
      },
      {
        "trial_number": 41,
        "trial_index": 314,
        "rt": 1065,
        "correct": true,
        "response": "ArrowLeft",
        "congruent": true,
        "gazeTowards": false,
        "gazeCondition": "away",
        "faceOnLeft": false,
        "impliedDirection": 180,
        "testDirection": 180,
        "avgFps": 166,
        "minFps": 140,
        "maxFps": 4545,
        "totalFrames": 176,
        "frameRates": 166
      },
      {
        "trial_number": 42,
        "trial_index": 319,
        "rt": 1089,
        "correct": true,
        "response": "ArrowRight",
        "congruent": false,
        "gazeTowards": true,
        "gazeCondition": "towards",
        "faceOnLeft": false,
        "impliedDirection": 180,
        "testDirection": 0,
        "avgFps": 166,
        "minFps": 164,
        "maxFps": 12500,
        "totalFrames": 180,
        "frameRates": 166
      },
      {
        "trial_number": 43,
        "trial_index": 324,
        "rt": 1540,
        "correct": true,
        "response": "ArrowRight",
        "congruent": true,
        "gazeTowards": true,
        "gazeCondition": "towards",
        "faceOnLeft": true,
        "impliedDirection": 0,
        "testDirection": 0,
        "avgFps": 166,
        "minFps": 164,
        "maxFps": 12500,
        "totalFrames": 255,
        "frameRates": 166
      },
      {
        "trial_number": 44,
        "trial_index": 329,
        "rt": 693,
        "correct": true,
        "response": "ArrowLeft",
        "congruent": true,
        "gazeTowards": false,
        "gazeCondition": "away",
        "faceOnLeft": false,
        "impliedDirection": 180,
        "testDirection": 180,
        "avgFps": 167,
        "minFps": 164,
        "maxFps": 4167,
        "totalFrames": 116,
        "frameRates": 167
      },
      {
        "trial_number": 45,
        "trial_index": 334,
        "rt": 747,
        "correct": true,
        "response": "ArrowRight",
        "congruent": false,
        "gazeTowards": true,
        "gazeCondition": "towards",
        "faceOnLeft": false,
        "impliedDirection": 180,
        "testDirection": 0,
        "avgFps": 166,
        "minFps": 164,
        "maxFps": 12500,
        "totalFrames": 124,
        "frameRates": 166
      },
      {
        "trial_number": 46,
        "trial_index": 339,
        "rt": 814,
        "correct": true,
        "response": "ArrowLeft",
        "congruent": false,
        "gazeTowards": true,
        "gazeCondition": "towards",
        "faceOnLeft": true,
        "impliedDirection": 0,
        "testDirection": 180,
        "avgFps": 167,
        "minFps": 164,
        "maxFps": 10000,
        "totalFrames": 135,
        "frameRates": 167
      },
      {
        "trial_number": 47,
        "trial_index": 344,
        "rt": 868,
        "correct": true,
        "response": "ArrowRight",
        "congruent": true,
        "gazeTowards": true,
        "gazeCondition": "towards",
        "faceOnLeft": true,
        "impliedDirection": 0,
        "testDirection": 0,
        "avgFps": 167,
        "minFps": 164,
        "maxFps": 10000,
        "totalFrames": 144,
        "frameRates": 167
      },
      {
        "trial_number": 48,
        "trial_index": 349,
        "rt": 979,
        "correct": true,
        "response": "ArrowLeft",
        "congruent": true,
        "gazeTowards": true,
        "gazeCondition": "towards",
        "faceOnLeft": false,
        "impliedDirection": 180,
        "testDirection": 180,
        "avgFps": 166,
        "minFps": 164,
        "maxFps": 12500,
        "totalFrames": 162,
        "frameRates": 166
      },
      {
        "trial_number": 49,
        "trial_index": 354,
        "rt": 725,
        "correct": true,
        "response": "ArrowRight",
        "congruent": true,
        "gazeTowards": true,
        "gazeCondition": "towards",
        "faceOnLeft": true,
        "impliedDirection": 0,
        "testDirection": 0,
        "avgFps": 167,
        "minFps": 164,
        "maxFps": 10000,
        "totalFrames": 120,
        "frameRates": 167
      },
      {
        "trial_number": 50,
        "trial_index": 359,
        "rt": 845,
        "correct": true,
        "response": "ArrowLeft",
        "congruent": false,
        "gazeTowards": true,
        "gazeCondition": "towards",
        "faceOnLeft": true,
        "impliedDirection": 0,
        "testDirection": 180,
        "avgFps": 167,
        "minFps": 164,
        "maxFps": 16667,
        "totalFrames": 140,
        "frameRates": 167
      },
      {
        "trial_number": 51,
        "trial_index": 364,
        "rt": 843,
        "correct": true,
        "response": "ArrowLeft",
        "congruent": false,
        "gazeTowards": true,
        "gazeCondition": "towards",
        "faceOnLeft": true,
        "impliedDirection": 0,
        "testDirection": 180,
        "avgFps": 161,
        "minFps": 34,
        "maxFps": 5556,
        "totalFrames": 136,
        "frameRates": 161
      },
      {
        "trial_number": 52,
        "trial_index": 369,
        "rt": 1354,
        "correct": false,
        "response": "ArrowRight",
        "congruent": false,
        "gazeTowards": false,
        "gazeCondition": "away",
        "faceOnLeft": true,
        "impliedDirection": 0,
        "testDirection": 180,
        "avgFps": 166,
        "minFps": 164,
        "maxFps": 4167,
        "totalFrames": 224,
        "frameRates": 166
      },
      {
        "trial_number": 53,
        "trial_index": 374,
        "rt": 999,
        "correct": true,
        "response": "ArrowLeft",
        "congruent": false,
        "gazeTowards": false,
        "gazeCondition": "away",
        "faceOnLeft": true,
        "impliedDirection": 0,
        "testDirection": 180,
        "avgFps": 166,
        "minFps": 124,
        "maxFps": 7143,
        "totalFrames": 165,
        "frameRates": 166
      },
      {
        "trial_number": 54,
        "trial_index": 379,
        "rt": 1236,
        "correct": true,
        "response": "ArrowLeft",
        "congruent": true,
        "gazeTowards": true,
        "gazeCondition": "towards",
        "faceOnLeft": false,
        "impliedDirection": 180,
        "testDirection": 180,
        "avgFps": 166,
        "minFps": 164,
        "maxFps": 12500,
        "totalFrames": 205,
        "frameRates": 166
      },
      {
        "trial_number": 55,
        "trial_index": 384,
        "rt": 1244,
        "correct": true,
        "response": "ArrowLeft",
        "congruent": true,
        "gazeTowards": false,
        "gazeCondition": "away",
        "faceOnLeft": false,
        "impliedDirection": 180,
        "testDirection": 180,
        "avgFps": 166,
        "minFps": 164,
        "maxFps": 10000,
        "totalFrames": 206,
        "frameRates": 166
      },
      {
        "trial_number": 56,
        "trial_index": 389,
        "rt": 1318,
        "correct": true,
        "response": "ArrowLeft",
        "congruent": false,
        "gazeTowards": false,
        "gazeCondition": "away",
        "faceOnLeft": true,
        "impliedDirection": 0,
        "testDirection": 180,
        "avgFps": 166,
        "minFps": 164,
        "maxFps": 16667,
        "totalFrames": 218,
        "frameRates": 166
      },
      {
        "trial_number": 57,
        "trial_index": 394,
        "rt": 798,
        "correct": true,
        "response": "ArrowRight",
        "congruent": false,
        "gazeTowards": true,
        "gazeCondition": "towards",
        "faceOnLeft": false,
        "impliedDirection": 180,
        "testDirection": 0,
        "avgFps": 167,
        "minFps": 164,
        "maxFps": 3333,
        "totalFrames": 133,
        "frameRates": 167
      },
      {
        "trial_number": 58,
        "trial_index": 399,
        "rt": 1279,
        "correct": true,
        "response": "ArrowLeft",
        "congruent": false,
        "gazeTowards": false,
        "gazeCondition": "away",
        "faceOnLeft": true,
        "impliedDirection": 0,
        "testDirection": 180,
        "avgFps": 166,
        "minFps": 153,
        "maxFps": 10000,
        "totalFrames": 211,
        "frameRates": 166
      },
      {
        "trial_number": 59,
        "trial_index": 404,
        "rt": 1564,
        "correct": true,
        "response": "ArrowLeft",
        "congruent": false,
        "gazeTowards": true,
        "gazeCondition": "towards",
        "faceOnLeft": true,
        "impliedDirection": 0,
        "testDirection": 180,
        "avgFps": 165,
        "minFps": 164,
        "maxFps": 12500,
        "totalFrames": 258,
        "frameRates": 165
      },
      {
        "trial_number": 60,
        "trial_index": 410,
        "rt": 801,
        "correct": true,
        "response": "ArrowRight",
        "congruent": true,
        "gazeTowards": false,
        "gazeCondition": "away",
        "faceOnLeft": true,
        "impliedDirection": 0,
        "testDirection": 0,
        "avgFps": 166,
        "minFps": 164,
        "maxFps": 12500,
        "totalFrames": 133,
        "frameRates": 166
      },
      {
        "trial_number": 61,
        "trial_index": 418,
        "rt": 1057,
        "correct": true,
        "response": "ArrowLeft",
        "congruent": true,
        "gazeTowards": true,
        "gazeCondition": "towards",
        "faceOnLeft": false,
        "impliedDirection": 180,
        "testDirection": 180,
        "avgFps": 166,
        "minFps": 164,
        "maxFps": 12500,
        "totalFrames": 175,
        "frameRates": 166
      },
      {
        "trial_number": 62,
        "trial_index": 423,
        "rt": 1200,
        "correct": true,
        "response": "ArrowRight",
        "congruent": true,
        "gazeTowards": false,
        "gazeCondition": "away",
        "faceOnLeft": true,
        "impliedDirection": 0,
        "testDirection": 0,
        "avgFps": 166,
        "minFps": 164,
        "maxFps": 4167,
        "totalFrames": 199,
        "frameRates": 166
      },
      {
        "trial_number": 63,
        "trial_index": 428,
        "rt": 1072,
        "correct": true,
        "response": "ArrowRight",
        "congruent": true,
        "gazeTowards": true,
        "gazeCondition": "towards",
        "faceOnLeft": true,
        "impliedDirection": 0,
        "testDirection": 0,
        "avgFps": 166,
        "minFps": 164,
        "maxFps": 12500,
        "totalFrames": 178,
        "frameRates": 166
      },
      {
        "trial_number": 64,
        "trial_index": 433,
        "rt": 863,
        "correct": true,
        "response": "ArrowLeft",
        "congruent": true,
        "gazeTowards": false,
        "gazeCondition": "away",
        "faceOnLeft": false,
        "impliedDirection": 180,
        "testDirection": 180,
        "avgFps": 167,
        "minFps": 164,
        "maxFps": 12500,
        "totalFrames": 143,
        "frameRates": 167
      },
      {
        "trial_number": 65,
        "trial_index": 438,
        "rt": 1024,
        "correct": true,
        "response": "ArrowLeft",
        "congruent": false,
        "gazeTowards": false,
        "gazeCondition": "away",
        "faceOnLeft": true,
        "impliedDirection": 0,
        "testDirection": 180,
        "avgFps": 166,
        "minFps": 129,
        "maxFps": 10000,
        "totalFrames": 169,
        "frameRates": 166
      },
      {
        "trial_number": 66,
        "trial_index": 443,
        "rt": 1170,
        "correct": true,
        "response": "ArrowRight",
        "congruent": true,
        "gazeTowards": true,
        "gazeCondition": "towards",
        "faceOnLeft": true,
        "impliedDirection": 0,
        "testDirection": 0,
        "avgFps": 166,
        "minFps": 164,
        "maxFps": 12500,
        "totalFrames": 194,
        "frameRates": 166
      },
      {
        "trial_number": 67,
        "trial_index": 448,
        "rt": 1256,
        "correct": true,
        "response": "ArrowRight",
        "congruent": false,
        "gazeTowards": true,
        "gazeCondition": "towards",
        "faceOnLeft": false,
        "impliedDirection": 180,
        "testDirection": 0,
        "avgFps": 166,
        "minFps": 164,
        "maxFps": 5556,
        "totalFrames": 208,
        "frameRates": 166
      },
      {
        "trial_number": 68,
        "trial_index": 453,
        "rt": 808,
        "correct": true,
        "response": "ArrowLeft",
        "congruent": true,
        "gazeTowards": false,
        "gazeCondition": "away",
        "faceOnLeft": false,
        "impliedDirection": 180,
        "testDirection": 180,
        "avgFps": 166,
        "minFps": 164,
        "maxFps": 10000,
        "totalFrames": 134,
        "frameRates": 166
      },
      {
        "trial_number": 69,
        "trial_index": 461,
        "rt": 1300,
        "correct": true,
        "response": "ArrowRight",
        "congruent": false,
        "gazeTowards": false,
        "gazeCondition": "away",
        "faceOnLeft": false,
        "impliedDirection": 180,
        "testDirection": 0,
        "avgFps": 166,
        "minFps": 164,
        "maxFps": 4545,
        "totalFrames": 216,
        "frameRates": 166
      },
      {
        "trial_number": 70,
        "trial_index": 466,
        "rt": 1001,
        "correct": true,
        "response": "ArrowLeft",
        "congruent": true,
        "gazeTowards": true,
        "gazeCondition": "towards",
        "faceOnLeft": false,
        "impliedDirection": 180,
        "testDirection": 180,
        "avgFps": 166,
        "minFps": 164,
        "maxFps": 6250,
        "totalFrames": 166,
        "frameRates": 166
      },
      {
        "trial_number": 71,
        "trial_index": 471,
        "rt": 1376,
        "correct": false,
        "response": "ArrowLeft",
        "congruent": false,
        "gazeTowards": true,
        "gazeCondition": "towards",
        "faceOnLeft": false,
        "impliedDirection": 180,
        "testDirection": 0,
        "avgFps": 166,
        "minFps": 164,
        "maxFps": 12500,
        "totalFrames": 228,
        "frameRates": 166
      },
      {
        "trial_number": 72,
        "trial_index": 476,
        "rt": 1452,
        "correct": false,
        "response": "ArrowLeft",
        "congruent": true,
        "gazeTowards": true,
        "gazeCondition": "towards",
        "faceOnLeft": true,
        "impliedDirection": 0,
        "testDirection": 0,
        "avgFps": 166,
        "minFps": 164,
        "maxFps": 12500,
        "totalFrames": 240,
        "frameRates": 166
      },
      {
        "trial_number": 73,
        "trial_index": 481,
        "rt": 1409,
        "correct": true,
        "response": "ArrowLeft",
        "congruent": false,
        "gazeTowards": true,
        "gazeCondition": "towards",
        "faceOnLeft": true,
        "impliedDirection": 0,
        "testDirection": 180,
        "avgFps": 166,
        "minFps": 164,
        "maxFps": 12500,
        "totalFrames": 233,
        "frameRates": 166
      },
      {
        "trial_number": 74,
        "trial_index": 486,
        "rt": 1121,
        "correct": true,
        "response": "ArrowLeft",
        "congruent": false,
        "gazeTowards": true,
        "gazeCondition": "towards",
        "faceOnLeft": true,
        "impliedDirection": 0,
        "testDirection": 180,
        "avgFps": 166,
        "minFps": 125,
        "maxFps": 12500,
        "totalFrames": 185,
        "frameRates": 166
      },
      {
        "trial_number": 75,
        "trial_index": 491,
        "rt": 1581,
        "correct": false,
        "response": "ArrowRight",
        "congruent": false,
        "gazeTowards": true,
        "gazeCondition": "towards",
        "faceOnLeft": true,
        "impliedDirection": 0,
        "testDirection": 180,
        "avgFps": 166,
        "minFps": 164,
        "maxFps": 10000,
        "totalFrames": 261,
        "frameRates": 166
      },
      {
        "trial_number": 76,
        "trial_index": 496,
        "rt": 1256,
        "correct": true,
        "response": "ArrowLeft",
        "congruent": true,
        "gazeTowards": true,
        "gazeCondition": "towards",
        "faceOnLeft": false,
        "impliedDirection": 180,
        "testDirection": 180,
        "avgFps": 166,
        "minFps": 164,
        "maxFps": 10000,
        "totalFrames": 208,
        "frameRates": 166
      },
      {
        "trial_number": 77,
        "trial_index": 501,
        "rt": 1509,
        "correct": false,
        "response": "ArrowRight",
        "congruent": true,
        "gazeTowards": false,
        "gazeCondition": "away",
        "faceOnLeft": false,
        "impliedDirection": 180,
        "testDirection": 180,
        "avgFps": 166,
        "minFps": 164,
        "maxFps": 12500,
        "totalFrames": 250,
        "frameRates": 166
      },
      {
        "trial_number": 78,
        "trial_index": 506,
        "rt": 1576,
        "correct": true,
        "response": "ArrowLeft",
        "congruent": true,
        "gazeTowards": false,
        "gazeCondition": "away",
        "faceOnLeft": false,
        "impliedDirection": 180,
        "testDirection": 180,
        "avgFps": 166,
        "minFps": 164,
        "maxFps": 12500,
        "totalFrames": 261,
        "frameRates": 166
      },
      {
        "trial_number": 79,
        "trial_index": 511,
        "rt": 1402,
        "correct": true,
        "response": "ArrowRight",
        "congruent": true,
        "gazeTowards": false,
        "gazeCondition": "away",
        "faceOnLeft": true,
        "impliedDirection": 0,
        "testDirection": 0,
        "avgFps": 166,
        "minFps": 164,
        "maxFps": 12500,
        "totalFrames": 232,
        "frameRates": 166
      },
      {
        "trial_number": 80,
        "trial_index": 516,
        "rt": 1478,
        "correct": false,
        "response": "ArrowLeft",
        "congruent": false,
        "gazeTowards": true,
        "gazeCondition": "towards",
        "faceOnLeft": false,
        "impliedDirection": 180,
        "testDirection": 0,
        "avgFps": 166,
        "minFps": 164,
        "maxFps": 12500,
        "totalFrames": 244,
        "frameRates": 166
      },
      {
        "trial_number": 81,
        "trial_index": 521,
        "rt": 1390,
        "correct": true,
        "response": "ArrowLeft",
        "congruent": false,
        "gazeTowards": false,
        "gazeCondition": "away",
        "faceOnLeft": true,
        "impliedDirection": 0,
        "testDirection": 180,
        "avgFps": 166,
        "minFps": 164,
        "maxFps": 12500,
        "totalFrames": 231,
        "frameRates": 166
      },
      {
        "trial_number": 82,
        "trial_index": 526,
        "rt": 1208,
        "correct": true,
        "response": "ArrowLeft",
        "congruent": true,
        "gazeTowards": true,
        "gazeCondition": "towards",
        "faceOnLeft": false,
        "impliedDirection": 180,
        "testDirection": 180,
        "avgFps": 166,
        "minFps": 164,
        "maxFps": 10000,
        "totalFrames": 200,
        "frameRates": 166
      },
      {
        "trial_number": 83,
        "trial_index": 531,
        "rt": 1275,
        "correct": true,
        "response": "ArrowLeft",
        "congruent": false,
        "gazeTowards": false,
        "gazeCondition": "away",
        "faceOnLeft": true,
        "impliedDirection": 0,
        "testDirection": 180,
        "avgFps": 166,
        "minFps": 164,
        "maxFps": 12500,
        "totalFrames": 211,
        "frameRates": 166
      },
      {
        "trial_number": 84,
        "trial_index": 536,
        "rt": 1246,
        "correct": true,
        "response": "ArrowLeft",
        "congruent": false,
        "gazeTowards": false,
        "gazeCondition": "away",
        "faceOnLeft": true,
        "impliedDirection": 0,
        "testDirection": 180,
        "avgFps": 166,
        "minFps": 128,
        "maxFps": 12500,
        "totalFrames": 206,
        "frameRates": 166
      },
      {
        "trial_number": 85,
        "trial_index": 541,
        "rt": 1487,
        "correct": false,
        "response": "ArrowRight",
        "congruent": true,
        "gazeTowards": false,
        "gazeCondition": "away",
        "faceOnLeft": false,
        "impliedDirection": 180,
        "testDirection": 180,
        "avgFps": 166,
        "minFps": 163,
        "maxFps": 12500,
        "totalFrames": 246,
        "frameRates": 166
      },
      {
        "trial_number": 86,
        "trial_index": 546,
        "rt": 1470,
        "correct": false,
        "response": "ArrowLeft",
        "congruent": true,
        "gazeTowards": false,
        "gazeCondition": "away",
        "faceOnLeft": true,
        "impliedDirection": 0,
        "testDirection": 0,
        "avgFps": 166,
        "minFps": 164,
        "maxFps": 12500,
        "totalFrames": 243,
        "frameRates": 166
      },
      {
        "trial_number": 87,
        "trial_index": 551,
        "rt": 1773,
        "correct": false,
        "response": "ArrowLeft",
        "congruent": false,
        "gazeTowards": true,
        "gazeCondition": "towards",
        "faceOnLeft": false,
        "impliedDirection": 180,
        "testDirection": 0,
        "avgFps": 165,
        "minFps": 131,
        "maxFps": 3333,
        "totalFrames": 293,
        "frameRates": 165
      },
      {
        "trial_number": 88,
        "trial_index": 556,
        "rt": 1745,
        "correct": true,
        "response": "ArrowLeft",
        "congruent": true,
        "gazeTowards": false,
        "gazeCondition": "away",
        "faceOnLeft": false,
        "impliedDirection": 180,
        "testDirection": 180,
        "avgFps": 166,
        "minFps": 164,
        "maxFps": 2500,
        "totalFrames": 289,
        "frameRates": 166
      },
      {
        "trial_number": 89,
        "trial_index": 561,
        "rt": 1634,
        "correct": true,
        "response": "ArrowRight",
        "congruent": false,
        "gazeTowards": true,
        "gazeCondition": "towards",
        "faceOnLeft": false,
        "impliedDirection": 180,
        "testDirection": 0,
        "avgFps": 166,
        "minFps": 164,
        "maxFps": 12500,
        "totalFrames": 271,
        "frameRates": 166
      },
      {
        "trial_number": 90,
        "trial_index": 566,
        "rt": 1969,
        "correct": false,
        "response": "ArrowLeft",
        "congruent": true,
        "gazeTowards": false,
        "gazeCondition": "away",
        "faceOnLeft": true,
        "impliedDirection": 0,
        "testDirection": 0,
        "avgFps": 166,
        "minFps": 164,
        "maxFps": 12500,
        "totalFrames": 326,
        "frameRates": 166
      },
      {
        "trial_number": 91,
        "trial_index": 572,
        "rt": 779,
        "correct": true,
        "response": "ArrowLeft",
        "congruent": false,
        "gazeTowards": true,
        "gazeCondition": "towards",
        "faceOnLeft": true,
        "impliedDirection": 0,
        "testDirection": 180,
        "avgFps": 167,
        "minFps": 164,
        "maxFps": 7143,
        "totalFrames": 129,
        "frameRates": 167
      },
      {
        "trial_number": 92,
        "trial_index": 577,
        "rt": 812,
        "correct": true,
        "response": "ArrowLeft",
        "congruent": false,
        "gazeTowards": false,
        "gazeCondition": "away",
        "faceOnLeft": true,
        "impliedDirection": 0,
        "testDirection": 180,
        "avgFps": 166,
        "minFps": 164,
        "maxFps": 8333,
        "totalFrames": 135,
        "frameRates": 166
      },
      {
        "trial_number": 93,
        "trial_index": 582,
        "rt": 1445,
        "correct": true,
        "response": "ArrowRight",
        "congruent": false,
        "gazeTowards": false,
        "gazeCondition": "away",
        "faceOnLeft": false,
        "impliedDirection": 180,
        "testDirection": 0,
        "avgFps": 166,
        "minFps": 164,
        "maxFps": 12500,
        "totalFrames": 239,
        "frameRates": 166
      },
      {
        "trial_number": 94,
        "trial_index": 587,
        "rt": 1099,
        "correct": true,
        "response": "ArrowLeft",
        "congruent": true,
        "gazeTowards": true,
        "gazeCondition": "towards",
        "faceOnLeft": false,
        "impliedDirection": 180,
        "testDirection": 180,
        "avgFps": 166,
        "minFps": 136,
        "maxFps": 12500,
        "totalFrames": 181,
        "frameRates": 166
      },
      {
        "trial_number": 95,
        "trial_index": 592,
        "rt": 1040,
        "correct": true,
        "response": "ArrowRight",
        "congruent": true,
        "gazeTowards": false,
        "gazeCondition": "away",
        "faceOnLeft": true,
        "impliedDirection": 0,
        "testDirection": 0,
        "avgFps": 166,
        "minFps": 164,
        "maxFps": 12500,
        "totalFrames": 172,
        "frameRates": 166
      },
      {
        "trial_number": 96,
        "trial_index": 597,
        "rt": 719,
        "correct": true,
        "response": "ArrowLeft",
        "congruent": false,
        "gazeTowards": false,
        "gazeCondition": "away",
        "faceOnLeft": true,
        "impliedDirection": 0,
        "testDirection": 180,
        "avgFps": 166,
        "minFps": 164,
        "maxFps": 4167,
        "totalFrames": 119,
        "frameRates": 166
      },
      {
        "trial_number": 97,
        "trial_index": 602,
        "rt": 1034,
        "correct": true,
        "response": "ArrowRight",
        "congruent": true,
        "gazeTowards": true,
        "gazeCondition": "towards",
        "faceOnLeft": true,
        "impliedDirection": 0,
        "testDirection": 0,
        "avgFps": 166,
        "minFps": 164,
        "maxFps": 10000,
        "totalFrames": 171,
        "frameRates": 166
      },
      {
        "trial_number": 98,
        "trial_index": 607,
        "rt": 705,
        "correct": true,
        "response": "ArrowLeft",
        "congruent": true,
        "gazeTowards": false,
        "gazeCondition": "away",
        "faceOnLeft": false,
        "impliedDirection": 180,
        "testDirection": 180,
        "avgFps": 167,
        "minFps": 164,
        "maxFps": 12500,
        "totalFrames": 117,
        "frameRates": 167
      },
      {
        "trial_number": 99,
        "trial_index": 612,
        "rt": 1099,
        "correct": true,
        "response": "ArrowRight",
        "congruent": true,
        "gazeTowards": true,
        "gazeCondition": "towards",
        "faceOnLeft": true,
        "impliedDirection": 0,
        "testDirection": 0,
        "avgFps": 166,
        "minFps": 142,
        "maxFps": 12500,
        "totalFrames": 181,
        "frameRates": 166
      },
      {
        "trial_number": 100,
        "trial_index": 617,
        "rt": 793,
        "correct": true,
        "response": "ArrowLeft",
        "congruent": true,
        "gazeTowards": true,
        "gazeCondition": "towards",
        "faceOnLeft": false,
        "impliedDirection": 180,
        "testDirection": 180,
        "avgFps": 166,
        "minFps": 164,
        "maxFps": 10000,
        "totalFrames": 131,
        "frameRates": 166
      },
      {
        "trial_number": 101,
        "trial_index": 622,
        "rt": 973,
        "correct": true,
        "response": "ArrowLeft",
        "congruent": true,
        "gazeTowards": true,
        "gazeCondition": "towards",
        "faceOnLeft": false,
        "impliedDirection": 180,
        "testDirection": 180,
        "avgFps": 166,
        "minFps": 128,
        "maxFps": 12500,
        "totalFrames": 161,
        "frameRates": 166
      },
      {
        "trial_number": 102,
        "trial_index": 627,
        "rt": 1302,
        "correct": false,
        "response": "ArrowRight",
        "congruent": false,
        "gazeTowards": false,
        "gazeCondition": "away",
        "faceOnLeft": true,
        "impliedDirection": 0,
        "testDirection": 180,
        "avgFps": 166,
        "minFps": 164,
        "maxFps": 12500,
        "totalFrames": 216,
        "frameRates": 166
      },
      {
        "trial_number": 103,
        "trial_index": 632,
        "rt": 1164,
        "correct": true,
        "response": "ArrowLeft",
        "congruent": true,
        "gazeTowards": true,
        "gazeCondition": "towards",
        "faceOnLeft": false,
        "impliedDirection": 180,
        "testDirection": 180,
        "avgFps": 163,
        "minFps": 46,
        "maxFps": 5000,
        "totalFrames": 190,
        "frameRates": 163
      },
      {
        "trial_number": 104,
        "trial_index": 637,
        "rt": 1080,
        "correct": true,
        "response": "ArrowLeft",
        "congruent": true,
        "gazeTowards": true,
        "gazeCondition": "towards",
        "faceOnLeft": false,
        "impliedDirection": 180,
        "testDirection": 180,
        "avgFps": 166,
        "minFps": 164,
        "maxFps": 3846,
        "totalFrames": 179,
        "frameRates": 166
      },
      {
        "trial_number": 105,
        "trial_index": 642,
        "rt": 1008,
        "correct": true,
        "response": "ArrowRight",
        "congruent": true,
        "gazeTowards": false,
        "gazeCondition": "away",
        "faceOnLeft": true,
        "impliedDirection": 0,
        "testDirection": 0,
        "avgFps": 166,
        "minFps": 157,
        "maxFps": 12500,
        "totalFrames": 167,
        "frameRates": 166
      },
      {
        "trial_number": 106,
        "trial_index": 647,
        "rt": 932,
        "correct": true,
        "response": "ArrowRight",
        "congruent": true,
        "gazeTowards": false,
        "gazeCondition": "away",
        "faceOnLeft": true,
        "impliedDirection": 0,
        "testDirection": 0,
        "avgFps": 166,
        "minFps": 164,
        "maxFps": 6250,
        "totalFrames": 155,
        "frameRates": 166
      },
      {
        "trial_number": 107,
        "trial_index": 652,
        "rt": 643,
        "correct": true,
        "response": "ArrowLeft",
        "congruent": false,
        "gazeTowards": false,
        "gazeCondition": "away",
        "faceOnLeft": true,
        "impliedDirection": 0,
        "testDirection": 180,
        "avgFps": 168,
        "minFps": 164,
        "maxFps": 16667,
        "totalFrames": 107,
        "frameRates": 168
      },
      {
        "trial_number": 108,
        "trial_index": 657,
        "rt": 799,
        "correct": false,
        "response": "ArrowRight",
        "congruent": true,
        "gazeTowards": false,
        "gazeCondition": "away",
        "faceOnLeft": false,
        "impliedDirection": 180,
        "testDirection": 180,
        "avgFps": 166,
        "minFps": 164,
        "maxFps": 12500,
        "totalFrames": 132,
        "frameRates": 166
      },
      {
        "trial_number": 109,
        "trial_index": 665,
        "rt": 1649,
        "correct": true,
        "response": "ArrowLeft",
        "congruent": false,
        "gazeTowards": true,
        "gazeCondition": "towards",
        "faceOnLeft": true,
        "impliedDirection": 0,
        "testDirection": 180,
        "avgFps": 166,
        "minFps": 164,
        "maxFps": 12500,
        "totalFrames": 273,
        "frameRates": 166
      },
      {
        "trial_number": 110,
        "trial_index": 670,
        "rt": 968,
        "correct": true,
        "response": "ArrowLeft",
        "congruent": true,
        "gazeTowards": true,
        "gazeCondition": "towards",
        "faceOnLeft": false,
        "impliedDirection": 180,
        "testDirection": 180,
        "avgFps": 166,
        "minFps": 131,
        "maxFps": 10000,
        "totalFrames": 160,
        "frameRates": 166
      },
      {
        "trial_number": 111,
        "trial_index": 675,
        "rt": 718,
        "correct": true,
        "response": "ArrowRight",
        "congruent": false,
        "gazeTowards": true,
        "gazeCondition": "towards",
        "faceOnLeft": false,
        "impliedDirection": 180,
        "testDirection": 0,
        "avgFps": 167,
        "minFps": 164,
        "maxFps": 12500,
        "totalFrames": 120,
        "frameRates": 167
      },
      {
        "trial_number": 112,
        "trial_index": 680,
        "rt": 1003,
        "correct": false,
        "response": "ArrowLeft",
        "congruent": false,
        "gazeTowards": true,
        "gazeCondition": "towards",
        "faceOnLeft": false,
        "impliedDirection": 180,
        "testDirection": 0,
        "avgFps": 166,
        "minFps": 164,
        "maxFps": 5556,
        "totalFrames": 166,
        "frameRates": 166
      },
      {
        "trial_number": 113,
        "trial_index": 688,
        "rt": 1122,
        "correct": false,
        "response": "ArrowLeft",
        "congruent": true,
        "gazeTowards": false,
        "gazeCondition": "away",
        "faceOnLeft": true,
        "impliedDirection": 0,
        "testDirection": 0,
        "avgFps": 166,
        "minFps": 127,
        "maxFps": 12500,
        "totalFrames": 185,
        "frameRates": 166
      },
      {
        "trial_number": 114,
        "trial_index": 693,
        "rt": 860,
        "correct": true,
        "response": "ArrowLeft",
        "congruent": true,
        "gazeTowards": true,
        "gazeCondition": "towards",
        "faceOnLeft": false,
        "impliedDirection": 180,
        "testDirection": 180,
        "avgFps": 166,
        "minFps": 128,
        "maxFps": 3333,
        "totalFrames": 142,
        "frameRates": 166
      },
      {
        "trial_number": 115,
        "trial_index": 701,
        "rt": 789,
        "correct": true,
        "response": "ArrowLeft",
        "congruent": true,
        "gazeTowards": true,
        "gazeCondition": "towards",
        "faceOnLeft": false,
        "impliedDirection": 180,
        "testDirection": 180,
        "avgFps": 165,
        "minFps": 76,
        "maxFps": 12500,
        "totalFrames": 130,
        "frameRates": 165
      },
      {
        "trial_number": 116,
        "trial_index": 706,
        "rt": 682,
        "correct": true,
        "response": "ArrowRight",
        "congruent": false,
        "gazeTowards": true,
        "gazeCondition": "towards",
        "faceOnLeft": false,
        "impliedDirection": 180,
        "testDirection": 0,
        "avgFps": 167,
        "minFps": 164,
        "maxFps": 12500,
        "totalFrames": 114,
        "frameRates": 167
      },
      {
        "trial_number": 117,
        "trial_index": 714,
        "rt": 696,
        "correct": true,
        "response": "ArrowLeft",
        "congruent": false,
        "gazeTowards": false,
        "gazeCondition": "away",
        "faceOnLeft": true,
        "impliedDirection": 0,
        "testDirection": 180,
        "avgFps": 167,
        "minFps": 164,
        "maxFps": 12500,
        "totalFrames": 116,
        "frameRates": 167
      },
      {
        "trial_number": 118,
        "trial_index": 719,
        "rt": 752,
        "correct": true,
        "response": "ArrowRight",
        "congruent": true,
        "gazeTowards": false,
        "gazeCondition": "away",
        "faceOnLeft": true,
        "impliedDirection": 0,
        "testDirection": 0,
        "avgFps": 167,
        "minFps": 164,
        "maxFps": 12500,
        "totalFrames": 125,
        "frameRates": 167
      },
      {
        "trial_number": 119,
        "trial_index": 724,
        "rt": 1020,
        "correct": true,
        "response": "ArrowRight",
        "congruent": true,
        "gazeTowards": false,
        "gazeCondition": "away",
        "faceOnLeft": true,
        "impliedDirection": 0,
        "testDirection": 0,
        "avgFps": 166,
        "minFps": 164,
        "maxFps": 12500,
        "totalFrames": 169,
        "frameRates": 166
      }
    ],
    "catch": {
      "total": 12,
      "correct": 12,
      "accuracy": 100,
      "meanRT": 467,
      "trials": [
        {
          "trial_number": 0,
          "trial_index": 94,
          "rt": 586,
          "correct": true,
          "colorTarget": "face",
          "gazeTowards": false,
          "gazeCondition": "away",
          "faceOnLeft": false
        },
        {
          "trial_number": 1,
          "trial_index": 122,
          "rt": 472,
          "correct": true,
          "colorTarget": "face",
          "gazeTowards": true,
          "gazeCondition": "towards",
          "faceOnLeft": false
        },
        {
          "trial_number": 2,
          "trial_index": 145,
          "rt": 389,
          "correct": true,
          "colorTarget": "face",
          "gazeTowards": false,
          "gazeCondition": "away",
          "faceOnLeft": true
        },
        {
          "trial_number": 3,
          "trial_index": 203,
          "rt": 502,
          "correct": true,
          "colorTarget": "tree",
          "gazeTowards": true,
          "gazeCondition": "towards",
          "faceOnLeft": true
        },
        {
          "trial_number": 4,
          "trial_index": 287,
          "rt": 373,
          "correct": true,
          "colorTarget": "face",
          "gazeTowards": false,
          "gazeCondition": "away",
          "faceOnLeft": true
        },
        {
          "trial_number": 5,
          "trial_index": 310,
          "rt": 452,
          "correct": true,
          "colorTarget": "face",
          "gazeTowards": true,
          "gazeCondition": "towards",
          "faceOnLeft": true
        },
        {
          "trial_number": 6,
          "trial_index": 414,
          "rt": 501,
          "correct": true,
          "colorTarget": "tree",
          "gazeTowards": false,
          "gazeCondition": "away",
          "faceOnLeft": false
        },
        {
          "trial_number": 7,
          "trial_index": 457,
          "rt": 401,
          "correct": true,
          "colorTarget": "tree",
          "gazeTowards": true,
          "gazeCondition": "towards",
          "faceOnLeft": true
        },
        {
          "trial_number": 8,
          "trial_index": 661,
          "rt": 491,
          "correct": true,
          "colorTarget": "face",
          "gazeTowards": true,
          "gazeCondition": "towards",
          "faceOnLeft": false
        },
        {
          "trial_number": 9,
          "trial_index": 684,
          "rt": 572,
          "correct": true,
          "colorTarget": "tree",
          "gazeTowards": true,
          "gazeCondition": "towards",
          "faceOnLeft": false
        },
        {
          "trial_number": 10,
          "trial_index": 697,
          "rt": 481,
          "correct": true,
          "colorTarget": "tree",
          "gazeTowards": false,
          "gazeCondition": "away",
          "faceOnLeft": false
        },
        {
          "trial_number": 11,
          "trial_index": 710,
          "rt": 385,
          "correct": true,
          "colorTarget": "tree",
          "gazeTowards": false,
          "gazeCondition": "away",
          "faceOnLeft": true
        }
      ]
    },
    "practice": {
      "trials": [
        {
          "trial_number": 0,
          "rt": 1751,
          "correct": false,
          "direction": 0
        },
        {
          "trial_number": 1,
          "rt": 995,
          "correct": true,
          "direction": 180
        },
        {
          "trial_number": 2,
          "rt": 804,
          "correct": false,
          "direction": 180
        },
        {
          "trial_number": 3,
          "rt": 1069,
          "correct": true,
          "direction": 0
        },
        {
          "trial_number": 4,
          "rt": 837,
          "correct": true,
          "direction": 180
        },
        {
          "trial_number": 5,
          "rt": 1117,
          "correct": false,
          "direction": 0
        },
        {
          "trial_number": 6,
          "rt": 997,
          "correct": true,
          "direction": 180
        },
        {
          "trial_number": 7,
          "rt": 886,
          "correct": false,
          "direction": 0
        },
        {
          "trial_number": 8,
          "rt": 728,
          "correct": false,
          "direction": 180
        },
        {
          "trial_number": 9,
          "rt": 951,
          "correct": true,
          "direction": 180
        },
        {
          "trial_number": 10,
          "rt": 1007,
          "correct": true,
          "direction": 0
        },
        {
          "trial_number": 11,
          "rt": 877,
          "correct": true,
          "direction": 180
        },
        {
          "trial_number": 12,
          "rt": 1472,
          "correct": true,
          "direction": 180
        },
        {
          "trial_number": 13,
          "rt": 1049,
          "correct": true,
          "direction": 0
        },
        {
          "trial_number": 14,
          "rt": 803,
          "correct": true,
          "direction": 180
        },
        {
          "trial_number": 15,
          "rt": 1321,
          "correct": true,
          "direction": 0
        },
        {
          "trial_number": 16,
          "rt": 919,
          "correct": true,
          "direction": 180
        },
        {
          "trial_number": 17,
          "rt": 1050,
          "correct": true,
          "direction": 0
        },
        {
          "trial_number": 18,
          "rt": 852,
          "correct": true,
          "direction": 180
        },
        {
          "trial_number": 19,
          "rt": 1282,
          "correct": true,
          "direction": 180
        }
      ],
      "meanRT": 1038,
      "accuracy": 75
    }
  }
}