{
  "experiment": "rdk-face-1",
  "UUID": "070d717c-03b8-426a-b9cb-2337af4b7bee",
  "data": {
    "session": {
      "experiment_version": "1.8.6",
      "treatment": "faces_towards_away_catch",
      "file_version": "1.8.6",
      "totalTrials": 120,
      "totalTrialsIncludingCatch": 132,
      "conditions": {
        "gazeTowardsCount": 60,
        "gazeAwayCount": 60,
        "gazeTowardsAccuracy": 100,
        "gazeAwayAccuracy": 100
      },
      "session_group": "default",
      "browserData": {
        "os": "Windows",
        "browser": "Chrome",
        "screenResolution": "1920x1080",
        "browserViewport": "1920x1080",
        "devicePixelRatio": 1,
        "colorDepth": 24,
        "hardwareConcurrency": 12,
        "deviceMemory": 8,
        "gpuRenderer": "ANGLE (NVIDIA, NVIDIA GeForce RTX 3060 Ti (0x000024C9) Direct3D11 vs_5_0 ps_5_0, D3D11)",
        "measuredRefreshRateHz": 74
      },
      "attention": {
        "visibilityEvents": [
          {
            "event": "blur",
            "state": "blurred",
            "timestamp": 1772780486410
          },
          {
            "event": "focus",
            "state": "focused",
            "timestamp": 1772780489022
          }
        ]
      },
      "calibration": {
        "monitorWidthCm": 38,
        "viewingDistanceCm": 54,
        "pixelsPerDegree": 50
      },
      "parameters": {
        "coherence": 0.4,
        "apertureDeg": 5,
        "densityDotsPerDeg2": 40,
        "dotDiameterDeg": 0.035,
        "dotSpeedDegPerSec": 3,
        "lifetimeMs": 200,
        "fixationDurationMs": 1500,
        "faceDurationMs": 1500,
        "testDurationMs": 2000,
        "catchResponseMs": 3000
      },
      "prolific": {
        "prolificPid": "699f99cdd12d0beb3a28f115",
        "studyId": "",
        "sessionId": ""
      },
      "timing": {
        "startTime": "2026-03-06T07:01:26.335Z",
        "endTime": "2026-03-06T07:14:40.056Z",
        "totalElapsedTimeMs": 793721
      }
    },
    "trials": [
      {
        "trial_number": 0,
        "trial_index": 49,
        "rt": 742,
        "correct": true,
        "response": "ArrowRight",
        "congruent": false,
        "gazeTowards": false,
        "gazeCondition": "away",
        "faceOnLeft": false,
        "impliedDirection": 180,
        "testDirection": 0,
        "avgFps": 75,
        "minFps": 75,
        "maxFps": 75,
        "totalFrames": 56,
        "frameRates": 75
      },
      {
        "trial_number": 1,
        "trial_index": 54,
        "rt": 612,
        "correct": true,
        "response": "ArrowRight",
        "congruent": true,
        "gazeTowards": true,
        "gazeCondition": "towards",
        "faceOnLeft": true,
        "impliedDirection": 0,
        "testDirection": 0,
        "avgFps": 75,
        "minFps": 74,
        "maxFps": 76,
        "totalFrames": 46,
        "frameRates": 75
      },
      {
        "trial_number": 2,
        "trial_index": 59,
        "rt": 732,
        "correct": true,
        "response": "ArrowRight",
        "congruent": true,
        "gazeTowards": true,
        "gazeCondition": "towards",
        "faceOnLeft": true,
        "impliedDirection": 0,
        "testDirection": 0,
        "avgFps": 75,
        "minFps": 74,
        "maxFps": 76,
        "totalFrames": 54,
        "frameRates": 75
      },
      {
        "trial_number": 3,
        "trial_index": 64,
        "rt": 594,
        "correct": true,
        "response": "ArrowRight",
        "congruent": false,
        "gazeTowards": false,
        "gazeCondition": "away",
        "faceOnLeft": false,
        "impliedDirection": 180,
        "testDirection": 0,
        "avgFps": 75,
        "minFps": 74,
        "maxFps": 76,
        "totalFrames": 44,
        "frameRates": 75
      },
      {
        "trial_number": 4,
        "trial_index": 69,
        "rt": 542,
        "correct": true,
        "response": "ArrowRight",
        "congruent": true,
        "gazeTowards": false,
        "gazeCondition": "away",
        "faceOnLeft": true,
        "impliedDirection": 0,
        "testDirection": 0,
        "avgFps": 75,
        "minFps": 74,
        "maxFps": 95,
        "totalFrames": 40,
        "frameRates": 75
      },
      {
        "trial_number": 5,
        "trial_index": 77,
        "rt": 658,
        "correct": true,
        "response": "ArrowRight",
        "congruent": true,
        "gazeTowards": false,
        "gazeCondition": "away",
        "faceOnLeft": true,
        "impliedDirection": 0,
        "testDirection": 0,
        "avgFps": 75,
        "minFps": 75,
        "maxFps": 76,
        "totalFrames": 49,
        "frameRates": 75
      },
      {
        "trial_number": 6,
        "trial_index": 85,
        "rt": 567,
        "correct": true,
        "response": "ArrowLeft",
        "congruent": false,
        "gazeTowards": false,
        "gazeCondition": "away",
        "faceOnLeft": true,
        "impliedDirection": 0,
        "testDirection": 180,
        "avgFps": 76,
        "minFps": 75,
        "maxFps": 137,
        "totalFrames": 43,
        "frameRates": 76
      },
      {
        "trial_number": 7,
        "trial_index": 90,
        "rt": 527,
        "correct": true,
        "response": "ArrowRight",
        "congruent": false,
        "gazeTowards": true,
        "gazeCondition": "towards",
        "faceOnLeft": false,
        "impliedDirection": 180,
        "testDirection": 0,
        "avgFps": 75,
        "minFps": 74,
        "maxFps": 95,
        "totalFrames": 39,
        "frameRates": 75
      },
      {
        "trial_number": 8,
        "trial_index": 95,
        "rt": 462,
        "correct": true,
        "response": "ArrowRight",
        "congruent": false,
        "gazeTowards": false,
        "gazeCondition": "away",
        "faceOnLeft": false,
        "impliedDirection": 180,
        "testDirection": 0,
        "avgFps": 75,
        "minFps": 75,
        "maxFps": 76,
        "totalFrames": 34,
        "frameRates": 75
      },
      {
        "trial_number": 9,
        "trial_index": 100,
        "rt": 524,
        "correct": true,
        "response": "ArrowLeft",
        "congruent": false,
        "gazeTowards": false,
        "gazeCondition": "away",
        "faceOnLeft": true,
        "impliedDirection": 0,
        "testDirection": 180,
        "avgFps": 75,
        "minFps": 75,
        "maxFps": 76,
        "totalFrames": 39,
        "frameRates": 75
      },
      {
        "trial_number": 10,
        "trial_index": 105,
        "rt": 599,
        "correct": true,
        "response": "ArrowLeft",
        "congruent": false,
        "gazeTowards": true,
        "gazeCondition": "towards",
        "faceOnLeft": true,
        "impliedDirection": 0,
        "testDirection": 180,
        "avgFps": 76,
        "minFps": 74,
        "maxFps": 137,
        "totalFrames": 45,
        "frameRates": 76
      },
      {
        "trial_number": 11,
        "trial_index": 110,
        "rt": 570,
        "correct": true,
        "response": "ArrowLeft",
        "congruent": false,
        "gazeTowards": false,
        "gazeCondition": "away",
        "faceOnLeft": true,
        "impliedDirection": 0,
        "testDirection": 180,
        "avgFps": 75,
        "minFps": 75,
        "maxFps": 94,
        "totalFrames": 43,
        "frameRates": 75
      },
      {
        "trial_number": 12,
        "trial_index": 115,
        "rt": 549,
        "correct": true,
        "response": "ArrowRight",
        "congruent": false,
        "gazeTowards": true,
        "gazeCondition": "towards",
        "faceOnLeft": false,
        "impliedDirection": 180,
        "testDirection": 0,
        "avgFps": 75,
        "minFps": 74,
        "maxFps": 76,
        "totalFrames": 41,
        "frameRates": 75
      },
      {
        "trial_number": 13,
        "trial_index": 120,
        "rt": 505,
        "correct": true,
        "response": "ArrowLeft",
        "congruent": false,
        "gazeTowards": false,
        "gazeCondition": "away",
        "faceOnLeft": true,
        "impliedDirection": 0,
        "testDirection": 180,
        "avgFps": 76,
        "minFps": 75,
        "maxFps": 136,
        "totalFrames": 38,
        "frameRates": 76
      },
      {
        "trial_number": 14,
        "trial_index": 125,
        "rt": 506,
        "correct": true,
        "response": "ArrowLeft",
        "congruent": true,
        "gazeTowards": false,
        "gazeCondition": "away",
        "faceOnLeft": false,
        "impliedDirection": 180,
        "testDirection": 180,
        "avgFps": 75,
        "minFps": 75,
        "maxFps": 75,
        "totalFrames": 37,
        "frameRates": 75
      },
      {
        "trial_number": 15,
        "trial_index": 130,
        "rt": 563,
        "correct": true,
        "response": "ArrowRight",
        "congruent": true,
        "gazeTowards": true,
        "gazeCondition": "towards",
        "faceOnLeft": true,
        "impliedDirection": 0,
        "testDirection": 0,
        "avgFps": 75,
        "minFps": 75,
        "maxFps": 76,
        "totalFrames": 42,
        "frameRates": 75
      },
      {
        "trial_number": 16,
        "trial_index": 135,
        "rt": 606,
        "correct": true,
        "response": "ArrowRight",
        "congruent": false,
        "gazeTowards": true,
        "gazeCondition": "towards",
        "faceOnLeft": false,
        "impliedDirection": 180,
        "testDirection": 0,
        "avgFps": 75,
        "minFps": 75,
        "maxFps": 76,
        "totalFrames": 46,
        "frameRates": 75
      },
      {
        "trial_number": 17,
        "trial_index": 140,
        "rt": 500,
        "correct": true,
        "response": "ArrowRight",
        "congruent": false,
        "gazeTowards": false,
        "gazeCondition": "away",
        "faceOnLeft": false,
        "impliedDirection": 180,
        "testDirection": 0,
        "avgFps": 75,
        "minFps": 74,
        "maxFps": 76,
        "totalFrames": 38,
        "frameRates": 75
      },
      {
        "trial_number": 18,
        "trial_index": 145,
        "rt": 470,
        "correct": true,
        "response": "ArrowRight",
        "congruent": true,
        "gazeTowards": true,
        "gazeCondition": "towards",
        "faceOnLeft": true,
        "impliedDirection": 0,
        "testDirection": 0,
        "avgFps": 73,
        "minFps": 39,
        "maxFps": 85,
        "totalFrames": 35,
        "frameRates": 73
      },
      {
        "trial_number": 19,
        "trial_index": 150,
        "rt": 539,
        "correct": true,
        "response": "ArrowRight",
        "congruent": true,
        "gazeTowards": false,
        "gazeCondition": "away",
        "faceOnLeft": true,
        "impliedDirection": 0,
        "testDirection": 0,
        "avgFps": 75,
        "minFps": 74,
        "maxFps": 76,
        "totalFrames": 41,
        "frameRates": 75
      },
      {
        "trial_number": 20,
        "trial_index": 155,
        "rt": 537,
        "correct": true,
        "response": "ArrowRight",
        "congruent": false,
        "gazeTowards": false,
        "gazeCondition": "away",
        "faceOnLeft": false,
        "impliedDirection": 180,
        "testDirection": 0,
        "avgFps": 75,
        "minFps": 74,
        "maxFps": 75,
        "totalFrames": 41,
        "frameRates": 75
      },
      {
        "trial_number": 21,
        "trial_index": 160,
        "rt": 466,
        "correct": true,
        "response": "ArrowLeft",
        "congruent": false,
        "gazeTowards": true,
        "gazeCondition": "towards",
        "faceOnLeft": true,
        "impliedDirection": 0,
        "testDirection": 180,
        "avgFps": 75,
        "minFps": 74,
        "maxFps": 76,
        "totalFrames": 35,
        "frameRates": 75
      },
      {
        "trial_number": 22,
        "trial_index": 165,
        "rt": 499,
        "correct": true,
        "response": "ArrowLeft",
        "congruent": false,
        "gazeTowards": false,
        "gazeCondition": "away",
        "faceOnLeft": true,
        "impliedDirection": 0,
        "testDirection": 180,
        "avgFps": 75,
        "minFps": 74,
        "maxFps": 76,
        "totalFrames": 37,
        "frameRates": 75
      },
      {
        "trial_number": 23,
        "trial_index": 170,
        "rt": 540,
        "correct": true,
        "response": "ArrowLeft",
        "congruent": false,
        "gazeTowards": false,
        "gazeCondition": "away",
        "faceOnLeft": true,
        "impliedDirection": 0,
        "testDirection": 180,
        "avgFps": 75,
        "minFps": 74,
        "maxFps": 95,
        "totalFrames": 41,
        "frameRates": 75
      },
      {
        "trial_number": 24,
        "trial_index": 175,
        "rt": 453,
        "correct": true,
        "response": "ArrowRight",
        "congruent": true,
        "gazeTowards": false,
        "gazeCondition": "away",
        "faceOnLeft": true,
        "impliedDirection": 0,
        "testDirection": 0,
        "avgFps": 76,
        "minFps": 74,
        "maxFps": 138,
        "totalFrames": 34,
        "frameRates": 76
      },
      {
        "trial_number": 25,
        "trial_index": 180,
        "rt": 422,
        "correct": true,
        "response": "ArrowLeft",
        "congruent": false,
        "gazeTowards": true,
        "gazeCondition": "towards",
        "faceOnLeft": true,
        "impliedDirection": 0,
        "testDirection": 180,
        "avgFps": 76,
        "minFps": 75,
        "maxFps": 136,
        "totalFrames": 32,
        "frameRates": 76
      },
      {
        "trial_number": 26,
        "trial_index": 185,
        "rt": 357,
        "correct": true,
        "response": "ArrowRight",
        "congruent": false,
        "gazeTowards": true,
        "gazeCondition": "towards",
        "faceOnLeft": false,
        "impliedDirection": 180,
        "testDirection": 0,
        "avgFps": 75,
        "minFps": 74,
        "maxFps": 76,
        "totalFrames": 27,
        "frameRates": 75
      },
      {
        "trial_number": 27,
        "trial_index": 190,
        "rt": 463,
        "correct": true,
        "response": "ArrowLeft",
        "congruent": false,
        "gazeTowards": true,
        "gazeCondition": "towards",
        "faceOnLeft": true,
        "impliedDirection": 0,
        "testDirection": 180,
        "avgFps": 75,
        "minFps": 75,
        "maxFps": 78,
        "totalFrames": 35,
        "frameRates": 75
      },
      {
        "trial_number": 28,
        "trial_index": 195,
        "rt": 386,
        "correct": true,
        "response": "ArrowLeft",
        "congruent": true,
        "gazeTowards": true,
        "gazeCondition": "towards",
        "faceOnLeft": false,
        "impliedDirection": 180,
        "testDirection": 180,
        "avgFps": 76,
        "minFps": 74,
        "maxFps": 138,
        "totalFrames": 29,
        "frameRates": 76
      },
      {
        "trial_number": 29,
        "trial_index": 200,
        "rt": 392,
        "correct": true,
        "response": "ArrowRight",
        "congruent": true,
        "gazeTowards": true,
        "gazeCondition": "towards",
        "faceOnLeft": true,
        "impliedDirection": 0,
        "testDirection": 0,
        "avgFps": 76,
        "minFps": 75,
        "maxFps": 95,
        "totalFrames": 29,
        "frameRates": 76
      },
      {
        "trial_number": 30,
        "trial_index": 205,
        "rt": 424,
        "correct": true,
        "response": "ArrowRight",
        "congruent": false,
        "gazeTowards": false,
        "gazeCondition": "away",
        "faceOnLeft": false,
        "impliedDirection": 180,
        "testDirection": 0,
        "avgFps": 75,
        "minFps": 75,
        "maxFps": 76,
        "totalFrames": 31,
        "frameRates": 75
      },
      {
        "trial_number": 31,
        "trial_index": 211,
        "rt": 504,
        "correct": true,
        "response": "ArrowRight",
        "congruent": true,
        "gazeTowards": true,
        "gazeCondition": "towards",
        "faceOnLeft": true,
        "impliedDirection": 0,
        "testDirection": 0,
        "avgFps": 73,
        "minFps": 36,
        "maxFps": 84,
        "totalFrames": 37,
        "frameRates": 73
      },
      {
        "trial_number": 32,
        "trial_index": 216,
        "rt": 371,
        "correct": true,
        "response": "ArrowLeft",
        "congruent": true,
        "gazeTowards": false,
        "gazeCondition": "away",
        "faceOnLeft": false,
        "impliedDirection": 180,
        "testDirection": 180,
        "avgFps": 75,
        "minFps": 74,
        "maxFps": 76,
        "totalFrames": 28,
        "frameRates": 75
      },
      {
        "trial_number": 33,
        "trial_index": 221,
        "rt": 451,
        "correct": true,
        "response": "ArrowLeft",
        "congruent": false,
        "gazeTowards": true,
        "gazeCondition": "towards",
        "faceOnLeft": true,
        "impliedDirection": 0,
        "testDirection": 180,
        "avgFps": 75,
        "minFps": 75,
        "maxFps": 75,
        "totalFrames": 34,
        "frameRates": 75
      },
      {
        "trial_number": 34,
        "trial_index": 229,
        "rt": 505,
        "correct": true,
        "response": "ArrowRight",
        "congruent": false,
        "gazeTowards": false,
        "gazeCondition": "away",
        "faceOnLeft": false,
        "impliedDirection": 180,
        "testDirection": 0,
        "avgFps": 75,
        "minFps": 75,
        "maxFps": 94,
        "totalFrames": 38,
        "frameRates": 75
      },
      {
        "trial_number": 35,
        "trial_index": 234,
        "rt": 480,
        "correct": true,
        "response": "ArrowLeft",
        "congruent": true,
        "gazeTowards": false,
        "gazeCondition": "away",
        "faceOnLeft": false,
        "impliedDirection": 180,
        "testDirection": 180,
        "avgFps": 75,
        "minFps": 74,
        "maxFps": 76,
        "totalFrames": 36,
        "frameRates": 75
      },
      {
        "trial_number": 36,
        "trial_index": 239,
        "rt": 487,
        "correct": true,
        "response": "ArrowRight",
        "congruent": true,
        "gazeTowards": false,
        "gazeCondition": "away",
        "faceOnLeft": true,
        "impliedDirection": 0,
        "testDirection": 0,
        "avgFps": 75,
        "minFps": 75,
        "maxFps": 76,
        "totalFrames": 37,
        "frameRates": 75
      },
      {
        "trial_number": 37,
        "trial_index": 244,
        "rt": 498,
        "correct": true,
        "response": "ArrowRight",
        "congruent": true,
        "gazeTowards": false,
        "gazeCondition": "away",
        "faceOnLeft": true,
        "impliedDirection": 0,
        "testDirection": 0,
        "avgFps": 73,
        "minFps": 37,
        "maxFps": 76,
        "totalFrames": 36,
        "frameRates": 73
      },
      {
        "trial_number": 38,
        "trial_index": 249,
        "rt": 556,
        "correct": true,
        "response": "ArrowRight",
        "congruent": true,
        "gazeTowards": false,
        "gazeCondition": "away",
        "faceOnLeft": true,
        "impliedDirection": 0,
        "testDirection": 0,
        "avgFps": 75,
        "minFps": 74,
        "maxFps": 95,
        "totalFrames": 41,
        "frameRates": 75
      },
      {
        "trial_number": 39,
        "trial_index": 254,
        "rt": 435,
        "correct": true,
        "response": "ArrowRight",
        "congruent": false,
        "gazeTowards": false,
        "gazeCondition": "away",
        "faceOnLeft": false,
        "impliedDirection": 180,
        "testDirection": 0,
        "avgFps": 75,
        "minFps": 75,
        "maxFps": 76,
        "totalFrames": 32,
        "frameRates": 75
      },
      {
        "trial_number": 40,
        "trial_index": 259,
        "rt": 429,
        "correct": true,
        "response": "ArrowRight",
        "congruent": false,
        "gazeTowards": false,
        "gazeCondition": "away",
        "faceOnLeft": false,
        "impliedDirection": 180,
        "testDirection": 0,
        "avgFps": 75,
        "minFps": 75,
        "maxFps": 94,
        "totalFrames": 32,
        "frameRates": 75
      },
      {
        "trial_number": 41,
        "trial_index": 264,
        "rt": 440,
        "correct": true,
        "response": "ArrowLeft",
        "congruent": true,
        "gazeTowards": false,
        "gazeCondition": "away",
        "faceOnLeft": false,
        "impliedDirection": 180,
        "testDirection": 180,
        "avgFps": 75,
        "minFps": 75,
        "maxFps": 76,
        "totalFrames": 33,
        "frameRates": 75
      },
      {
        "trial_number": 42,
        "trial_index": 269,
        "rt": 402,
        "correct": true,
        "response": "ArrowRight",
        "congruent": true,
        "gazeTowards": false,
        "gazeCondition": "away",
        "faceOnLeft": true,
        "impliedDirection": 0,
        "testDirection": 0,
        "avgFps": 75,
        "minFps": 74,
        "maxFps": 76,
        "totalFrames": 30,
        "frameRates": 75
      },
      {
        "trial_number": 43,
        "trial_index": 274,
        "rt": 427,
        "correct": true,
        "response": "ArrowLeft",
        "congruent": true,
        "gazeTowards": true,
        "gazeCondition": "towards",
        "faceOnLeft": false,
        "impliedDirection": 180,
        "testDirection": 180,
        "avgFps": 76,
        "minFps": 74,
        "maxFps": 137,
        "totalFrames": 32,
        "frameRates": 76
      },
      {
        "trial_number": 44,
        "trial_index": 279,
        "rt": 536,
        "correct": true,
        "response": "ArrowLeft",
        "congruent": false,
        "gazeTowards": true,
        "gazeCondition": "towards",
        "faceOnLeft": true,
        "impliedDirection": 0,
        "testDirection": 180,
        "avgFps": 74,
        "minFps": 39,
        "maxFps": 84,
        "totalFrames": 40,
        "frameRates": 74
      },
      {
        "trial_number": 45,
        "trial_index": 284,
        "rt": 443,
        "correct": true,
        "response": "ArrowLeft",
        "congruent": true,
        "gazeTowards": false,
        "gazeCondition": "away",
        "faceOnLeft": false,
        "impliedDirection": 180,
        "testDirection": 180,
        "avgFps": 75,
        "minFps": 74,
        "maxFps": 76,
        "totalFrames": 33,
        "frameRates": 75
      },
      {
        "trial_number": 46,
        "trial_index": 289,
        "rt": 437,
        "correct": true,
        "response": "ArrowLeft",
        "congruent": true,
        "gazeTowards": true,
        "gazeCondition": "towards",
        "faceOnLeft": false,
        "impliedDirection": 180,
        "testDirection": 180,
        "avgFps": 75,
        "minFps": 74,
        "maxFps": 76,
        "totalFrames": 33,
        "frameRates": 75
      },
      {
        "trial_number": 47,
        "trial_index": 294,
        "rt": 352,
        "correct": true,
        "response": "ArrowRight",
        "congruent": true,
        "gazeTowards": false,
        "gazeCondition": "away",
        "faceOnLeft": true,
        "impliedDirection": 0,
        "testDirection": 0,
        "avgFps": 76,
        "minFps": 74,
        "maxFps": 94,
        "totalFrames": 26,
        "frameRates": 76
      },
      {
        "trial_number": 48,
        "trial_index": 299,
        "rt": 387,
        "correct": true,
        "response": "ArrowLeft",
        "congruent": true,
        "gazeTowards": true,
        "gazeCondition": "towards",
        "faceOnLeft": false,
        "impliedDirection": 180,
        "testDirection": 180,
        "avgFps": 76,
        "minFps": 74,
        "maxFps": 95,
        "totalFrames": 29,
        "frameRates": 76
      },
      {
        "trial_number": 49,
        "trial_index": 304,
        "rt": 469,
        "correct": true,
        "response": "ArrowRight",
        "congruent": true,
        "gazeTowards": true,
        "gazeCondition": "towards",
        "faceOnLeft": true,
        "impliedDirection": 0,
        "testDirection": 0,
        "avgFps": 75,
        "minFps": 68,
        "maxFps": 80,
        "totalFrames": 35,
        "frameRates": 75
      },
      {
        "trial_number": 50,
        "trial_index": 309,
        "rt": 431,
        "correct": true,
        "response": "ArrowRight",
        "congruent": false,
        "gazeTowards": true,
        "gazeCondition": "towards",
        "faceOnLeft": false,
        "impliedDirection": 180,
        "testDirection": 0,
        "avgFps": 75,
        "minFps": 75,
        "maxFps": 76,
        "totalFrames": 32,
        "frameRates": 75
      },
      {
        "trial_number": 51,
        "trial_index": 314,
        "rt": 393,
        "correct": true,
        "response": "ArrowLeft",
        "congruent": true,
        "gazeTowards": true,
        "gazeCondition": "towards",
        "faceOnLeft": false,
        "impliedDirection": 180,
        "testDirection": 180,
        "avgFps": 75,
        "minFps": 75,
        "maxFps": 78,
        "totalFrames": 29,
        "frameRates": 75
      },
      {
        "trial_number": 52,
        "trial_index": 319,
        "rt": 463,
        "correct": true,
        "response": "ArrowLeft",
        "congruent": false,
        "gazeTowards": false,
        "gazeCondition": "away",
        "faceOnLeft": true,
        "impliedDirection": 0,
        "testDirection": 180,
        "avgFps": 75,
        "minFps": 75,
        "maxFps": 75,
        "totalFrames": 34,
        "frameRates": 75
      },
      {
        "trial_number": 53,
        "trial_index": 324,
        "rt": 412,
        "correct": true,
        "response": "ArrowLeft",
        "congruent": false,
        "gazeTowards": true,
        "gazeCondition": "towards",
        "faceOnLeft": true,
        "impliedDirection": 0,
        "testDirection": 180,
        "avgFps": 75,
        "minFps": 75,
        "maxFps": 76,
        "totalFrames": 31,
        "frameRates": 75
      },
      {
        "trial_number": 54,
        "trial_index": 329,
        "rt": 404,
        "correct": true,
        "response": "ArrowLeft",
        "congruent": false,
        "gazeTowards": false,
        "gazeCondition": "away",
        "faceOnLeft": true,
        "impliedDirection": 0,
        "testDirection": 180,
        "avgFps": 75,
        "minFps": 74,
        "maxFps": 76,
        "totalFrames": 30,
        "frameRates": 75
      },
      {
        "trial_number": 55,
        "trial_index": 334,
        "rt": 324,
        "correct": true,
        "response": "ArrowRight",
        "congruent": true,
        "gazeTowards": true,
        "gazeCondition": "towards",
        "faceOnLeft": true,
        "impliedDirection": 0,
        "testDirection": 0,
        "avgFps": 75,
        "minFps": 75,
        "maxFps": 76,
        "totalFrames": 24,
        "frameRates": 75
      },
      {
        "trial_number": 56,
        "trial_index": 339,
        "rt": 353,
        "correct": true,
        "response": "ArrowLeft",
        "congruent": true,
        "gazeTowards": false,
        "gazeCondition": "away",
        "faceOnLeft": false,
        "impliedDirection": 180,
        "testDirection": 180,
        "avgFps": 76,
        "minFps": 75,
        "maxFps": 94,
        "totalFrames": 26,
        "frameRates": 76
      },
      {
        "trial_number": 57,
        "trial_index": 344,
        "rt": 400,
        "correct": true,
        "response": "ArrowLeft",
        "congruent": true,
        "gazeTowards": true,
        "gazeCondition": "towards",
        "faceOnLeft": false,
        "impliedDirection": 180,
        "testDirection": 180,
        "avgFps": 73,
        "minFps": 40,
        "maxFps": 83,
        "totalFrames": 29,
        "frameRates": 73
      },
      {
        "trial_number": 58,
        "trial_index": 349,
        "rt": 338,
        "correct": true,
        "response": "ArrowLeft",
        "congruent": true,
        "gazeTowards": false,
        "gazeCondition": "away",
        "faceOnLeft": false,
        "impliedDirection": 180,
        "testDirection": 180,
        "avgFps": 75,
        "minFps": 75,
        "maxFps": 76,
        "totalFrames": 25,
        "frameRates": 75
      },
      {
        "trial_number": 59,
        "trial_index": 354,
        "rt": 423,
        "correct": true,
        "response": "ArrowLeft",
        "congruent": true,
        "gazeTowards": true,
        "gazeCondition": "towards",
        "faceOnLeft": false,
        "impliedDirection": 180,
        "testDirection": 180,
        "avgFps": 75,
        "minFps": 75,
        "maxFps": 95,
        "totalFrames": 32,
        "frameRates": 75
      },
      {
        "trial_number": 60,
        "trial_index": 359,
        "rt": 398,
        "correct": true,
        "response": "ArrowLeft",
        "congruent": false,
        "gazeTowards": false,
        "gazeCondition": "away",
        "faceOnLeft": true,
        "impliedDirection": 0,
        "testDirection": 180,
        "avgFps": 76,
        "minFps": 75,
        "maxFps": 134,
        "totalFrames": 30,
        "frameRates": 76
      },
      {
        "trial_number": 61,
        "trial_index": 364,
        "rt": 468,
        "correct": true,
        "response": "ArrowRight",
        "congruent": true,
        "gazeTowards": true,
        "gazeCondition": "towards",
        "faceOnLeft": true,
        "impliedDirection": 0,
        "testDirection": 0,
        "avgFps": 75,
        "minFps": 75,
        "maxFps": 75,
        "totalFrames": 35,
        "frameRates": 75
      },
      {
        "trial_number": 62,
        "trial_index": 369,
        "rt": 536,
        "correct": true,
        "response": "ArrowRight",
        "congruent": false,
        "gazeTowards": true,
        "gazeCondition": "towards",
        "faceOnLeft": false,
        "impliedDirection": 180,
        "testDirection": 0,
        "avgFps": 75,
        "minFps": 75,
        "maxFps": 94,
        "totalFrames": 40,
        "frameRates": 75
      },
      {
        "trial_number": 63,
        "trial_index": 375,
        "rt": 355,
        "correct": true,
        "response": "ArrowRight",
        "congruent": false,
        "gazeTowards": true,
        "gazeCondition": "towards",
        "faceOnLeft": false,
        "impliedDirection": 180,
        "testDirection": 0,
        "avgFps": 76,
        "minFps": 75,
        "maxFps": 94,
        "totalFrames": 27,
        "frameRates": 76
      },
      {
        "trial_number": 64,
        "trial_index": 380,
        "rt": 489,
        "correct": true,
        "response": "ArrowLeft",
        "congruent": true,
        "gazeTowards": true,
        "gazeCondition": "towards",
        "faceOnLeft": false,
        "impliedDirection": 180,
        "testDirection": 180,
        "avgFps": 76,
        "minFps": 74,
        "maxFps": 137,
        "totalFrames": 37,
        "frameRates": 76
      },
      {
        "trial_number": 65,
        "trial_index": 385,
        "rt": 370,
        "correct": true,
        "response": "ArrowRight",
        "congruent": true,
        "gazeTowards": false,
        "gazeCondition": "away",
        "faceOnLeft": true,
        "impliedDirection": 0,
        "testDirection": 0,
        "avgFps": 75,
        "minFps": 75,
        "maxFps": 75,
        "totalFrames": 27,
        "frameRates": 75
      },
      {
        "trial_number": 66,
        "trial_index": 390,
        "rt": 401,
        "correct": true,
        "response": "ArrowLeft",
        "congruent": false,
        "gazeTowards": false,
        "gazeCondition": "away",
        "faceOnLeft": true,
        "impliedDirection": 0,
        "testDirection": 180,
        "avgFps": 75,
        "minFps": 74,
        "maxFps": 76,
        "totalFrames": 30,
        "frameRates": 75
      },
      {
        "trial_number": 67,
        "trial_index": 395,
        "rt": 490,
        "correct": true,
        "response": "ArrowLeft",
        "congruent": false,
        "gazeTowards": true,
        "gazeCondition": "towards",
        "faceOnLeft": true,
        "impliedDirection": 0,
        "testDirection": 180,
        "avgFps": 75,
        "minFps": 74,
        "maxFps": 94,
        "totalFrames": 37,
        "frameRates": 75
      },
      {
        "trial_number": 68,
        "trial_index": 403,
        "rt": 407,
        "correct": true,
        "response": "ArrowLeft",
        "congruent": false,
        "gazeTowards": true,
        "gazeCondition": "towards",
        "faceOnLeft": true,
        "impliedDirection": 0,
        "testDirection": 180,
        "avgFps": 74,
        "minFps": 45,
        "maxFps": 84,
        "totalFrames": 30,
        "frameRates": 74
      },
      {
        "trial_number": 69,
        "trial_index": 411,
        "rt": 513,
        "correct": true,
        "response": "ArrowRight",
        "congruent": true,
        "gazeTowards": true,
        "gazeCondition": "towards",
        "faceOnLeft": true,
        "impliedDirection": 0,
        "testDirection": 0,
        "avgFps": 75,
        "minFps": 74,
        "maxFps": 76,
        "totalFrames": 39,
        "frameRates": 75
      },
      {
        "trial_number": 70,
        "trial_index": 416,
        "rt": 427,
        "correct": true,
        "response": "ArrowLeft",
        "congruent": true,
        "gazeTowards": false,
        "gazeCondition": "away",
        "faceOnLeft": false,
        "impliedDirection": 180,
        "testDirection": 180,
        "avgFps": 76,
        "minFps": 75,
        "maxFps": 137,
        "totalFrames": 32,
        "frameRates": 76
      },
      {
        "trial_number": 71,
        "trial_index": 424,
        "rt": 464,
        "correct": true,
        "response": "ArrowLeft",
        "congruent": true,
        "gazeTowards": false,
        "gazeCondition": "away",
        "faceOnLeft": false,
        "impliedDirection": 180,
        "testDirection": 180,
        "avgFps": 75,
        "minFps": 75,
        "maxFps": 94,
        "totalFrames": 35,
        "frameRates": 75
      },
      {
        "trial_number": 72,
        "trial_index": 429,
        "rt": 483,
        "correct": true,
        "response": "ArrowRight",
        "congruent": false,
        "gazeTowards": true,
        "gazeCondition": "towards",
        "faceOnLeft": false,
        "impliedDirection": 180,
        "testDirection": 0,
        "avgFps": 75,
        "minFps": 63,
        "maxFps": 88,
        "totalFrames": 36,
        "frameRates": 75
      },
      {
        "trial_number": 73,
        "trial_index": 437,
        "rt": 447,
        "correct": true,
        "response": "ArrowLeft",
        "congruent": false,
        "gazeTowards": false,
        "gazeCondition": "away",
        "faceOnLeft": true,
        "impliedDirection": 0,
        "testDirection": 180,
        "avgFps": 75,
        "minFps": 74,
        "maxFps": 76,
        "totalFrames": 33,
        "frameRates": 75
      },
      {
        "trial_number": 74,
        "trial_index": 442,
        "rt": 443,
        "correct": true,
        "response": "ArrowRight",
        "congruent": true,
        "gazeTowards": false,
        "gazeCondition": "away",
        "faceOnLeft": true,
        "impliedDirection": 0,
        "testDirection": 0,
        "avgFps": 75,
        "minFps": 75,
        "maxFps": 76,
        "totalFrames": 33,
        "frameRates": 75
      },
      {
        "trial_number": 75,
        "trial_index": 447,
        "rt": 404,
        "correct": true,
        "response": "ArrowLeft",
        "congruent": false,
        "gazeTowards": false,
        "gazeCondition": "away",
        "faceOnLeft": true,
        "impliedDirection": 0,
        "testDirection": 180,
        "avgFps": 75,
        "minFps": 74,
        "maxFps": 76,
        "totalFrames": 30,
        "frameRates": 75
      },
      {
        "trial_number": 76,
        "trial_index": 452,
        "rt": 425,
        "correct": true,
        "response": "ArrowRight",
        "congruent": true,
        "gazeTowards": true,
        "gazeCondition": "towards",
        "faceOnLeft": true,
        "impliedDirection": 0,
        "testDirection": 0,
        "avgFps": 75,
        "minFps": 75,
        "maxFps": 95,
        "totalFrames": 32,
        "frameRates": 75
      },
      {
        "trial_number": 77,
        "trial_index": 460,
        "rt": 411,
        "correct": true,
        "response": "ArrowRight",
        "congruent": false,
        "gazeTowards": true,
        "gazeCondition": "towards",
        "faceOnLeft": false,
        "impliedDirection": 180,
        "testDirection": 0,
        "avgFps": 75,
        "minFps": 75,
        "maxFps": 94,
        "totalFrames": 31,
        "frameRates": 75
      },
      {
        "trial_number": 78,
        "trial_index": 465,
        "rt": 446,
        "correct": true,
        "response": "ArrowLeft",
        "congruent": true,
        "gazeTowards": true,
        "gazeCondition": "towards",
        "faceOnLeft": false,
        "impliedDirection": 180,
        "testDirection": 180,
        "avgFps": 75,
        "minFps": 75,
        "maxFps": 75,
        "totalFrames": 33,
        "frameRates": 75
      },
      {
        "trial_number": 79,
        "trial_index": 470,
        "rt": 400,
        "correct": true,
        "response": "ArrowRight",
        "congruent": false,
        "gazeTowards": false,
        "gazeCondition": "away",
        "faceOnLeft": false,
        "impliedDirection": 180,
        "testDirection": 0,
        "avgFps": 75,
        "minFps": 74,
        "maxFps": 76,
        "totalFrames": 30,
        "frameRates": 75
      },
      {
        "trial_number": 80,
        "trial_index": 475,
        "rt": 397,
        "correct": true,
        "response": "ArrowLeft",
        "congruent": false,
        "gazeTowards": true,
        "gazeCondition": "towards",
        "faceOnLeft": true,
        "impliedDirection": 0,
        "testDirection": 180,
        "avgFps": 75,
        "minFps": 75,
        "maxFps": 76,
        "totalFrames": 30,
        "frameRates": 75
      },
      {
        "trial_number": 81,
        "trial_index": 483,
        "rt": 444,
        "correct": true,
        "response": "ArrowLeft",
        "congruent": true,
        "gazeTowards": false,
        "gazeCondition": "away",
        "faceOnLeft": false,
        "impliedDirection": 180,
        "testDirection": 180,
        "avgFps": 75,
        "minFps": 75,
        "maxFps": 76,
        "totalFrames": 33,
        "frameRates": 75
      },
      {
        "trial_number": 82,
        "trial_index": 488,
        "rt": 437,
        "correct": true,
        "response": "ArrowRight",
        "congruent": false,
        "gazeTowards": true,
        "gazeCondition": "towards",
        "faceOnLeft": false,
        "impliedDirection": 180,
        "testDirection": 0,
        "avgFps": 75,
        "minFps": 74,
        "maxFps": 93,
        "totalFrames": 33,
        "frameRates": 75
      },
      {
        "trial_number": 83,
        "trial_index": 493,
        "rt": 404,
        "correct": true,
        "response": "ArrowLeft",
        "congruent": false,
        "gazeTowards": true,
        "gazeCondition": "towards",
        "faceOnLeft": true,
        "impliedDirection": 0,
        "testDirection": 180,
        "avgFps": 75,
        "minFps": 75,
        "maxFps": 76,
        "totalFrames": 31,
        "frameRates": 75
      },
      {
        "trial_number": 84,
        "trial_index": 498,
        "rt": 410,
        "correct": true,
        "response": "ArrowRight",
        "congruent": true,
        "gazeTowards": true,
        "gazeCondition": "towards",
        "faceOnLeft": true,
        "impliedDirection": 0,
        "testDirection": 0,
        "avgFps": 75,
        "minFps": 74,
        "maxFps": 76,
        "totalFrames": 30,
        "frameRates": 75
      },
      {
        "trial_number": 85,
        "trial_index": 503,
        "rt": 419,
        "correct": true,
        "response": "ArrowRight",
        "congruent": true,
        "gazeTowards": false,
        "gazeCondition": "away",
        "faceOnLeft": true,
        "impliedDirection": 0,
        "testDirection": 0,
        "avgFps": 75,
        "minFps": 74,
        "maxFps": 95,
        "totalFrames": 32,
        "frameRates": 75
      },
      {
        "trial_number": 86,
        "trial_index": 508,
        "rt": 433,
        "correct": true,
        "response": "ArrowRight",
        "congruent": true,
        "gazeTowards": false,
        "gazeCondition": "away",
        "faceOnLeft": true,
        "impliedDirection": 0,
        "testDirection": 0,
        "avgFps": 76,
        "minFps": 75,
        "maxFps": 138,
        "totalFrames": 33,
        "frameRates": 76
      },
      {
        "trial_number": 87,
        "trial_index": 513,
        "rt": 453,
        "correct": true,
        "response": "ArrowRight",
        "congruent": false,
        "gazeTowards": true,
        "gazeCondition": "towards",
        "faceOnLeft": false,
        "impliedDirection": 180,
        "testDirection": 0,
        "avgFps": 75,
        "minFps": 74,
        "maxFps": 76,
        "totalFrames": 33,
        "frameRates": 75
      },
      {
        "trial_number": 88,
        "trial_index": 518,
        "rt": 469,
        "correct": true,
        "response": "ArrowLeft",
        "congruent": true,
        "gazeTowards": true,
        "gazeCondition": "towards",
        "faceOnLeft": false,
        "impliedDirection": 180,
        "testDirection": 180,
        "avgFps": 75,
        "minFps": 75,
        "maxFps": 76,
        "totalFrames": 35,
        "frameRates": 75
      },
      {
        "trial_number": 89,
        "trial_index": 523,
        "rt": 485,
        "correct": true,
        "response": "ArrowLeft",
        "congruent": false,
        "gazeTowards": false,
        "gazeCondition": "away",
        "faceOnLeft": true,
        "impliedDirection": 0,
        "testDirection": 180,
        "avgFps": 75,
        "minFps": 74,
        "maxFps": 76,
        "totalFrames": 36,
        "frameRates": 75
      },
      {
        "trial_number": 90,
        "trial_index": 529,
        "rt": 445,
        "correct": true,
        "response": "ArrowLeft",
        "congruent": true,
        "gazeTowards": false,
        "gazeCondition": "away",
        "faceOnLeft": false,
        "impliedDirection": 180,
        "testDirection": 180,
        "avgFps": 75,
        "minFps": 75,
        "maxFps": 75,
        "totalFrames": 34,
        "frameRates": 75
      },
      {
        "trial_number": 91,
        "trial_index": 534,
        "rt": 375,
        "correct": true,
        "response": "ArrowRight",
        "congruent": true,
        "gazeTowards": false,
        "gazeCondition": "away",
        "faceOnLeft": true,
        "impliedDirection": 0,
        "testDirection": 0,
        "avgFps": 75,
        "minFps": 74,
        "maxFps": 75,
        "totalFrames": 28,
        "frameRates": 75
      },
      {
        "trial_number": 92,
        "trial_index": 539,
        "rt": 381,
        "correct": true,
        "response": "ArrowLeft",
        "congruent": true,
        "gazeTowards": false,
        "gazeCondition": "away",
        "faceOnLeft": false,
        "impliedDirection": 180,
        "testDirection": 180,
        "avgFps": 75,
        "minFps": 75,
        "maxFps": 76,
        "totalFrames": 28,
        "frameRates": 75
      },
      {
        "trial_number": 93,
        "trial_index": 544,
        "rt": 405,
        "correct": true,
        "response": "ArrowRight",
        "congruent": false,
        "gazeTowards": false,
        "gazeCondition": "away",
        "faceOnLeft": false,
        "impliedDirection": 180,
        "testDirection": 0,
        "avgFps": 75,
        "minFps": 75,
        "maxFps": 76,
        "totalFrames": 31,
        "frameRates": 75
      },
      {
        "trial_number": 94,
        "trial_index": 549,
        "rt": 438,
        "correct": true,
        "response": "ArrowRight",
        "congruent": true,
        "gazeTowards": false,
        "gazeCondition": "away",
        "faceOnLeft": true,
        "impliedDirection": 0,
        "testDirection": 0,
        "avgFps": 75,
        "minFps": 75,
        "maxFps": 94,
        "totalFrames": 33,
        "frameRates": 75
      },
      {
        "trial_number": 95,
        "trial_index": 554,
        "rt": 528,
        "correct": true,
        "response": "ArrowLeft",
        "congruent": false,
        "gazeTowards": true,
        "gazeCondition": "towards",
        "faceOnLeft": true,
        "impliedDirection": 0,
        "testDirection": 180,
        "avgFps": 75,
        "minFps": 67,
        "maxFps": 81,
        "totalFrames": 39,
        "frameRates": 75
      },
      {
        "trial_number": 96,
        "trial_index": 559,
        "rt": 423,
        "correct": true,
        "response": "ArrowLeft",
        "congruent": true,
        "gazeTowards": true,
        "gazeCondition": "towards",
        "faceOnLeft": false,
        "impliedDirection": 180,
        "testDirection": 180,
        "avgFps": 76,
        "minFps": 75,
        "maxFps": 139,
        "totalFrames": 32,
        "frameRates": 76
      },
      {
        "trial_number": 97,
        "trial_index": 564,
        "rt": 430,
        "correct": true,
        "response": "ArrowRight",
        "congruent": false,
        "gazeTowards": false,
        "gazeCondition": "away",
        "faceOnLeft": false,
        "impliedDirection": 180,
        "testDirection": 0,
        "avgFps": 75,
        "minFps": 75,
        "maxFps": 76,
        "totalFrames": 32,
        "frameRates": 75
      },
      {
        "trial_number": 98,
        "trial_index": 569,
        "rt": 331,
        "correct": true,
        "response": "ArrowLeft",
        "congruent": true,
        "gazeTowards": true,
        "gazeCondition": "towards",
        "faceOnLeft": false,
        "impliedDirection": 180,
        "testDirection": 180,
        "avgFps": 75,
        "minFps": 74,
        "maxFps": 76,
        "totalFrames": 25,
        "frameRates": 75
      },
      {
        "trial_number": 99,
        "trial_index": 574,
        "rt": 401,
        "correct": true,
        "response": "ArrowRight",
        "congruent": false,
        "gazeTowards": false,
        "gazeCondition": "away",
        "faceOnLeft": false,
        "impliedDirection": 180,
        "testDirection": 0,
        "avgFps": 75,
        "minFps": 74,
        "maxFps": 76,
        "totalFrames": 30,
        "frameRates": 75
      },
      {
        "trial_number": 100,
        "trial_index": 579,
        "rt": 375,
        "correct": true,
        "response": "ArrowLeft",
        "congruent": false,
        "gazeTowards": false,
        "gazeCondition": "away",
        "faceOnLeft": true,
        "impliedDirection": 0,
        "testDirection": 180,
        "avgFps": 75,
        "minFps": 74,
        "maxFps": 75,
        "totalFrames": 28,
        "frameRates": 75
      },
      {
        "trial_number": 101,
        "trial_index": 584,
        "rt": 420,
        "correct": true,
        "response": "ArrowLeft",
        "congruent": true,
        "gazeTowards": false,
        "gazeCondition": "away",
        "faceOnLeft": false,
        "impliedDirection": 180,
        "testDirection": 180,
        "avgFps": 75,
        "minFps": 75,
        "maxFps": 76,
        "totalFrames": 32,
        "frameRates": 75
      },
      {
        "trial_number": 102,
        "trial_index": 589,
        "rt": 427,
        "correct": true,
        "response": "ArrowRight",
        "congruent": true,
        "gazeTowards": true,
        "gazeCondition": "towards",
        "faceOnLeft": true,
        "impliedDirection": 0,
        "testDirection": 0,
        "avgFps": 75,
        "minFps": 74,
        "maxFps": 76,
        "totalFrames": 32,
        "frameRates": 75
      },
      {
        "trial_number": 103,
        "trial_index": 594,
        "rt": 463,
        "correct": true,
        "response": "ArrowRight",
        "congruent": true,
        "gazeTowards": true,
        "gazeCondition": "towards",
        "faceOnLeft": true,
        "impliedDirection": 0,
        "testDirection": 0,
        "avgFps": 75,
        "minFps": 75,
        "maxFps": 75,
        "totalFrames": 35,
        "frameRates": 75
      },
      {
        "trial_number": 104,
        "trial_index": 602,
        "rt": 504,
        "correct": true,
        "response": "ArrowLeft",
        "congruent": false,
        "gazeTowards": false,
        "gazeCondition": "away",
        "faceOnLeft": true,
        "impliedDirection": 0,
        "testDirection": 180,
        "avgFps": 75,
        "minFps": 75,
        "maxFps": 76,
        "totalFrames": 38,
        "frameRates": 75
      },
      {
        "trial_number": 105,
        "trial_index": 607,
        "rt": 385,
        "correct": true,
        "response": "ArrowRight",
        "congruent": true,
        "gazeTowards": true,
        "gazeCondition": "towards",
        "faceOnLeft": true,
        "impliedDirection": 0,
        "testDirection": 0,
        "avgFps": 75,
        "minFps": 75,
        "maxFps": 76,
        "totalFrames": 28,
        "frameRates": 75
      },
      {
        "trial_number": 106,
        "trial_index": 612,
        "rt": 411,
        "correct": true,
        "response": "ArrowRight",
        "congruent": false,
        "gazeTowards": false,
        "gazeCondition": "away",
        "faceOnLeft": false,
        "impliedDirection": 180,
        "testDirection": 0,
        "avgFps": 75,
        "minFps": 75,
        "maxFps": 76,
        "totalFrames": 31,
        "frameRates": 75
      },
      {
        "trial_number": 107,
        "trial_index": 617,
        "rt": 382,
        "correct": true,
        "response": "ArrowLeft",
        "congruent": false,
        "gazeTowards": false,
        "gazeCondition": "away",
        "faceOnLeft": true,
        "impliedDirection": 0,
        "testDirection": 180,
        "avgFps": 75,
        "minFps": 75,
        "maxFps": 79,
        "totalFrames": 29,
        "frameRates": 75
      },
      {
        "trial_number": 108,
        "trial_index": 622,
        "rt": 439,
        "correct": true,
        "response": "ArrowLeft",
        "congruent": true,
        "gazeTowards": false,
        "gazeCondition": "away",
        "faceOnLeft": false,
        "impliedDirection": 180,
        "testDirection": 180,
        "avgFps": 75,
        "minFps": 75,
        "maxFps": 95,
        "totalFrames": 33,
        "frameRates": 75
      },
      {
        "trial_number": 109,
        "trial_index": 627,
        "rt": 388,
        "correct": true,
        "response": "ArrowLeft",
        "congruent": false,
        "gazeTowards": true,
        "gazeCondition": "towards",
        "faceOnLeft": true,
        "impliedDirection": 0,
        "testDirection": 180,
        "avgFps": 76,
        "minFps": 75,
        "maxFps": 95,
        "totalFrames": 29,
        "frameRates": 76
      },
      {
        "trial_number": 110,
        "trial_index": 632,
        "rt": 397,
        "correct": true,
        "response": "ArrowRight",
        "congruent": false,
        "gazeTowards": true,
        "gazeCondition": "towards",
        "faceOnLeft": false,
        "impliedDirection": 180,
        "testDirection": 0,
        "avgFps": 75,
        "minFps": 68,
        "maxFps": 80,
        "totalFrames": 29,
        "frameRates": 75
      },
      {
        "trial_number": 111,
        "trial_index": 637,
        "rt": 444,
        "correct": true,
        "response": "ArrowRight",
        "congruent": false,
        "gazeTowards": true,
        "gazeCondition": "towards",
        "faceOnLeft": false,
        "impliedDirection": 180,
        "testDirection": 0,
        "avgFps": 75,
        "minFps": 74,
        "maxFps": 76,
        "totalFrames": 33,
        "frameRates": 75
      },
      {
        "trial_number": 112,
        "trial_index": 642,
        "rt": 350,
        "correct": true,
        "response": "ArrowLeft",
        "congruent": false,
        "gazeTowards": true,
        "gazeCondition": "towards",
        "faceOnLeft": true,
        "impliedDirection": 0,
        "testDirection": 180,
        "avgFps": 75,
        "minFps": 74,
        "maxFps": 76,
        "totalFrames": 27,
        "frameRates": 75
      },
      {
        "trial_number": 113,
        "trial_index": 647,
        "rt": 429,
        "correct": true,
        "response": "ArrowLeft",
        "congruent": false,
        "gazeTowards": true,
        "gazeCondition": "towards",
        "faceOnLeft": true,
        "impliedDirection": 0,
        "testDirection": 180,
        "avgFps": 73,
        "minFps": 36,
        "maxFps": 82,
        "totalFrames": 32,
        "frameRates": 73
      },
      {
        "trial_number": 114,
        "trial_index": 652,
        "rt": 410,
        "correct": true,
        "response": "ArrowLeft",
        "congruent": true,
        "gazeTowards": false,
        "gazeCondition": "away",
        "faceOnLeft": false,
        "impliedDirection": 180,
        "testDirection": 180,
        "avgFps": 75,
        "minFps": 75,
        "maxFps": 76,
        "totalFrames": 30,
        "frameRates": 75
      },
      {
        "trial_number": 115,
        "trial_index": 657,
        "rt": 411,
        "correct": true,
        "response": "ArrowLeft",
        "congruent": true,
        "gazeTowards": true,
        "gazeCondition": "towards",
        "faceOnLeft": false,
        "impliedDirection": 180,
        "testDirection": 180,
        "avgFps": 75,
        "minFps": 74,
        "maxFps": 76,
        "totalFrames": 31,
        "frameRates": 75
      },
      {
        "trial_number": 116,
        "trial_index": 665,
        "rt": 418,
        "correct": true,
        "response": "ArrowLeft",
        "congruent": true,
        "gazeTowards": true,
        "gazeCondition": "towards",
        "faceOnLeft": false,
        "impliedDirection": 180,
        "testDirection": 180,
        "avgFps": 76,
        "minFps": 74,
        "maxFps": 134,
        "totalFrames": 32,
        "frameRates": 76
      },
      {
        "trial_number": 117,
        "trial_index": 670,
        "rt": 578,
        "correct": true,
        "response": "ArrowRight",
        "congruent": true,
        "gazeTowards": true,
        "gazeCondition": "towards",
        "faceOnLeft": true,
        "impliedDirection": 0,
        "testDirection": 0,
        "avgFps": 75,
        "minFps": 67,
        "maxFps": 81,
        "totalFrames": 43,
        "frameRates": 75
      },
      {
        "trial_number": 118,
        "trial_index": 678,
        "rt": 424,
        "correct": true,
        "response": "ArrowRight",
        "congruent": false,
        "gazeTowards": true,
        "gazeCondition": "towards",
        "faceOnLeft": false,
        "impliedDirection": 180,
        "testDirection": 0,
        "avgFps": 75,
        "minFps": 75,
        "maxFps": 76,
        "totalFrames": 31,
        "frameRates": 75
      },
      {
        "trial_number": 119,
        "trial_index": 683,
        "rt": 430,
        "correct": true,
        "response": "ArrowRight",
        "congruent": false,
        "gazeTowards": true,
        "gazeCondition": "towards",
        "faceOnLeft": false,
        "impliedDirection": 180,
        "testDirection": 0,
        "avgFps": 74,
        "minFps": 53,
        "maxFps": 85,
        "totalFrames": 32,
        "frameRates": 74
      }
    ],
    "catch": {
      "total": 12,
      "correct": 12,
      "accuracy": 100,
      "meanRT": 540,
      "trials": [
        {
          "trial_number": 0,
          "trial_index": 73,
          "rt": 620,
          "correct": true,
          "colorTarget": "face",
          "gazeTowards": false,
          "gazeCondition": "away",
          "faceOnLeft": false
        },
        {
          "trial_number": 1,
          "trial_index": 81,
          "rt": 445,
          "correct": true,
          "colorTarget": "face",
          "gazeTowards": true,
          "gazeCondition": "towards",
          "faceOnLeft": false
        },
        {
          "trial_number": 2,
          "trial_index": 225,
          "rt": 644,
          "correct": true,
          "colorTarget": "tree",
          "gazeTowards": true,
          "gazeCondition": "towards",
          "faceOnLeft": true
        },
        {
          "trial_number": 3,
          "trial_index": 399,
          "rt": 646,
          "correct": true,
          "colorTarget": "tree",
          "gazeTowards": true,
          "gazeCondition": "towards",
          "faceOnLeft": false
        },
        {
          "trial_number": 4,
          "trial_index": 407,
          "rt": 637,
          "correct": true,
          "colorTarget": "face",
          "gazeTowards": false,
          "gazeCondition": "away",
          "faceOnLeft": true
        },
        {
          "trial_number": 5,
          "trial_index": 420,
          "rt": 430,
          "correct": true,
          "colorTarget": "tree",
          "gazeTowards": true,
          "gazeCondition": "towards",
          "faceOnLeft": false
        },
        {
          "trial_number": 6,
          "trial_index": 433,
          "rt": 445,
          "correct": true,
          "colorTarget": "face",
          "gazeTowards": false,
          "gazeCondition": "away",
          "faceOnLeft": true
        },
        {
          "trial_number": 7,
          "trial_index": 456,
          "rt": 428,
          "correct": true,
          "colorTarget": "face",
          "gazeTowards": false,
          "gazeCondition": "away",
          "faceOnLeft": false
        },
        {
          "trial_number": 8,
          "trial_index": 479,
          "rt": 436,
          "correct": true,
          "colorTarget": "tree",
          "gazeTowards": true,
          "gazeCondition": "towards",
          "faceOnLeft": false
        },
        {
          "trial_number": 9,
          "trial_index": 598,
          "rt": 536,
          "correct": true,
          "colorTarget": "face",
          "gazeTowards": false,
          "gazeCondition": "away",
          "faceOnLeft": false
        },
        {
          "trial_number": 10,
          "trial_index": 661,
          "rt": 623,
          "correct": true,
          "colorTarget": "tree",
          "gazeTowards": true,
          "gazeCondition": "towards",
          "faceOnLeft": true
        },
        {
          "trial_number": 11,
          "trial_index": 674,
          "rt": 586,
          "correct": true,
          "colorTarget": "tree",
          "gazeTowards": true,
          "gazeCondition": "towards",
          "faceOnLeft": true
        }
      ]
    },
    "practice": {
      "trials": [
        {
          "trial_number": 0,
          "rt": null,
          "correct": false,
          "direction": 180
        },
        {
          "trial_number": 1,
          "rt": 587,
          "correct": true,
          "direction": 180
        },
        {
          "trial_number": 2,
          "rt": 1073,
          "correct": true,
          "direction": 180
        },
        {
          "trial_number": 3,
          "rt": 521,
          "correct": true,
          "direction": 0
        },
        {
          "trial_number": 4,
          "rt": 483,
          "correct": true,
          "direction": 180
        },
        {
          "trial_number": 5,
          "rt": 495,
          "correct": true,
          "direction": 0
        },
        {
          "trial_number": 6,
          "rt": 511,
          "correct": true,
          "direction": 180
        },
        {
          "trial_number": 7,
          "rt": 503,
          "correct": true,
          "direction": 0
        },
        {
          "trial_number": 8,
          "rt": 513,
          "correct": true,
          "direction": 180
        },
        {
          "trial_number": 9,
          "rt": 578,
          "correct": true,
          "direction": 180
        }
      ],
      "meanRT": 585,
      "accuracy": 90
    }
  }
}