{
  "experiment": "rdk-face-1",
  "UUID": "d088f136-855a-43f7-898e-f20c1312a565",
  "data": {
    "session": {
      "experiment_version": "1.8.6",
      "treatment": "faces_towards_away_catch",
      "file_version": "1.8.6",
      "totalTrials": 120,
      "totalTrialsIncludingCatch": 132,
      "conditions": {
        "gazeTowardsCount": 60,
        "gazeAwayCount": 60,
        "gazeTowardsAccuracy": 90,
        "gazeAwayAccuracy": 83
      },
      "session_group": "default",
      "browserData": {
        "os": "Windows",
        "browser": "Chrome",
        "screenResolution": "1800x1200",
        "browserViewport": "1800x1200",
        "devicePixelRatio": 2.5,
        "colorDepth": 32,
        "hardwareConcurrency": 8,
        "deviceMemory": 8,
        "gpuRenderer": "ANGLE (Microsoft, Microsoft Basic Render Driver (0x0000008C) Direct3D11 vs_5_0 ps_5_0, D3D11)",
        "measuredRefreshRateHz": 43
      },
      "attention": {
        "visibilityEvents": []
      },
      "calibration": {
        "monitorWidthCm": 38,
        "viewingDistanceCm": 54,
        "pixelsPerDegree": 50
      },
      "parameters": {
        "coherence": 0.4,
        "apertureDeg": 5,
        "densityDotsPerDeg2": 40,
        "dotDiameterDeg": 0.035,
        "dotSpeedDegPerSec": 3,
        "lifetimeMs": 200,
        "fixationDurationMs": 1500,
        "faceDurationMs": 1500,
        "testDurationMs": 2000,
        "catchResponseMs": 3000
      },
      "prolific": {
        "prolificPid": "65d62d6afc0dcc5b81ceff41",
        "studyId": "",
        "sessionId": ""
      },
      "timing": {
        "startTime": "2026-03-06T04:40:01.090Z",
        "endTime": "2026-03-06T04:55:36.511Z",
        "totalElapsedTimeMs": 935421
      }
    },
    "trials": [
      {
        "trial_number": 0,
        "trial_index": 90,
        "rt": 860,
        "correct": true,
        "response": "ArrowLeft",
        "congruent": false,
        "gazeTowards": true,
        "gazeCondition": "towards",
        "faceOnLeft": true,
        "impliedDirection": 0,
        "testDirection": 180,
        "avgFps": 31,
        "minFps": 20,
        "maxFps": 79,
        "totalFrames": 27,
        "frameRates": 31
      },
      {
        "trial_number": 1,
        "trial_index": 98,
        "rt": 1026,
        "correct": true,
        "response": "ArrowLeft",
        "congruent": false,
        "gazeTowards": true,
        "gazeCondition": "towards",
        "faceOnLeft": true,
        "impliedDirection": 0,
        "testDirection": 180,
        "avgFps": 31,
        "minFps": 30,
        "maxFps": 60,
        "totalFrames": 32,
        "frameRates": 31
      },
      {
        "trial_number": 2,
        "trial_index": 103,
        "rt": 1793,
        "correct": true,
        "response": "ArrowLeft",
        "congruent": true,
        "gazeTowards": true,
        "gazeCondition": "towards",
        "faceOnLeft": false,
        "impliedDirection": 180,
        "testDirection": 180,
        "avgFps": 31,
        "minFps": 20,
        "maxFps": 60,
        "totalFrames": 55,
        "frameRates": 31
      },
      {
        "trial_number": 3,
        "trial_index": 108,
        "rt": 741,
        "correct": true,
        "response": "ArrowRight",
        "congruent": true,
        "gazeTowards": false,
        "gazeCondition": "away",
        "faceOnLeft": true,
        "impliedDirection": 0,
        "testDirection": 0,
        "avgFps": 30,
        "minFps": 30,
        "maxFps": 30,
        "totalFrames": 22,
        "frameRates": 30
      },
      {
        "trial_number": 4,
        "trial_index": 113,
        "rt": 1018,
        "correct": true,
        "response": "ArrowLeft",
        "congruent": true,
        "gazeTowards": false,
        "gazeCondition": "away",
        "faceOnLeft": false,
        "impliedDirection": 180,
        "testDirection": 180,
        "avgFps": 32,
        "minFps": 30,
        "maxFps": 60,
        "totalFrames": 31,
        "frameRates": 32
      },
      {
        "trial_number": 5,
        "trial_index": 118,
        "rt": 598,
        "correct": true,
        "response": "ArrowRight",
        "congruent": true,
        "gazeTowards": true,
        "gazeCondition": "towards",
        "faceOnLeft": true,
        "impliedDirection": 0,
        "testDirection": 0,
        "avgFps": 30,
        "minFps": 30,
        "maxFps": 30,
        "totalFrames": 18,
        "frameRates": 30
      },
      {
        "trial_number": 6,
        "trial_index": 123,
        "rt": 904,
        "correct": true,
        "response": "ArrowRight",
        "congruent": false,
        "gazeTowards": true,
        "gazeCondition": "towards",
        "faceOnLeft": false,
        "impliedDirection": 180,
        "testDirection": 0,
        "avgFps": 30,
        "minFps": 28,
        "maxFps": 32,
        "totalFrames": 27,
        "frameRates": 30
      },
      {
        "trial_number": 7,
        "trial_index": 128,
        "rt": 988,
        "correct": true,
        "response": "ArrowRight",
        "congruent": true,
        "gazeTowards": false,
        "gazeCondition": "away",
        "faceOnLeft": true,
        "impliedDirection": 0,
        "testDirection": 0,
        "avgFps": 31,
        "minFps": 20,
        "maxFps": 60,
        "totalFrames": 30,
        "frameRates": 31
      },
      {
        "trial_number": 8,
        "trial_index": 133,
        "rt": 677,
        "correct": true,
        "response": "ArrowRight",
        "congruent": true,
        "gazeTowards": true,
        "gazeCondition": "towards",
        "faceOnLeft": true,
        "impliedDirection": 0,
        "testDirection": 0,
        "avgFps": 31,
        "minFps": 30,
        "maxFps": 60,
        "totalFrames": 21,
        "frameRates": 31
      },
      {
        "trial_number": 9,
        "trial_index": 138,
        "rt": 705,
        "correct": true,
        "response": "ArrowLeft",
        "congruent": false,
        "gazeTowards": false,
        "gazeCondition": "away",
        "faceOnLeft": true,
        "impliedDirection": 0,
        "testDirection": 180,
        "avgFps": 30,
        "minFps": 30,
        "maxFps": 30,
        "totalFrames": 21,
        "frameRates": 30
      },
      {
        "trial_number": 10,
        "trial_index": 143,
        "rt": 743,
        "correct": true,
        "response": "ArrowLeft",
        "congruent": true,
        "gazeTowards": false,
        "gazeCondition": "away",
        "faceOnLeft": false,
        "impliedDirection": 180,
        "testDirection": 180,
        "avgFps": 30,
        "minFps": 30,
        "maxFps": 30,
        "totalFrames": 22,
        "frameRates": 30
      },
      {
        "trial_number": 11,
        "trial_index": 148,
        "rt": 737,
        "correct": true,
        "response": "ArrowRight",
        "congruent": false,
        "gazeTowards": true,
        "gazeCondition": "towards",
        "faceOnLeft": false,
        "impliedDirection": 180,
        "testDirection": 0,
        "avgFps": 31,
        "minFps": 30,
        "maxFps": 60,
        "totalFrames": 23,
        "frameRates": 31
      },
      {
        "trial_number": 12,
        "trial_index": 153,
        "rt": 1892,
        "correct": false,
        "response": "ArrowLeft",
        "congruent": false,
        "gazeTowards": true,
        "gazeCondition": "towards",
        "faceOnLeft": false,
        "impliedDirection": 180,
        "testDirection": 0,
        "avgFps": 31,
        "minFps": 30,
        "maxFps": 60,
        "totalFrames": 59,
        "frameRates": 31
      },
      {
        "trial_number": 13,
        "trial_index": 158,
        "rt": 916,
        "correct": true,
        "response": "ArrowLeft",
        "congruent": true,
        "gazeTowards": true,
        "gazeCondition": "towards",
        "faceOnLeft": false,
        "impliedDirection": 180,
        "testDirection": 180,
        "avgFps": 32,
        "minFps": 30,
        "maxFps": 60,
        "totalFrames": 28,
        "frameRates": 32
      },
      {
        "trial_number": 14,
        "trial_index": 163,
        "rt": 1978,
        "correct": true,
        "response": "ArrowRight",
        "congruent": true,
        "gazeTowards": true,
        "gazeCondition": "towards",
        "faceOnLeft": true,
        "impliedDirection": 0,
        "testDirection": 0,
        "avgFps": 31,
        "minFps": 30,
        "maxFps": 60,
        "totalFrames": 60,
        "frameRates": 31
      },
      {
        "trial_number": 15,
        "trial_index": 168,
        "rt": 1423,
        "correct": true,
        "response": "ArrowLeft",
        "congruent": false,
        "gazeTowards": false,
        "gazeCondition": "away",
        "faceOnLeft": true,
        "impliedDirection": 0,
        "testDirection": 180,
        "avgFps": 31,
        "minFps": 30,
        "maxFps": 60,
        "totalFrames": 44,
        "frameRates": 31
      },
      {
        "trial_number": 16,
        "trial_index": 173,
        "rt": 1973,
        "correct": true,
        "response": "ArrowLeft",
        "congruent": false,
        "gazeTowards": false,
        "gazeCondition": "away",
        "faceOnLeft": true,
        "impliedDirection": 0,
        "testDirection": 180,
        "avgFps": 31,
        "minFps": 30,
        "maxFps": 60,
        "totalFrames": 60,
        "frameRates": 31
      },
      {
        "trial_number": 17,
        "trial_index": 178,
        "rt": 1112,
        "correct": false,
        "response": "ArrowRight",
        "congruent": false,
        "gazeTowards": true,
        "gazeCondition": "towards",
        "faceOnLeft": true,
        "impliedDirection": 0,
        "testDirection": 180,
        "avgFps": 31,
        "minFps": 30,
        "maxFps": 60,
        "totalFrames": 34,
        "frameRates": 31
      },
      {
        "trial_number": 18,
        "trial_index": 183,
        "rt": 1548,
        "correct": false,
        "response": "ArrowRight",
        "congruent": true,
        "gazeTowards": false,
        "gazeCondition": "away",
        "faceOnLeft": false,
        "impliedDirection": 180,
        "testDirection": 180,
        "avgFps": 31,
        "minFps": 20,
        "maxFps": 60,
        "totalFrames": 47,
        "frameRates": 31
      },
      {
        "trial_number": 19,
        "trial_index": 188,
        "rt": null,
        "correct": false,
        "response": null,
        "congruent": true,
        "gazeTowards": false,
        "gazeCondition": "away",
        "faceOnLeft": false,
        "impliedDirection": 180,
        "testDirection": 180,
        "avgFps": 31,
        "minFps": 30,
        "maxFps": 60,
        "totalFrames": 61,
        "frameRates": 31
      },
      {
        "trial_number": 20,
        "trial_index": 193,
        "rt": 991,
        "correct": true,
        "response": "ArrowRight",
        "congruent": true,
        "gazeTowards": false,
        "gazeCondition": "away",
        "faceOnLeft": true,
        "impliedDirection": 0,
        "testDirection": 0,
        "avgFps": 31,
        "minFps": 15,
        "maxFps": 60,
        "totalFrames": 30,
        "frameRates": 31
      },
      {
        "trial_number": 21,
        "trial_index": 198,
        "rt": 1135,
        "correct": true,
        "response": "ArrowLeft",
        "congruent": true,
        "gazeTowards": false,
        "gazeCondition": "away",
        "faceOnLeft": false,
        "impliedDirection": 180,
        "testDirection": 180,
        "avgFps": 30,
        "minFps": 30,
        "maxFps": 30,
        "totalFrames": 34,
        "frameRates": 30
      },
      {
        "trial_number": 22,
        "trial_index": 203,
        "rt": 722,
        "correct": true,
        "response": "ArrowRight",
        "congruent": false,
        "gazeTowards": true,
        "gazeCondition": "towards",
        "faceOnLeft": false,
        "impliedDirection": 180,
        "testDirection": 0,
        "avgFps": 30,
        "minFps": 30,
        "maxFps": 30,
        "totalFrames": 21,
        "frameRates": 30
      },
      {
        "trial_number": 23,
        "trial_index": 208,
        "rt": 659,
        "correct": true,
        "response": "ArrowRight",
        "congruent": false,
        "gazeTowards": false,
        "gazeCondition": "away",
        "faceOnLeft": false,
        "impliedDirection": 180,
        "testDirection": 0,
        "avgFps": 30,
        "minFps": 30,
        "maxFps": 30,
        "totalFrames": 19,
        "frameRates": 30
      },
      {
        "trial_number": 24,
        "trial_index": 216,
        "rt": 716,
        "correct": true,
        "response": "ArrowLeft",
        "congruent": true,
        "gazeTowards": false,
        "gazeCondition": "away",
        "faceOnLeft": false,
        "impliedDirection": 180,
        "testDirection": 180,
        "avgFps": 30,
        "minFps": 30,
        "maxFps": 30,
        "totalFrames": 21,
        "frameRates": 30
      },
      {
        "trial_number": 25,
        "trial_index": 221,
        "rt": 848,
        "correct": true,
        "response": "ArrowLeft",
        "congruent": true,
        "gazeTowards": true,
        "gazeCondition": "towards",
        "faceOnLeft": false,
        "impliedDirection": 180,
        "testDirection": 180,
        "avgFps": 30,
        "minFps": 30,
        "maxFps": 30,
        "totalFrames": 25,
        "frameRates": 30
      },
      {
        "trial_number": 26,
        "trial_index": 226,
        "rt": 825,
        "correct": true,
        "response": "ArrowRight",
        "congruent": false,
        "gazeTowards": true,
        "gazeCondition": "towards",
        "faceOnLeft": false,
        "impliedDirection": 180,
        "testDirection": 0,
        "avgFps": 32,
        "minFps": 20,
        "maxFps": 60,
        "totalFrames": 25,
        "frameRates": 32
      },
      {
        "trial_number": 27,
        "trial_index": 234,
        "rt": 778,
        "correct": true,
        "response": "ArrowLeft",
        "congruent": false,
        "gazeTowards": true,
        "gazeCondition": "towards",
        "faceOnLeft": true,
        "impliedDirection": 0,
        "testDirection": 180,
        "avgFps": 30,
        "minFps": 30,
        "maxFps": 30,
        "totalFrames": 23,
        "frameRates": 30
      },
      {
        "trial_number": 28,
        "trial_index": 239,
        "rt": 910,
        "correct": true,
        "response": "ArrowRight",
        "congruent": false,
        "gazeTowards": true,
        "gazeCondition": "towards",
        "faceOnLeft": false,
        "impliedDirection": 180,
        "testDirection": 0,
        "avgFps": 30,
        "minFps": 30,
        "maxFps": 30,
        "totalFrames": 27,
        "frameRates": 30
      },
      {
        "trial_number": 29,
        "trial_index": 244,
        "rt": 949,
        "correct": true,
        "response": "ArrowLeft",
        "congruent": false,
        "gazeTowards": false,
        "gazeCondition": "away",
        "faceOnLeft": true,
        "impliedDirection": 0,
        "testDirection": 180,
        "avgFps": 32,
        "minFps": 30,
        "maxFps": 60,
        "totalFrames": 29,
        "frameRates": 32
      },
      {
        "trial_number": 30,
        "trial_index": 250,
        "rt": 1319,
        "correct": true,
        "response": "ArrowLeft",
        "congruent": false,
        "gazeTowards": false,
        "gazeCondition": "away",
        "faceOnLeft": true,
        "impliedDirection": 0,
        "testDirection": 180,
        "avgFps": 31,
        "minFps": 30,
        "maxFps": 60,
        "totalFrames": 41,
        "frameRates": 31
      },
      {
        "trial_number": 31,
        "trial_index": 255,
        "rt": 621,
        "correct": true,
        "response": "ArrowRight",
        "congruent": true,
        "gazeTowards": false,
        "gazeCondition": "away",
        "faceOnLeft": true,
        "impliedDirection": 0,
        "testDirection": 0,
        "avgFps": 31,
        "minFps": 30,
        "maxFps": 60,
        "totalFrames": 18,
        "frameRates": 31
      },
      {
        "trial_number": 32,
        "trial_index": 260,
        "rt": 533,
        "correct": true,
        "response": "ArrowRight",
        "congruent": false,
        "gazeTowards": false,
        "gazeCondition": "away",
        "faceOnLeft": false,
        "impliedDirection": 180,
        "testDirection": 0,
        "avgFps": 30,
        "minFps": 30,
        "maxFps": 30,
        "totalFrames": 16,
        "frameRates": 30
      },
      {
        "trial_number": 33,
        "trial_index": 265,
        "rt": 821,
        "correct": true,
        "response": "ArrowLeft",
        "congruent": true,
        "gazeTowards": false,
        "gazeCondition": "away",
        "faceOnLeft": false,
        "impliedDirection": 180,
        "testDirection": 180,
        "avgFps": 31,
        "minFps": 30,
        "maxFps": 60,
        "totalFrames": 24,
        "frameRates": 31
      },
      {
        "trial_number": 34,
        "trial_index": 270,
        "rt": 527,
        "correct": false,
        "response": "ArrowRight",
        "congruent": false,
        "gazeTowards": true,
        "gazeCondition": "towards",
        "faceOnLeft": true,
        "impliedDirection": 0,
        "testDirection": 180,
        "avgFps": 32,
        "minFps": 30,
        "maxFps": 167,
        "totalFrames": 16,
        "frameRates": 32
      },
      {
        "trial_number": 35,
        "trial_index": 275,
        "rt": 490,
        "correct": false,
        "response": "ArrowLeft",
        "congruent": false,
        "gazeTowards": false,
        "gazeCondition": "away",
        "faceOnLeft": false,
        "impliedDirection": 180,
        "testDirection": 0,
        "avgFps": 30,
        "minFps": 30,
        "maxFps": 30,
        "totalFrames": 14,
        "frameRates": 30
      },
      {
        "trial_number": 36,
        "trial_index": 280,
        "rt": 800,
        "correct": true,
        "response": "ArrowLeft",
        "congruent": true,
        "gazeTowards": false,
        "gazeCondition": "away",
        "faceOnLeft": false,
        "impliedDirection": 180,
        "testDirection": 180,
        "avgFps": 31,
        "minFps": 20,
        "maxFps": 60,
        "totalFrames": 24,
        "frameRates": 31
      },
      {
        "trial_number": 37,
        "trial_index": 285,
        "rt": 893,
        "correct": true,
        "response": "ArrowLeft",
        "congruent": false,
        "gazeTowards": true,
        "gazeCondition": "towards",
        "faceOnLeft": true,
        "impliedDirection": 0,
        "testDirection": 180,
        "avgFps": 31,
        "minFps": 20,
        "maxFps": 60,
        "totalFrames": 27,
        "frameRates": 31
      },
      {
        "trial_number": 38,
        "trial_index": 290,
        "rt": 587,
        "correct": true,
        "response": "ArrowLeft",
        "congruent": true,
        "gazeTowards": false,
        "gazeCondition": "away",
        "faceOnLeft": false,
        "impliedDirection": 180,
        "testDirection": 180,
        "avgFps": 30,
        "minFps": 30,
        "maxFps": 30,
        "totalFrames": 17,
        "frameRates": 30
      },
      {
        "trial_number": 39,
        "trial_index": 295,
        "rt": 580,
        "correct": true,
        "response": "ArrowRight",
        "congruent": true,
        "gazeTowards": false,
        "gazeCondition": "away",
        "faceOnLeft": true,
        "impliedDirection": 0,
        "testDirection": 0,
        "avgFps": 32,
        "minFps": 20,
        "maxFps": 60,
        "totalFrames": 18,
        "frameRates": 32
      },
      {
        "trial_number": 40,
        "trial_index": 300,
        "rt": 534,
        "correct": true,
        "response": "ArrowLeft",
        "congruent": false,
        "gazeTowards": true,
        "gazeCondition": "towards",
        "faceOnLeft": true,
        "impliedDirection": 0,
        "testDirection": 180,
        "avgFps": 30,
        "minFps": 30,
        "maxFps": 30,
        "totalFrames": 16,
        "frameRates": 30
      },
      {
        "trial_number": 41,
        "trial_index": 305,
        "rt": 550,
        "correct": false,
        "response": "ArrowLeft",
        "congruent": false,
        "gazeTowards": false,
        "gazeCondition": "away",
        "faceOnLeft": false,
        "impliedDirection": 180,
        "testDirection": 0,
        "avgFps": 30,
        "minFps": 30,
        "maxFps": 30,
        "totalFrames": 16,
        "frameRates": 30
      },
      {
        "trial_number": 42,
        "trial_index": 310,
        "rt": 1227,
        "correct": true,
        "response": "ArrowLeft",
        "congruent": true,
        "gazeTowards": true,
        "gazeCondition": "towards",
        "faceOnLeft": false,
        "impliedDirection": 180,
        "testDirection": 180,
        "avgFps": 32,
        "minFps": 30,
        "maxFps": 60,
        "totalFrames": 38,
        "frameRates": 32
      },
      {
        "trial_number": 43,
        "trial_index": 315,
        "rt": 674,
        "correct": true,
        "response": "ArrowRight",
        "congruent": true,
        "gazeTowards": true,
        "gazeCondition": "towards",
        "faceOnLeft": true,
        "impliedDirection": 0,
        "testDirection": 0,
        "avgFps": 30,
        "minFps": 30,
        "maxFps": 30,
        "totalFrames": 20,
        "frameRates": 30
      },
      {
        "trial_number": 44,
        "trial_index": 320,
        "rt": 513,
        "correct": true,
        "response": "ArrowRight",
        "congruent": true,
        "gazeTowards": true,
        "gazeCondition": "towards",
        "faceOnLeft": true,
        "impliedDirection": 0,
        "testDirection": 0,
        "avgFps": 30,
        "minFps": 30,
        "maxFps": 30,
        "totalFrames": 15,
        "frameRates": 30
      },
      {
        "trial_number": 45,
        "trial_index": 325,
        "rt": 634,
        "correct": true,
        "response": "ArrowRight",
        "congruent": true,
        "gazeTowards": false,
        "gazeCondition": "away",
        "faceOnLeft": true,
        "impliedDirection": 0,
        "testDirection": 0,
        "avgFps": 30,
        "minFps": 30,
        "maxFps": 30,
        "totalFrames": 19,
        "frameRates": 30
      },
      {
        "trial_number": 46,
        "trial_index": 330,
        "rt": 715,
        "correct": true,
        "response": "ArrowRight",
        "congruent": true,
        "gazeTowards": true,
        "gazeCondition": "towards",
        "faceOnLeft": true,
        "impliedDirection": 0,
        "testDirection": 0,
        "avgFps": 31,
        "minFps": 20,
        "maxFps": 60,
        "totalFrames": 22,
        "frameRates": 31
      },
      {
        "trial_number": 47,
        "trial_index": 335,
        "rt": 769,
        "correct": false,
        "response": "ArrowRight",
        "congruent": false,
        "gazeTowards": false,
        "gazeCondition": "away",
        "faceOnLeft": true,
        "impliedDirection": 0,
        "testDirection": 180,
        "avgFps": 30,
        "minFps": 30,
        "maxFps": 30,
        "totalFrames": 23,
        "frameRates": 30
      },
      {
        "trial_number": 48,
        "trial_index": 343,
        "rt": 958,
        "correct": true,
        "response": "ArrowRight",
        "congruent": true,
        "gazeTowards": true,
        "gazeCondition": "towards",
        "faceOnLeft": true,
        "impliedDirection": 0,
        "testDirection": 0,
        "avgFps": 30,
        "minFps": 30,
        "maxFps": 30,
        "totalFrames": 28,
        "frameRates": 30
      },
      {
        "trial_number": 49,
        "trial_index": 348,
        "rt": 841,
        "correct": true,
        "response": "ArrowRight",
        "congruent": false,
        "gazeTowards": false,
        "gazeCondition": "away",
        "faceOnLeft": false,
        "impliedDirection": 180,
        "testDirection": 0,
        "avgFps": 30,
        "minFps": 30,
        "maxFps": 30,
        "totalFrames": 25,
        "frameRates": 30
      },
      {
        "trial_number": 50,
        "trial_index": 353,
        "rt": 932,
        "correct": true,
        "response": "ArrowLeft",
        "congruent": true,
        "gazeTowards": true,
        "gazeCondition": "towards",
        "faceOnLeft": false,
        "impliedDirection": 180,
        "testDirection": 180,
        "avgFps": 32,
        "minFps": 30,
        "maxFps": 60,
        "totalFrames": 29,
        "frameRates": 32
      },
      {
        "trial_number": 51,
        "trial_index": 358,
        "rt": 977,
        "correct": true,
        "response": "ArrowRight",
        "congruent": true,
        "gazeTowards": true,
        "gazeCondition": "towards",
        "faceOnLeft": true,
        "impliedDirection": 0,
        "testDirection": 0,
        "avgFps": 31,
        "minFps": 30,
        "maxFps": 60,
        "totalFrames": 30,
        "frameRates": 31
      },
      {
        "trial_number": 52,
        "trial_index": 363,
        "rt": 1232,
        "correct": true,
        "response": "ArrowRight",
        "congruent": false,
        "gazeTowards": true,
        "gazeCondition": "towards",
        "faceOnLeft": false,
        "impliedDirection": 180,
        "testDirection": 0,
        "avgFps": 31,
        "minFps": 20,
        "maxFps": 60,
        "totalFrames": 38,
        "frameRates": 31
      },
      {
        "trial_number": 53,
        "trial_index": 368,
        "rt": 798,
        "correct": true,
        "response": "ArrowRight",
        "congruent": true,
        "gazeTowards": false,
        "gazeCondition": "away",
        "faceOnLeft": true,
        "impliedDirection": 0,
        "testDirection": 0,
        "avgFps": 32,
        "minFps": 30,
        "maxFps": 60,
        "totalFrames": 25,
        "frameRates": 32
      },
      {
        "trial_number": 54,
        "trial_index": 373,
        "rt": 703,
        "correct": true,
        "response": "ArrowRight",
        "congruent": false,
        "gazeTowards": false,
        "gazeCondition": "away",
        "faceOnLeft": false,
        "impliedDirection": 180,
        "testDirection": 0,
        "avgFps": 31,
        "minFps": 30,
        "maxFps": 60,
        "totalFrames": 22,
        "frameRates": 31
      },
      {
        "trial_number": 55,
        "trial_index": 378,
        "rt": 748,
        "correct": true,
        "response": "ArrowLeft",
        "congruent": false,
        "gazeTowards": true,
        "gazeCondition": "towards",
        "faceOnLeft": true,
        "impliedDirection": 0,
        "testDirection": 180,
        "avgFps": 30,
        "minFps": 30,
        "maxFps": 30,
        "totalFrames": 22,
        "frameRates": 30
      },
      {
        "trial_number": 56,
        "trial_index": 383,
        "rt": 536,
        "correct": true,
        "response": "ArrowRight",
        "congruent": false,
        "gazeTowards": false,
        "gazeCondition": "away",
        "faceOnLeft": false,
        "impliedDirection": 180,
        "testDirection": 0,
        "avgFps": 30,
        "minFps": 30,
        "maxFps": 30,
        "totalFrames": 16,
        "frameRates": 30
      },
      {
        "trial_number": 57,
        "trial_index": 388,
        "rt": 602,
        "correct": true,
        "response": "ArrowRight",
        "congruent": false,
        "gazeTowards": true,
        "gazeCondition": "towards",
        "faceOnLeft": false,
        "impliedDirection": 180,
        "testDirection": 0,
        "avgFps": 30,
        "minFps": 30,
        "maxFps": 30,
        "totalFrames": 18,
        "frameRates": 30
      },
      {
        "trial_number": 58,
        "trial_index": 393,
        "rt": 662,
        "correct": true,
        "response": "ArrowLeft",
        "congruent": false,
        "gazeTowards": false,
        "gazeCondition": "away",
        "faceOnLeft": true,
        "impliedDirection": 0,
        "testDirection": 180,
        "avgFps": 32,
        "minFps": 30,
        "maxFps": 60,
        "totalFrames": 20,
        "frameRates": 32
      },
      {
        "trial_number": 59,
        "trial_index": 398,
        "rt": 529,
        "correct": true,
        "response": "ArrowRight",
        "congruent": false,
        "gazeTowards": false,
        "gazeCondition": "away",
        "faceOnLeft": false,
        "impliedDirection": 180,
        "testDirection": 0,
        "avgFps": 30,
        "minFps": 30,
        "maxFps": 30,
        "totalFrames": 15,
        "frameRates": 30
      },
      {
        "trial_number": 60,
        "trial_index": 403,
        "rt": 575,
        "correct": true,
        "response": "ArrowLeft",
        "congruent": false,
        "gazeTowards": true,
        "gazeCondition": "towards",
        "faceOnLeft": true,
        "impliedDirection": 0,
        "testDirection": 180,
        "avgFps": 30,
        "minFps": 30,
        "maxFps": 30,
        "totalFrames": 17,
        "frameRates": 30
      },
      {
        "trial_number": 61,
        "trial_index": 408,
        "rt": 602,
        "correct": true,
        "response": "ArrowLeft",
        "congruent": true,
        "gazeTowards": false,
        "gazeCondition": "away",
        "faceOnLeft": false,
        "impliedDirection": 180,
        "testDirection": 180,
        "avgFps": 33,
        "minFps": 30,
        "maxFps": 60,
        "totalFrames": 19,
        "frameRates": 33
      },
      {
        "trial_number": 62,
        "trial_index": 414,
        "rt": 717,
        "correct": true,
        "response": "ArrowRight",
        "congruent": false,
        "gazeTowards": true,
        "gazeCondition": "towards",
        "faceOnLeft": false,
        "impliedDirection": 180,
        "testDirection": 0,
        "avgFps": 30,
        "minFps": 29,
        "maxFps": 30,
        "totalFrames": 21,
        "frameRates": 30
      },
      {
        "trial_number": 63,
        "trial_index": 419,
        "rt": 531,
        "correct": true,
        "response": "ArrowLeft",
        "congruent": true,
        "gazeTowards": true,
        "gazeCondition": "towards",
        "faceOnLeft": false,
        "impliedDirection": 180,
        "testDirection": 180,
        "avgFps": 30,
        "minFps": 30,
        "maxFps": 30,
        "totalFrames": 15,
        "frameRates": 30
      },
      {
        "trial_number": 64,
        "trial_index": 424,
        "rt": 640,
        "correct": true,
        "response": "ArrowLeft",
        "congruent": false,
        "gazeTowards": false,
        "gazeCondition": "away",
        "faceOnLeft": true,
        "impliedDirection": 0,
        "testDirection": 180,
        "avgFps": 30,
        "minFps": 30,
        "maxFps": 30,
        "totalFrames": 19,
        "frameRates": 30
      },
      {
        "trial_number": 65,
        "trial_index": 429,
        "rt": 943,
        "correct": false,
        "response": "ArrowRight",
        "congruent": false,
        "gazeTowards": true,
        "gazeCondition": "towards",
        "faceOnLeft": true,
        "impliedDirection": 0,
        "testDirection": 180,
        "avgFps": 31,
        "minFps": 30,
        "maxFps": 60,
        "totalFrames": 29,
        "frameRates": 31
      },
      {
        "trial_number": 66,
        "trial_index": 437,
        "rt": 586,
        "correct": true,
        "response": "ArrowRight",
        "congruent": true,
        "gazeTowards": false,
        "gazeCondition": "away",
        "faceOnLeft": true,
        "impliedDirection": 0,
        "testDirection": 0,
        "avgFps": 30,
        "minFps": 30,
        "maxFps": 32,
        "totalFrames": 17,
        "frameRates": 30
      },
      {
        "trial_number": 67,
        "trial_index": 442,
        "rt": 633,
        "correct": true,
        "response": "ArrowRight",
        "congruent": false,
        "gazeTowards": false,
        "gazeCondition": "away",
        "faceOnLeft": false,
        "impliedDirection": 180,
        "testDirection": 0,
        "avgFps": 30,
        "minFps": 30,
        "maxFps": 30,
        "totalFrames": 19,
        "frameRates": 30
      },
      {
        "trial_number": 68,
        "trial_index": 447,
        "rt": 579,
        "correct": true,
        "response": "ArrowLeft",
        "congruent": false,
        "gazeTowards": false,
        "gazeCondition": "away",
        "faceOnLeft": true,
        "impliedDirection": 0,
        "testDirection": 180,
        "avgFps": 30,
        "minFps": 30,
        "maxFps": 30,
        "totalFrames": 17,
        "frameRates": 30
      },
      {
        "trial_number": 69,
        "trial_index": 455,
        "rt": 626,
        "correct": true,
        "response": "ArrowRight",
        "congruent": true,
        "gazeTowards": true,
        "gazeCondition": "towards",
        "faceOnLeft": true,
        "impliedDirection": 0,
        "testDirection": 0,
        "avgFps": 30,
        "minFps": 28,
        "maxFps": 32,
        "totalFrames": 18,
        "frameRates": 30
      },
      {
        "trial_number": 70,
        "trial_index": 460,
        "rt": 627,
        "correct": true,
        "response": "ArrowLeft",
        "congruent": true,
        "gazeTowards": true,
        "gazeCondition": "towards",
        "faceOnLeft": false,
        "impliedDirection": 180,
        "testDirection": 180,
        "avgFps": 32,
        "minFps": 30,
        "maxFps": 60,
        "totalFrames": 20,
        "frameRates": 32
      },
      {
        "trial_number": 71,
        "trial_index": 465,
        "rt": 504,
        "correct": true,
        "response": "ArrowRight",
        "congruent": false,
        "gazeTowards": false,
        "gazeCondition": "away",
        "faceOnLeft": false,
        "impliedDirection": 180,
        "testDirection": 0,
        "avgFps": 30,
        "minFps": 30,
        "maxFps": 30,
        "totalFrames": 15,
        "frameRates": 30
      },
      {
        "trial_number": 72,
        "trial_index": 470,
        "rt": 557,
        "correct": true,
        "response": "ArrowRight",
        "congruent": false,
        "gazeTowards": true,
        "gazeCondition": "towards",
        "faceOnLeft": false,
        "impliedDirection": 180,
        "testDirection": 0,
        "avgFps": 30,
        "minFps": 30,
        "maxFps": 30,
        "totalFrames": 16,
        "frameRates": 30
      },
      {
        "trial_number": 73,
        "trial_index": 475,
        "rt": 507,
        "correct": true,
        "response": "ArrowRight",
        "congruent": false,
        "gazeTowards": true,
        "gazeCondition": "towards",
        "faceOnLeft": false,
        "impliedDirection": 180,
        "testDirection": 0,
        "avgFps": 30,
        "minFps": 30,
        "maxFps": 30,
        "totalFrames": 15,
        "frameRates": 30
      },
      {
        "trial_number": 74,
        "trial_index": 480,
        "rt": 503,
        "correct": false,
        "response": "ArrowRight",
        "congruent": true,
        "gazeTowards": true,
        "gazeCondition": "towards",
        "faceOnLeft": false,
        "impliedDirection": 180,
        "testDirection": 180,
        "avgFps": 30,
        "minFps": 30,
        "maxFps": 30,
        "totalFrames": 15,
        "frameRates": 30
      },
      {
        "trial_number": 75,
        "trial_index": 485,
        "rt": 574,
        "correct": true,
        "response": "ArrowRight",
        "congruent": true,
        "gazeTowards": false,
        "gazeCondition": "away",
        "faceOnLeft": true,
        "impliedDirection": 0,
        "testDirection": 0,
        "avgFps": 30,
        "minFps": 30,
        "maxFps": 30,
        "totalFrames": 17,
        "frameRates": 30
      },
      {
        "trial_number": 76,
        "trial_index": 493,
        "rt": 693,
        "correct": true,
        "response": "ArrowLeft",
        "congruent": false,
        "gazeTowards": false,
        "gazeCondition": "away",
        "faceOnLeft": true,
        "impliedDirection": 0,
        "testDirection": 180,
        "avgFps": 31,
        "minFps": 21,
        "maxFps": 60,
        "totalFrames": 21,
        "frameRates": 31
      },
      {
        "trial_number": 77,
        "trial_index": 498,
        "rt": 643,
        "correct": true,
        "response": "ArrowRight",
        "congruent": true,
        "gazeTowards": true,
        "gazeCondition": "towards",
        "faceOnLeft": true,
        "impliedDirection": 0,
        "testDirection": 0,
        "avgFps": 30,
        "minFps": 30,
        "maxFps": 30,
        "totalFrames": 19,
        "frameRates": 30
      },
      {
        "trial_number": 78,
        "trial_index": 503,
        "rt": 586,
        "correct": false,
        "response": "ArrowLeft",
        "congruent": true,
        "gazeTowards": true,
        "gazeCondition": "towards",
        "faceOnLeft": true,
        "impliedDirection": 0,
        "testDirection": 0,
        "avgFps": 30,
        "minFps": 30,
        "maxFps": 30,
        "totalFrames": 17,
        "frameRates": 30
      },
      {
        "trial_number": 79,
        "trial_index": 511,
        "rt": 917,
        "correct": true,
        "response": "ArrowRight",
        "congruent": true,
        "gazeTowards": false,
        "gazeCondition": "away",
        "faceOnLeft": true,
        "impliedDirection": 0,
        "testDirection": 0,
        "avgFps": 32,
        "minFps": 30,
        "maxFps": 60,
        "totalFrames": 28,
        "frameRates": 32
      },
      {
        "trial_number": 80,
        "trial_index": 516,
        "rt": 839,
        "correct": true,
        "response": "ArrowLeft",
        "congruent": true,
        "gazeTowards": true,
        "gazeCondition": "towards",
        "faceOnLeft": false,
        "impliedDirection": 180,
        "testDirection": 180,
        "avgFps": 30,
        "minFps": 30,
        "maxFps": 30,
        "totalFrames": 25,
        "frameRates": 30
      },
      {
        "trial_number": 81,
        "trial_index": 521,
        "rt": 874,
        "correct": true,
        "response": "ArrowLeft",
        "congruent": false,
        "gazeTowards": false,
        "gazeCondition": "away",
        "faceOnLeft": true,
        "impliedDirection": 0,
        "testDirection": 180,
        "avgFps": 32,
        "minFps": 30,
        "maxFps": 60,
        "totalFrames": 27,
        "frameRates": 32
      },
      {
        "trial_number": 82,
        "trial_index": 526,
        "rt": 927,
        "correct": true,
        "response": "ArrowRight",
        "congruent": false,
        "gazeTowards": true,
        "gazeCondition": "towards",
        "faceOnLeft": false,
        "impliedDirection": 180,
        "testDirection": 0,
        "avgFps": 32,
        "minFps": 30,
        "maxFps": 60,
        "totalFrames": 29,
        "frameRates": 32
      },
      {
        "trial_number": 83,
        "trial_index": 531,
        "rt": 725,
        "correct": true,
        "response": "ArrowLeft",
        "congruent": true,
        "gazeTowards": false,
        "gazeCondition": "away",
        "faceOnLeft": false,
        "impliedDirection": 180,
        "testDirection": 180,
        "avgFps": 30,
        "minFps": 30,
        "maxFps": 30,
        "totalFrames": 21,
        "frameRates": 30
      },
      {
        "trial_number": 84,
        "trial_index": 536,
        "rt": 955,
        "correct": true,
        "response": "ArrowRight",
        "congruent": false,
        "gazeTowards": true,
        "gazeCondition": "towards",
        "faceOnLeft": false,
        "impliedDirection": 180,
        "testDirection": 0,
        "avgFps": 30,
        "minFps": 30,
        "maxFps": 30,
        "totalFrames": 28,
        "frameRates": 30
      },
      {
        "trial_number": 85,
        "trial_index": 541,
        "rt": 1040,
        "correct": true,
        "response": "ArrowLeft",
        "congruent": false,
        "gazeTowards": true,
        "gazeCondition": "towards",
        "faceOnLeft": true,
        "impliedDirection": 0,
        "testDirection": 180,
        "avgFps": 30,
        "minFps": 30,
        "maxFps": 60,
        "totalFrames": 31,
        "frameRates": 30
      },
      {
        "trial_number": 86,
        "trial_index": 546,
        "rt": 1017,
        "correct": true,
        "response": "ArrowRight",
        "congruent": true,
        "gazeTowards": true,
        "gazeCondition": "towards",
        "faceOnLeft": true,
        "impliedDirection": 0,
        "testDirection": 0,
        "avgFps": 32,
        "minFps": 30,
        "maxFps": 60,
        "totalFrames": 31,
        "frameRates": 32
      },
      {
        "trial_number": 87,
        "trial_index": 551,
        "rt": 974,
        "correct": true,
        "response": "ArrowRight",
        "congruent": true,
        "gazeTowards": false,
        "gazeCondition": "away",
        "faceOnLeft": true,
        "impliedDirection": 0,
        "testDirection": 0,
        "avgFps": 30,
        "minFps": 20,
        "maxFps": 60,
        "totalFrames": 29,
        "frameRates": 30
      },
      {
        "trial_number": 88,
        "trial_index": 559,
        "rt": 1266,
        "correct": false,
        "response": "ArrowRight",
        "congruent": false,
        "gazeTowards": false,
        "gazeCondition": "away",
        "faceOnLeft": true,
        "impliedDirection": 0,
        "testDirection": 180,
        "avgFps": 31,
        "minFps": 30,
        "maxFps": 60,
        "totalFrames": 39,
        "frameRates": 31
      },
      {
        "trial_number": 89,
        "trial_index": 564,
        "rt": 803,
        "correct": true,
        "response": "ArrowLeft",
        "congruent": true,
        "gazeTowards": false,
        "gazeCondition": "away",
        "faceOnLeft": false,
        "impliedDirection": 180,
        "testDirection": 180,
        "avgFps": 30,
        "minFps": 30,
        "maxFps": 30,
        "totalFrames": 24,
        "frameRates": 30
      },
      {
        "trial_number": 90,
        "trial_index": 570,
        "rt": 858,
        "correct": true,
        "response": "ArrowRight",
        "congruent": false,
        "gazeTowards": true,
        "gazeCondition": "towards",
        "faceOnLeft": false,
        "impliedDirection": 180,
        "testDirection": 0,
        "avgFps": 30,
        "minFps": 30,
        "maxFps": 30,
        "totalFrames": 25,
        "frameRates": 30
      },
      {
        "trial_number": 91,
        "trial_index": 575,
        "rt": 1989,
        "correct": true,
        "response": "ArrowRight",
        "congruent": true,
        "gazeTowards": true,
        "gazeCondition": "towards",
        "faceOnLeft": true,
        "impliedDirection": 0,
        "testDirection": 0,
        "avgFps": 31,
        "minFps": 30,
        "maxFps": 60,
        "totalFrames": 61,
        "frameRates": 31
      },
      {
        "trial_number": 92,
        "trial_index": 580,
        "rt": 575,
        "correct": true,
        "response": "ArrowRight",
        "congruent": false,
        "gazeTowards": true,
        "gazeCondition": "towards",
        "faceOnLeft": false,
        "impliedDirection": 180,
        "testDirection": 0,
        "avgFps": 30,
        "minFps": 30,
        "maxFps": 30,
        "totalFrames": 17,
        "frameRates": 30
      },
      {
        "trial_number": 93,
        "trial_index": 585,
        "rt": 492,
        "correct": false,
        "response": "ArrowLeft",
        "congruent": false,
        "gazeTowards": false,
        "gazeCondition": "away",
        "faceOnLeft": false,
        "impliedDirection": 180,
        "testDirection": 0,
        "avgFps": 30,
        "minFps": 30,
        "maxFps": 30,
        "totalFrames": 14,
        "frameRates": 30
      },
      {
        "trial_number": 94,
        "trial_index": 590,
        "rt": 799,
        "correct": true,
        "response": "ArrowLeft",
        "congruent": true,
        "gazeTowards": false,
        "gazeCondition": "away",
        "faceOnLeft": false,
        "impliedDirection": 180,
        "testDirection": 180,
        "avgFps": 32,
        "minFps": 30,
        "maxFps": 60,
        "totalFrames": 25,
        "frameRates": 32
      },
      {
        "trial_number": 95,
        "trial_index": 595,
        "rt": 844,
        "correct": true,
        "response": "ArrowLeft",
        "congruent": true,
        "gazeTowards": true,
        "gazeCondition": "towards",
        "faceOnLeft": false,
        "impliedDirection": 180,
        "testDirection": 180,
        "avgFps": 32,
        "minFps": 30,
        "maxFps": 60,
        "totalFrames": 26,
        "frameRates": 32
      },
      {
        "trial_number": 96,
        "trial_index": 600,
        "rt": 1380,
        "correct": false,
        "response": "ArrowRight",
        "congruent": true,
        "gazeTowards": false,
        "gazeCondition": "away",
        "faceOnLeft": false,
        "impliedDirection": 180,
        "testDirection": 180,
        "avgFps": 31,
        "minFps": 30,
        "maxFps": 60,
        "totalFrames": 42,
        "frameRates": 31
      },
      {
        "trial_number": 97,
        "trial_index": 605,
        "rt": 785,
        "correct": true,
        "response": "ArrowLeft",
        "congruent": true,
        "gazeTowards": true,
        "gazeCondition": "towards",
        "faceOnLeft": false,
        "impliedDirection": 180,
        "testDirection": 180,
        "avgFps": 30,
        "minFps": 30,
        "maxFps": 30,
        "totalFrames": 23,
        "frameRates": 30
      },
      {
        "trial_number": 98,
        "trial_index": 610,
        "rt": 1052,
        "correct": true,
        "response": "ArrowLeft",
        "congruent": false,
        "gazeTowards": true,
        "gazeCondition": "towards",
        "faceOnLeft": true,
        "impliedDirection": 0,
        "testDirection": 180,
        "avgFps": 31,
        "minFps": 20,
        "maxFps": 60,
        "totalFrames": 32,
        "frameRates": 31
      },
      {
        "trial_number": 99,
        "trial_index": 618,
        "rt": 671,
        "correct": false,
        "response": "ArrowRight",
        "congruent": true,
        "gazeTowards": false,
        "gazeCondition": "away",
        "faceOnLeft": false,
        "impliedDirection": 180,
        "testDirection": 180,
        "avgFps": 30,
        "minFps": 30,
        "maxFps": 32,
        "totalFrames": 20,
        "frameRates": 30
      },
      {
        "trial_number": 100,
        "trial_index": 623,
        "rt": 1057,
        "correct": false,
        "response": "ArrowLeft",
        "congruent": true,
        "gazeTowards": false,
        "gazeCondition": "away",
        "faceOnLeft": true,
        "impliedDirection": 0,
        "testDirection": 0,
        "avgFps": 30,
        "minFps": 30,
        "maxFps": 30,
        "totalFrames": 31,
        "frameRates": 30
      },
      {
        "trial_number": 101,
        "trial_index": 631,
        "rt": 1367,
        "correct": true,
        "response": "ArrowLeft",
        "congruent": true,
        "gazeTowards": true,
        "gazeCondition": "towards",
        "faceOnLeft": false,
        "impliedDirection": 180,
        "testDirection": 180,
        "avgFps": 31,
        "minFps": 20,
        "maxFps": 60,
        "totalFrames": 42,
        "frameRates": 31
      },
      {
        "trial_number": 102,
        "trial_index": 636,
        "rt": 1392,
        "correct": true,
        "response": "ArrowLeft",
        "congruent": true,
        "gazeTowards": false,
        "gazeCondition": "away",
        "faceOnLeft": false,
        "impliedDirection": 180,
        "testDirection": 180,
        "avgFps": 31,
        "minFps": 30,
        "maxFps": 60,
        "totalFrames": 43,
        "frameRates": 31
      },
      {
        "trial_number": 103,
        "trial_index": 641,
        "rt": 1887,
        "correct": true,
        "response": "ArrowRight",
        "congruent": false,
        "gazeTowards": false,
        "gazeCondition": "away",
        "faceOnLeft": false,
        "impliedDirection": 180,
        "testDirection": 0,
        "avgFps": 31,
        "minFps": 20,
        "maxFps": 60,
        "totalFrames": 58,
        "frameRates": 31
      },
      {
        "trial_number": 104,
        "trial_index": 649,
        "rt": 819,
        "correct": true,
        "response": "ArrowRight",
        "congruent": false,
        "gazeTowards": false,
        "gazeCondition": "away",
        "faceOnLeft": false,
        "impliedDirection": 180,
        "testDirection": 0,
        "avgFps": 31,
        "minFps": 30,
        "maxFps": 60,
        "totalFrames": 24,
        "frameRates": 31
      },
      {
        "trial_number": 105,
        "trial_index": 654,
        "rt": 767,
        "correct": true,
        "response": "ArrowLeft",
        "congruent": false,
        "gazeTowards": false,
        "gazeCondition": "away",
        "faceOnLeft": true,
        "impliedDirection": 0,
        "testDirection": 180,
        "avgFps": 32,
        "minFps": 30,
        "maxFps": 60,
        "totalFrames": 24,
        "frameRates": 32
      },
      {
        "trial_number": 106,
        "trial_index": 659,
        "rt": 528,
        "correct": true,
        "response": "ArrowRight",
        "congruent": true,
        "gazeTowards": true,
        "gazeCondition": "towards",
        "faceOnLeft": true,
        "impliedDirection": 0,
        "testDirection": 0,
        "avgFps": 30,
        "minFps": 30,
        "maxFps": 30,
        "totalFrames": 15,
        "frameRates": 30
      },
      {
        "trial_number": 107,
        "trial_index": 664,
        "rt": 576,
        "correct": true,
        "response": "ArrowRight",
        "congruent": true,
        "gazeTowards": true,
        "gazeCondition": "towards",
        "faceOnLeft": true,
        "impliedDirection": 0,
        "testDirection": 0,
        "avgFps": 30,
        "minFps": 30,
        "maxFps": 30,
        "totalFrames": 17,
        "frameRates": 30
      },
      {
        "trial_number": 108,
        "trial_index": 669,
        "rt": 756,
        "correct": true,
        "response": "ArrowRight",
        "congruent": true,
        "gazeTowards": false,
        "gazeCondition": "away",
        "faceOnLeft": true,
        "impliedDirection": 0,
        "testDirection": 0,
        "avgFps": 30,
        "minFps": 30,
        "maxFps": 30,
        "totalFrames": 22,
        "frameRates": 30
      },
      {
        "trial_number": 109,
        "trial_index": 674,
        "rt": 830,
        "correct": true,
        "response": "ArrowLeft",
        "congruent": false,
        "gazeTowards": true,
        "gazeCondition": "towards",
        "faceOnLeft": true,
        "impliedDirection": 0,
        "testDirection": 180,
        "avgFps": 30,
        "minFps": 28,
        "maxFps": 32,
        "totalFrames": 25,
        "frameRates": 30
      },
      {
        "trial_number": 110,
        "trial_index": 679,
        "rt": 614,
        "correct": true,
        "response": "ArrowRight",
        "congruent": false,
        "gazeTowards": true,
        "gazeCondition": "towards",
        "faceOnLeft": false,
        "impliedDirection": 180,
        "testDirection": 0,
        "avgFps": 30,
        "minFps": 30,
        "maxFps": 30,
        "totalFrames": 18,
        "frameRates": 30
      },
      {
        "trial_number": 111,
        "trial_index": 684,
        "rt": 559,
        "correct": true,
        "response": "ArrowLeft",
        "congruent": true,
        "gazeTowards": true,
        "gazeCondition": "towards",
        "faceOnLeft": false,
        "impliedDirection": 180,
        "testDirection": 180,
        "avgFps": 30,
        "minFps": 30,
        "maxFps": 30,
        "totalFrames": 16,
        "frameRates": 30
      },
      {
        "trial_number": 112,
        "trial_index": 689,
        "rt": 540,
        "correct": true,
        "response": "ArrowRight",
        "congruent": false,
        "gazeTowards": true,
        "gazeCondition": "towards",
        "faceOnLeft": false,
        "impliedDirection": 180,
        "testDirection": 0,
        "avgFps": 30,
        "minFps": 30,
        "maxFps": 30,
        "totalFrames": 16,
        "frameRates": 30
      },
      {
        "trial_number": 113,
        "trial_index": 694,
        "rt": 621,
        "correct": true,
        "response": "ArrowLeft",
        "congruent": true,
        "gazeTowards": true,
        "gazeCondition": "towards",
        "faceOnLeft": false,
        "impliedDirection": 180,
        "testDirection": 180,
        "avgFps": 31,
        "minFps": 30,
        "maxFps": 60,
        "totalFrames": 18,
        "frameRates": 31
      },
      {
        "trial_number": 114,
        "trial_index": 699,
        "rt": 1045,
        "correct": true,
        "response": "ArrowLeft",
        "congruent": true,
        "gazeTowards": true,
        "gazeCondition": "towards",
        "faceOnLeft": false,
        "impliedDirection": 180,
        "testDirection": 180,
        "avgFps": 31,
        "minFps": 30,
        "maxFps": 60,
        "totalFrames": 32,
        "frameRates": 31
      },
      {
        "trial_number": 115,
        "trial_index": 704,
        "rt": 703,
        "correct": true,
        "response": "ArrowRight",
        "congruent": false,
        "gazeTowards": false,
        "gazeCondition": "away",
        "faceOnLeft": false,
        "impliedDirection": 180,
        "testDirection": 0,
        "avgFps": 32,
        "minFps": 30,
        "maxFps": 60,
        "totalFrames": 22,
        "frameRates": 32
      },
      {
        "trial_number": 116,
        "trial_index": 709,
        "rt": 1015,
        "correct": true,
        "response": "ArrowLeft",
        "congruent": false,
        "gazeTowards": false,
        "gazeCondition": "away",
        "faceOnLeft": true,
        "impliedDirection": 0,
        "testDirection": 180,
        "avgFps": 32,
        "minFps": 30,
        "maxFps": 60,
        "totalFrames": 31,
        "frameRates": 32
      },
      {
        "trial_number": 117,
        "trial_index": 714,
        "rt": 1231,
        "correct": true,
        "response": "ArrowRight",
        "congruent": true,
        "gazeTowards": false,
        "gazeCondition": "away",
        "faceOnLeft": true,
        "impliedDirection": 0,
        "testDirection": 0,
        "avgFps": 31,
        "minFps": 30,
        "maxFps": 60,
        "totalFrames": 38,
        "frameRates": 31
      },
      {
        "trial_number": 118,
        "trial_index": 719,
        "rt": 848,
        "correct": true,
        "response": "ArrowRight",
        "congruent": false,
        "gazeTowards": false,
        "gazeCondition": "away",
        "faceOnLeft": false,
        "impliedDirection": 180,
        "testDirection": 0,
        "avgFps": 30,
        "minFps": 30,
        "maxFps": 30,
        "totalFrames": 25,
        "frameRates": 30
      },
      {
        "trial_number": 119,
        "trial_index": 724,
        "rt": 616,
        "correct": true,
        "response": "ArrowLeft",
        "congruent": false,
        "gazeTowards": false,
        "gazeCondition": "away",
        "faceOnLeft": true,
        "impliedDirection": 0,
        "testDirection": 180,
        "avgFps": 30,
        "minFps": 30,
        "maxFps": 30,
        "totalFrames": 18,
        "frameRates": 30
      }
    ],
    "catch": {
      "total": 12,
      "correct": 12,
      "accuracy": 100,
      "meanRT": 729,
      "trials": [
        {
          "trial_number": 0,
          "trial_index": 94,
          "rt": 713,
          "correct": true,
          "colorTarget": "tree",
          "gazeTowards": false,
          "gazeCondition": "away",
          "faceOnLeft": true
        },
        {
          "trial_number": 1,
          "trial_index": 212,
          "rt": 591,
          "correct": true,
          "colorTarget": "face",
          "gazeTowards": false,
          "gazeCondition": "away",
          "faceOnLeft": true
        },
        {
          "trial_number": 2,
          "trial_index": 230,
          "rt": 596,
          "correct": true,
          "colorTarget": "tree",
          "gazeTowards": false,
          "gazeCondition": "away",
          "faceOnLeft": false
        },
        {
          "trial_number": 3,
          "trial_index": 339,
          "rt": 647,
          "correct": true,
          "colorTarget": "face",
          "gazeTowards": false,
          "gazeCondition": "away",
          "faceOnLeft": false
        },
        {
          "trial_number": 4,
          "trial_index": 433,
          "rt": 657,
          "correct": true,
          "colorTarget": "tree",
          "gazeTowards": true,
          "gazeCondition": "towards",
          "faceOnLeft": true
        },
        {
          "trial_number": 5,
          "trial_index": 451,
          "rt": 541,
          "correct": true,
          "colorTarget": "face",
          "gazeTowards": false,
          "gazeCondition": "away",
          "faceOnLeft": true
        },
        {
          "trial_number": 6,
          "trial_index": 489,
          "rt": 1045,
          "correct": true,
          "colorTarget": "face",
          "gazeTowards": false,
          "gazeCondition": "away",
          "faceOnLeft": true
        },
        {
          "trial_number": 7,
          "trial_index": 507,
          "rt": 449,
          "correct": true,
          "colorTarget": "face",
          "gazeTowards": false,
          "gazeCondition": "away",
          "faceOnLeft": false
        },
        {
          "trial_number": 8,
          "trial_index": 555,
          "rt": 595,
          "correct": true,
          "colorTarget": "tree",
          "gazeTowards": true,
          "gazeCondition": "towards",
          "faceOnLeft": true
        },
        {
          "trial_number": 9,
          "trial_index": 614,
          "rt": 1344,
          "correct": true,
          "colorTarget": "tree",
          "gazeTowards": false,
          "gazeCondition": "away",
          "faceOnLeft": true
        },
        {
          "trial_number": 10,
          "trial_index": 627,
          "rt": 577,
          "correct": true,
          "colorTarget": "tree",
          "gazeTowards": true,
          "gazeCondition": "towards",
          "faceOnLeft": false
        },
        {
          "trial_number": 11,
          "trial_index": 645,
          "rt": 989,
          "correct": true,
          "colorTarget": "face",
          "gazeTowards": true,
          "gazeCondition": "towards",
          "faceOnLeft": true
        }
      ]
    },
    "practice": {
      "trials": [
        {
          "trial_number": 0,
          "rt": null,
          "correct": false,
          "direction": 180
        },
        {
          "trial_number": 1,
          "rt": 633,
          "correct": true,
          "direction": 180
        },
        {
          "trial_number": 2,
          "rt": 770,
          "correct": true,
          "direction": 180
        },
        {
          "trial_number": 3,
          "rt": 876,
          "correct": true,
          "direction": 180
        },
        {
          "trial_number": 4,
          "rt": 980,
          "correct": true,
          "direction": 180
        },
        {
          "trial_number": 5,
          "rt": 950,
          "correct": false,
          "direction": 0
        },
        {
          "trial_number": 6,
          "rt": 807,
          "correct": true,
          "direction": 180
        },
        {
          "trial_number": 7,
          "rt": 849,
          "correct": true,
          "direction": 180
        },
        {
          "trial_number": 8,
          "rt": 759,
          "correct": false,
          "direction": 0
        },
        {
          "trial_number": 9,
          "rt": 625,
          "correct": true,
          "direction": 180
        },
        {
          "trial_number": 10,
          "rt": 1019,
          "correct": true,
          "direction": 180
        },
        {
          "trial_number": 11,
          "rt": 1191,
          "correct": true,
          "direction": 180
        },
        {
          "trial_number": 12,
          "rt": 1071,
          "correct": true,
          "direction": 180
        },
        {
          "trial_number": 13,
          "rt": 930,
          "correct": false,
          "direction": 180
        },
        {
          "trial_number": 14,
          "rt": 1216,
          "correct": true,
          "direction": 180
        },
        {
          "trial_number": 15,
          "rt": 973,
          "correct": true,
          "direction": 0
        },
        {
          "trial_number": 16,
          "rt": 1039,
          "correct": true,
          "direction": 180
        },
        {
          "trial_number": 17,
          "rt": 656,
          "correct": false,
          "direction": 180
        },
        {
          "trial_number": 18,
          "rt": 673,
          "correct": true,
          "direction": 0
        },
        {
          "trial_number": 19,
          "rt": 559,
          "correct": true,
          "direction": 180
        }
      ],
      "meanRT": 872,
      "accuracy": 75
    }
  }
}