{
  "experiment": "rdk-face-1",
  "UUID": "06f3840a-bb70-4dbb-8ac8-dfdef55f4067",
  "data": {
    "session": {
      "experiment_version": "1.8.6",
      "treatment": "faces_towards_away_catch",
      "file_version": "1.8.6",
      "totalTrials": 120,
      "totalTrialsIncludingCatch": 132,
      "conditions": {
        "gazeTowardsCount": 60,
        "gazeAwayCount": 60,
        "gazeTowardsAccuracy": 93,
        "gazeAwayAccuracy": 95
      },
      "session_group": "default",
      "browserData": {
        "os": "Windows",
        "browser": "Edge",
        "screenResolution": "2560x1440",
        "browserViewport": "2560x1440",
        "devicePixelRatio": 1,
        "colorDepth": 32,
        "hardwareConcurrency": 8,
        "deviceMemory": 8,
        "gpuRenderer": "ANGLE (Microsoft, Microsoft Basic Render Driver (0x0000008C) Direct3D11 vs_5_0 ps_5_0, D3D11)",
        "measuredRefreshRateHz": 145
      },
      "attention": {
        "visibilityEvents": [
          {
            "event": "blur",
            "state": "blurred",
            "timestamp": 1772774882127
          },
          {
            "event": "visibilitychange",
            "state": "hidden",
            "timestamp": 1772774882131
          },
          {
            "event": "visibilitychange",
            "state": "visible",
            "timestamp": 1772774885069
          },
          {
            "event": "focus",
            "state": "focused",
            "timestamp": 1772774885078
          },
          {
            "event": "blur",
            "state": "blurred",
            "timestamp": 1772774886130
          },
          {
            "event": "visibilitychange",
            "state": "hidden",
            "timestamp": 1772774886133
          },
          {
            "event": "visibilitychange",
            "state": "visible",
            "timestamp": 1772774887051
          },
          {
            "event": "focus",
            "state": "focused",
            "timestamp": 1772774887058
          },
          {
            "event": "blur",
            "state": "blurred",
            "timestamp": 1772774887932
          },
          {
            "event": "visibilitychange",
            "state": "hidden",
            "timestamp": 1772774887938
          },
          {
            "event": "visibilitychange",
            "state": "visible",
            "timestamp": 1772774930609
          },
          {
            "event": "focus",
            "state": "focused",
            "timestamp": 1772774930616
          }
        ]
      },
      "calibration": {
        "monitorWidthCm": 38,
        "viewingDistanceCm": 54,
        "pixelsPerDegree": 50
      },
      "parameters": {
        "coherence": 0.4,
        "apertureDeg": 5,
        "densityDotsPerDeg2": 40,
        "dotDiameterDeg": 0.035,
        "dotSpeedDegPerSec": 3,
        "lifetimeMs": 200,
        "fixationDurationMs": 1500,
        "faceDurationMs": 1500,
        "testDurationMs": 2000,
        "catchResponseMs": 3000
      },
      "prolific": {
        "prolificPid": "603eb5e268faadfdb945a02c",
        "studyId": "",
        "sessionId": ""
      },
      "timing": {
        "startTime": "2026-03-06T05:26:33.533Z",
        "endTime": "2026-03-06T05:43:59.816Z",
        "totalElapsedTimeMs": 1046283
      }
    },
    "trials": [
      {
        "trial_number": 0,
        "trial_index": 90,
        "rt": 907,
        "correct": true,
        "response": "ArrowLeft",
        "congruent": false,
        "gazeTowards": true,
        "gazeCondition": "towards",
        "faceOnLeft": true,
        "impliedDirection": 0,
        "testDirection": 180,
        "avgFps": 155,
        "minFps": 152,
        "maxFps": 250,
        "totalFrames": 140,
        "frameRates": 155
      },
      {
        "trial_number": 1,
        "trial_index": 95,
        "rt": 682,
        "correct": true,
        "response": "ArrowRight",
        "congruent": false,
        "gazeTowards": true,
        "gazeCondition": "towards",
        "faceOnLeft": false,
        "impliedDirection": 180,
        "testDirection": 0,
        "avgFps": 155,
        "minFps": 125,
        "maxFps": 250,
        "totalFrames": 105,
        "frameRates": 155
      },
      {
        "trial_number": 2,
        "trial_index": 100,
        "rt": 1106,
        "correct": true,
        "response": "ArrowRight",
        "congruent": true,
        "gazeTowards": true,
        "gazeCondition": "towards",
        "faceOnLeft": true,
        "impliedDirection": 0,
        "testDirection": 0,
        "avgFps": 155,
        "minFps": 122,
        "maxFps": 244,
        "totalFrames": 171,
        "frameRates": 155
      },
      {
        "trial_number": 3,
        "trial_index": 105,
        "rt": 1280,
        "correct": false,
        "response": "ArrowLeft",
        "congruent": true,
        "gazeTowards": true,
        "gazeCondition": "towards",
        "faceOnLeft": true,
        "impliedDirection": 0,
        "testDirection": 0,
        "avgFps": 155,
        "minFps": 125,
        "maxFps": 442,
        "totalFrames": 198,
        "frameRates": 155
      },
      {
        "trial_number": 4,
        "trial_index": 110,
        "rt": 1038,
        "correct": true,
        "response": "ArrowRight",
        "congruent": true,
        "gazeTowards": false,
        "gazeCondition": "away",
        "faceOnLeft": true,
        "impliedDirection": 0,
        "testDirection": 0,
        "avgFps": 155,
        "minFps": 123,
        "maxFps": 250,
        "totalFrames": 160,
        "frameRates": 155
      },
      {
        "trial_number": 5,
        "trial_index": 115,
        "rt": 966,
        "correct": true,
        "response": "ArrowRight",
        "congruent": true,
        "gazeTowards": true,
        "gazeCondition": "towards",
        "faceOnLeft": true,
        "impliedDirection": 0,
        "testDirection": 0,
        "avgFps": 155,
        "minFps": 123,
        "maxFps": 250,
        "totalFrames": 149,
        "frameRates": 155
      },
      {
        "trial_number": 6,
        "trial_index": 120,
        "rt": 1198,
        "correct": false,
        "response": "ArrowLeft",
        "congruent": true,
        "gazeTowards": false,
        "gazeCondition": "away",
        "faceOnLeft": true,
        "impliedDirection": 0,
        "testDirection": 0,
        "avgFps": 155,
        "minFps": 123,
        "maxFps": 250,
        "totalFrames": 185,
        "frameRates": 155
      },
      {
        "trial_number": 7,
        "trial_index": 128,
        "rt": 684,
        "correct": true,
        "response": "ArrowLeft",
        "congruent": false,
        "gazeTowards": false,
        "gazeCondition": "away",
        "faceOnLeft": true,
        "impliedDirection": 0,
        "testDirection": 180,
        "avgFps": 156,
        "minFps": 152,
        "maxFps": 250,
        "totalFrames": 107,
        "frameRates": 156
      },
      {
        "trial_number": 8,
        "trial_index": 133,
        "rt": 855,
        "correct": true,
        "response": "ArrowLeft",
        "congruent": false,
        "gazeTowards": true,
        "gazeCondition": "towards",
        "faceOnLeft": true,
        "impliedDirection": 0,
        "testDirection": 180,
        "avgFps": 147,
        "minFps": 22,
        "maxFps": 250,
        "totalFrames": 125,
        "frameRates": 147
      },
      {
        "trial_number": 9,
        "trial_index": 138,
        "rt": 928,
        "correct": true,
        "response": "ArrowLeft",
        "congruent": true,
        "gazeTowards": false,
        "gazeCondition": "away",
        "faceOnLeft": false,
        "impliedDirection": 180,
        "testDirection": 180,
        "avgFps": 156,
        "minFps": 152,
        "maxFps": 250,
        "totalFrames": 144,
        "frameRates": 156
      },
      {
        "trial_number": 10,
        "trial_index": 143,
        "rt": 830,
        "correct": true,
        "response": "ArrowLeft",
        "congruent": true,
        "gazeTowards": false,
        "gazeCondition": "away",
        "faceOnLeft": false,
        "impliedDirection": 180,
        "testDirection": 180,
        "avgFps": 147,
        "minFps": 22,
        "maxFps": 250,
        "totalFrames": 121,
        "frameRates": 147
      },
      {
        "trial_number": 11,
        "trial_index": 148,
        "rt": 1297,
        "correct": true,
        "response": "ArrowLeft",
        "congruent": false,
        "gazeTowards": true,
        "gazeCondition": "towards",
        "faceOnLeft": true,
        "impliedDirection": 0,
        "testDirection": 180,
        "avgFps": 156,
        "minFps": 122,
        "maxFps": 424,
        "totalFrames": 201,
        "frameRates": 156
      },
      {
        "trial_number": 12,
        "trial_index": 153,
        "rt": 990,
        "correct": true,
        "response": "ArrowLeft",
        "congruent": true,
        "gazeTowards": false,
        "gazeCondition": "away",
        "faceOnLeft": false,
        "impliedDirection": 180,
        "testDirection": 180,
        "avgFps": 155,
        "minFps": 123,
        "maxFps": 250,
        "totalFrames": 153,
        "frameRates": 155
      },
      {
        "trial_number": 13,
        "trial_index": 158,
        "rt": 845,
        "correct": true,
        "response": "ArrowLeft",
        "congruent": true,
        "gazeTowards": false,
        "gazeCondition": "away",
        "faceOnLeft": false,
        "impliedDirection": 180,
        "testDirection": 180,
        "avgFps": 155,
        "minFps": 122,
        "maxFps": 244,
        "totalFrames": 131,
        "frameRates": 155
      },
      {
        "trial_number": 14,
        "trial_index": 163,
        "rt": 961,
        "correct": true,
        "response": "ArrowLeft",
        "congruent": false,
        "gazeTowards": false,
        "gazeCondition": "away",
        "faceOnLeft": true,
        "impliedDirection": 0,
        "testDirection": 180,
        "avgFps": 155,
        "minFps": 122,
        "maxFps": 256,
        "totalFrames": 149,
        "frameRates": 155
      },
      {
        "trial_number": 15,
        "trial_index": 168,
        "rt": 1324,
        "correct": true,
        "response": "ArrowRight",
        "congruent": false,
        "gazeTowards": true,
        "gazeCondition": "towards",
        "faceOnLeft": false,
        "impliedDirection": 180,
        "testDirection": 0,
        "avgFps": 154,
        "minFps": 78,
        "maxFps": 256,
        "totalFrames": 204,
        "frameRates": 154
      },
      {
        "trial_number": 16,
        "trial_index": 173,
        "rt": 1500,
        "correct": false,
        "response": "ArrowLeft",
        "congruent": false,
        "gazeTowards": false,
        "gazeCondition": "away",
        "faceOnLeft": false,
        "impliedDirection": 180,
        "testDirection": 0,
        "avgFps": 155,
        "minFps": 122,
        "maxFps": 256,
        "totalFrames": 232,
        "frameRates": 155
      },
      {
        "trial_number": 17,
        "trial_index": 178,
        "rt": 781,
        "correct": true,
        "response": "ArrowLeft",
        "congruent": true,
        "gazeTowards": false,
        "gazeCondition": "away",
        "faceOnLeft": false,
        "impliedDirection": 180,
        "testDirection": 180,
        "avgFps": 155,
        "minFps": 123,
        "maxFps": 250,
        "totalFrames": 121,
        "frameRates": 155
      },
      {
        "trial_number": 18,
        "trial_index": 183,
        "rt": 1094,
        "correct": true,
        "response": "ArrowRight",
        "congruent": true,
        "gazeTowards": false,
        "gazeCondition": "away",
        "faceOnLeft": true,
        "impliedDirection": 0,
        "testDirection": 0,
        "avgFps": 155,
        "minFps": 123,
        "maxFps": 250,
        "totalFrames": 169,
        "frameRates": 155
      },
      {
        "trial_number": 19,
        "trial_index": 188,
        "rt": 659,
        "correct": true,
        "response": "ArrowLeft",
        "congruent": false,
        "gazeTowards": false,
        "gazeCondition": "away",
        "faceOnLeft": true,
        "impliedDirection": 0,
        "testDirection": 180,
        "avgFps": 155,
        "minFps": 123,
        "maxFps": 250,
        "totalFrames": 102,
        "frameRates": 155
      },
      {
        "trial_number": 20,
        "trial_index": 193,
        "rt": 744,
        "correct": true,
        "response": "ArrowRight",
        "congruent": true,
        "gazeTowards": false,
        "gazeCondition": "away",
        "faceOnLeft": true,
        "impliedDirection": 0,
        "testDirection": 0,
        "avgFps": 139,
        "minFps": 19,
        "maxFps": 244,
        "totalFrames": 102,
        "frameRates": 139
      },
      {
        "trial_number": 21,
        "trial_index": 198,
        "rt": 1123,
        "correct": false,
        "response": "ArrowLeft",
        "congruent": true,
        "gazeTowards": true,
        "gazeCondition": "towards",
        "faceOnLeft": true,
        "impliedDirection": 0,
        "testDirection": 0,
        "avgFps": 155,
        "minFps": 133,
        "maxFps": 256,
        "totalFrames": 174,
        "frameRates": 155
      },
      {
        "trial_number": 22,
        "trial_index": 203,
        "rt": 823,
        "correct": true,
        "response": "ArrowRight",
        "congruent": false,
        "gazeTowards": true,
        "gazeCondition": "towards",
        "faceOnLeft": false,
        "impliedDirection": 180,
        "testDirection": 0,
        "avgFps": 155,
        "minFps": 122,
        "maxFps": 250,
        "totalFrames": 128,
        "frameRates": 155
      },
      {
        "trial_number": 23,
        "trial_index": 208,
        "rt": 670,
        "correct": true,
        "response": "ArrowLeft",
        "congruent": true,
        "gazeTowards": true,
        "gazeCondition": "towards",
        "faceOnLeft": false,
        "impliedDirection": 180,
        "testDirection": 180,
        "avgFps": 157,
        "minFps": 123,
        "maxFps": 442,
        "totalFrames": 105,
        "frameRates": 157
      },
      {
        "trial_number": 24,
        "trial_index": 213,
        "rt": 937,
        "correct": true,
        "response": "ArrowRight",
        "congruent": true,
        "gazeTowards": false,
        "gazeCondition": "away",
        "faceOnLeft": true,
        "impliedDirection": 0,
        "testDirection": 0,
        "avgFps": 155,
        "minFps": 152,
        "maxFps": 250,
        "totalFrames": 145,
        "frameRates": 155
      },
      {
        "trial_number": 25,
        "trial_index": 218,
        "rt": 726,
        "correct": true,
        "response": "ArrowLeft",
        "congruent": false,
        "gazeTowards": false,
        "gazeCondition": "away",
        "faceOnLeft": true,
        "impliedDirection": 0,
        "testDirection": 180,
        "avgFps": 155,
        "minFps": 122,
        "maxFps": 244,
        "totalFrames": 113,
        "frameRates": 155
      },
      {
        "trial_number": 26,
        "trial_index": 223,
        "rt": 659,
        "correct": true,
        "response": "ArrowRight",
        "congruent": false,
        "gazeTowards": true,
        "gazeCondition": "towards",
        "faceOnLeft": false,
        "impliedDirection": 180,
        "testDirection": 0,
        "avgFps": 155,
        "minFps": 123,
        "maxFps": 256,
        "totalFrames": 102,
        "frameRates": 155
      },
      {
        "trial_number": 27,
        "trial_index": 228,
        "rt": 1071,
        "correct": true,
        "response": "ArrowRight",
        "congruent": false,
        "gazeTowards": false,
        "gazeCondition": "away",
        "faceOnLeft": false,
        "impliedDirection": 180,
        "testDirection": 0,
        "avgFps": 155,
        "minFps": 152,
        "maxFps": 256,
        "totalFrames": 166,
        "frameRates": 155
      },
      {
        "trial_number": 28,
        "trial_index": 236,
        "rt": 991,
        "correct": true,
        "response": "ArrowRight",
        "congruent": true,
        "gazeTowards": true,
        "gazeCondition": "towards",
        "faceOnLeft": true,
        "impliedDirection": 0,
        "testDirection": 0,
        "avgFps": 155,
        "minFps": 152,
        "maxFps": 256,
        "totalFrames": 153,
        "frameRates": 155
      },
      {
        "trial_number": 29,
        "trial_index": 241,
        "rt": 977,
        "correct": false,
        "response": "ArrowLeft",
        "congruent": true,
        "gazeTowards": true,
        "gazeCondition": "towards",
        "faceOnLeft": true,
        "impliedDirection": 0,
        "testDirection": 0,
        "avgFps": 155,
        "minFps": 123,
        "maxFps": 244,
        "totalFrames": 151,
        "frameRates": 155
      },
      {
        "trial_number": 30,
        "trial_index": 246,
        "rt": 1260,
        "correct": true,
        "response": "ArrowRight",
        "congruent": true,
        "gazeTowards": true,
        "gazeCondition": "towards",
        "faceOnLeft": true,
        "impliedDirection": 0,
        "testDirection": 0,
        "avgFps": 155,
        "minFps": 122,
        "maxFps": 424,
        "totalFrames": 195,
        "frameRates": 155
      },
      {
        "trial_number": 31,
        "trial_index": 252,
        "rt": 772,
        "correct": true,
        "response": "ArrowRight",
        "congruent": true,
        "gazeTowards": false,
        "gazeCondition": "away",
        "faceOnLeft": true,
        "impliedDirection": 0,
        "testDirection": 0,
        "avgFps": 156,
        "minFps": 152,
        "maxFps": 250,
        "totalFrames": 120,
        "frameRates": 156
      },
      {
        "trial_number": 32,
        "trial_index": 260,
        "rt": 982,
        "correct": true,
        "response": "ArrowRight",
        "congruent": true,
        "gazeTowards": false,
        "gazeCondition": "away",
        "faceOnLeft": true,
        "impliedDirection": 0,
        "testDirection": 0,
        "avgFps": 155,
        "minFps": 78,
        "maxFps": 256,
        "totalFrames": 152,
        "frameRates": 155
      },
      {
        "trial_number": 33,
        "trial_index": 265,
        "rt": 1080,
        "correct": true,
        "response": "ArrowRight",
        "congruent": true,
        "gazeTowards": true,
        "gazeCondition": "towards",
        "faceOnLeft": true,
        "impliedDirection": 0,
        "testDirection": 0,
        "avgFps": 149,
        "minFps": 31,
        "maxFps": 250,
        "totalFrames": 161,
        "frameRates": 149
      },
      {
        "trial_number": 34,
        "trial_index": 270,
        "rt": 711,
        "correct": true,
        "response": "ArrowLeft",
        "congruent": false,
        "gazeTowards": true,
        "gazeCondition": "towards",
        "faceOnLeft": true,
        "impliedDirection": 0,
        "testDirection": 180,
        "avgFps": 155,
        "minFps": 122,
        "maxFps": 250,
        "totalFrames": 110,
        "frameRates": 155
      },
      {
        "trial_number": 35,
        "trial_index": 278,
        "rt": 1312,
        "correct": true,
        "response": "ArrowLeft",
        "congruent": true,
        "gazeTowards": false,
        "gazeCondition": "away",
        "faceOnLeft": false,
        "impliedDirection": 180,
        "testDirection": 180,
        "avgFps": 155,
        "minFps": 152,
        "maxFps": 256,
        "totalFrames": 203,
        "frameRates": 155
      },
      {
        "trial_number": 36,
        "trial_index": 283,
        "rt": 970,
        "correct": true,
        "response": "ArrowRight",
        "congruent": true,
        "gazeTowards": false,
        "gazeCondition": "away",
        "faceOnLeft": true,
        "impliedDirection": 0,
        "testDirection": 0,
        "avgFps": 155,
        "minFps": 123,
        "maxFps": 250,
        "totalFrames": 151,
        "frameRates": 155
      },
      {
        "trial_number": 37,
        "trial_index": 288,
        "rt": 934,
        "correct": true,
        "response": "ArrowLeft",
        "congruent": true,
        "gazeTowards": true,
        "gazeCondition": "towards",
        "faceOnLeft": false,
        "impliedDirection": 180,
        "testDirection": 180,
        "avgFps": 150,
        "minFps": 31,
        "maxFps": 250,
        "totalFrames": 139,
        "frameRates": 150
      },
      {
        "trial_number": 38,
        "trial_index": 293,
        "rt": 755,
        "correct": true,
        "response": "ArrowRight",
        "congruent": false,
        "gazeTowards": false,
        "gazeCondition": "away",
        "faceOnLeft": false,
        "impliedDirection": 180,
        "testDirection": 0,
        "avgFps": 155,
        "minFps": 123,
        "maxFps": 250,
        "totalFrames": 117,
        "frameRates": 155
      },
      {
        "trial_number": 39,
        "trial_index": 298,
        "rt": 1259,
        "correct": false,
        "response": "ArrowLeft",
        "congruent": false,
        "gazeTowards": false,
        "gazeCondition": "away",
        "faceOnLeft": false,
        "impliedDirection": 180,
        "testDirection": 0,
        "avgFps": 152,
        "minFps": 39,
        "maxFps": 424,
        "totalFrames": 191,
        "frameRates": 152
      },
      {
        "trial_number": 40,
        "trial_index": 303,
        "rt": 751,
        "correct": true,
        "response": "ArrowLeft",
        "congruent": false,
        "gazeTowards": true,
        "gazeCondition": "towards",
        "faceOnLeft": true,
        "impliedDirection": 0,
        "testDirection": 180,
        "avgFps": 155,
        "minFps": 122,
        "maxFps": 250,
        "totalFrames": 117,
        "frameRates": 155
      },
      {
        "trial_number": 41,
        "trial_index": 308,
        "rt": 936,
        "correct": true,
        "response": "ArrowLeft",
        "congruent": true,
        "gazeTowards": false,
        "gazeCondition": "away",
        "faceOnLeft": false,
        "impliedDirection": 180,
        "testDirection": 180,
        "avgFps": 155,
        "minFps": 152,
        "maxFps": 244,
        "totalFrames": 145,
        "frameRates": 155
      },
      {
        "trial_number": 42,
        "trial_index": 313,
        "rt": 1041,
        "correct": true,
        "response": "ArrowRight",
        "congruent": false,
        "gazeTowards": true,
        "gazeCondition": "towards",
        "faceOnLeft": false,
        "impliedDirection": 180,
        "testDirection": 0,
        "avgFps": 155,
        "minFps": 152,
        "maxFps": 250,
        "totalFrames": 161,
        "frameRates": 155
      },
      {
        "trial_number": 43,
        "trial_index": 318,
        "rt": 1321,
        "correct": false,
        "response": "ArrowLeft",
        "congruent": true,
        "gazeTowards": true,
        "gazeCondition": "towards",
        "faceOnLeft": true,
        "impliedDirection": 0,
        "testDirection": 0,
        "avgFps": 150,
        "minFps": 23,
        "maxFps": 159,
        "totalFrames": 199,
        "frameRates": 150
      },
      {
        "trial_number": 44,
        "trial_index": 323,
        "rt": 1006,
        "correct": true,
        "response": "ArrowLeft",
        "congruent": false,
        "gazeTowards": false,
        "gazeCondition": "away",
        "faceOnLeft": true,
        "impliedDirection": 0,
        "testDirection": 180,
        "avgFps": 155,
        "minFps": 122,
        "maxFps": 244,
        "totalFrames": 156,
        "frameRates": 155
      },
      {
        "trial_number": 45,
        "trial_index": 328,
        "rt": 1025,
        "correct": true,
        "response": "ArrowLeft",
        "congruent": true,
        "gazeTowards": false,
        "gazeCondition": "away",
        "faceOnLeft": false,
        "impliedDirection": 180,
        "testDirection": 180,
        "avgFps": 155,
        "minFps": 122,
        "maxFps": 250,
        "totalFrames": 159,
        "frameRates": 155
      },
      {
        "trial_number": 46,
        "trial_index": 333,
        "rt": 1128,
        "correct": true,
        "response": "ArrowRight",
        "congruent": false,
        "gazeTowards": true,
        "gazeCondition": "towards",
        "faceOnLeft": false,
        "impliedDirection": 180,
        "testDirection": 0,
        "avgFps": 156,
        "minFps": 122,
        "maxFps": 442,
        "totalFrames": 175,
        "frameRates": 156
      },
      {
        "trial_number": 47,
        "trial_index": 338,
        "rt": 1130,
        "correct": true,
        "response": "ArrowLeft",
        "congruent": false,
        "gazeTowards": false,
        "gazeCondition": "away",
        "faceOnLeft": true,
        "impliedDirection": 0,
        "testDirection": 180,
        "avgFps": 155,
        "minFps": 123,
        "maxFps": 256,
        "totalFrames": 175,
        "frameRates": 155
      },
      {
        "trial_number": 48,
        "trial_index": 343,
        "rt": 1365,
        "correct": true,
        "response": "ArrowLeft",
        "congruent": false,
        "gazeTowards": true,
        "gazeCondition": "towards",
        "faceOnLeft": true,
        "impliedDirection": 0,
        "testDirection": 180,
        "avgFps": 155,
        "minFps": 123,
        "maxFps": 250,
        "totalFrames": 211,
        "frameRates": 155
      },
      {
        "trial_number": 49,
        "trial_index": 348,
        "rt": 1145,
        "correct": true,
        "response": "ArrowLeft",
        "congruent": true,
        "gazeTowards": false,
        "gazeCondition": "away",
        "faceOnLeft": false,
        "impliedDirection": 180,
        "testDirection": 180,
        "avgFps": 155,
        "minFps": 123,
        "maxFps": 250,
        "totalFrames": 178,
        "frameRates": 155
      },
      {
        "trial_number": 50,
        "trial_index": 353,
        "rt": 816,
        "correct": true,
        "response": "ArrowLeft",
        "congruent": false,
        "gazeTowards": true,
        "gazeCondition": "towards",
        "faceOnLeft": true,
        "impliedDirection": 0,
        "testDirection": 180,
        "avgFps": 155,
        "minFps": 123,
        "maxFps": 250,
        "totalFrames": 126,
        "frameRates": 155
      },
      {
        "trial_number": 51,
        "trial_index": 358,
        "rt": 1485,
        "correct": true,
        "response": "ArrowLeft",
        "congruent": true,
        "gazeTowards": false,
        "gazeCondition": "away",
        "faceOnLeft": false,
        "impliedDirection": 180,
        "testDirection": 180,
        "avgFps": 155,
        "minFps": 152,
        "maxFps": 250,
        "totalFrames": 230,
        "frameRates": 155
      },
      {
        "trial_number": 52,
        "trial_index": 363,
        "rt": 1215,
        "correct": true,
        "response": "ArrowLeft",
        "congruent": false,
        "gazeTowards": true,
        "gazeCondition": "towards",
        "faceOnLeft": true,
        "impliedDirection": 0,
        "testDirection": 180,
        "avgFps": 155,
        "minFps": 123,
        "maxFps": 256,
        "totalFrames": 188,
        "frameRates": 155
      },
      {
        "trial_number": 53,
        "trial_index": 368,
        "rt": 1435,
        "correct": true,
        "response": "ArrowRight",
        "congruent": false,
        "gazeTowards": true,
        "gazeCondition": "towards",
        "faceOnLeft": false,
        "impliedDirection": 180,
        "testDirection": 0,
        "avgFps": 155,
        "minFps": 123,
        "maxFps": 256,
        "totalFrames": 222,
        "frameRates": 155
      },
      {
        "trial_number": 54,
        "trial_index": 373,
        "rt": 1285,
        "correct": true,
        "response": "ArrowRight",
        "congruent": false,
        "gazeTowards": true,
        "gazeCondition": "towards",
        "faceOnLeft": false,
        "impliedDirection": 180,
        "testDirection": 0,
        "avgFps": 155,
        "minFps": 123,
        "maxFps": 250,
        "totalFrames": 199,
        "frameRates": 155
      },
      {
        "trial_number": 55,
        "trial_index": 378,
        "rt": 1084,
        "correct": true,
        "response": "ArrowLeft",
        "congruent": true,
        "gazeTowards": false,
        "gazeCondition": "away",
        "faceOnLeft": false,
        "impliedDirection": 180,
        "testDirection": 180,
        "avgFps": 155,
        "minFps": 122,
        "maxFps": 250,
        "totalFrames": 168,
        "frameRates": 155
      },
      {
        "trial_number": 56,
        "trial_index": 383,
        "rt": 1621,
        "correct": true,
        "response": "ArrowLeft",
        "congruent": true,
        "gazeTowards": false,
        "gazeCondition": "away",
        "faceOnLeft": false,
        "impliedDirection": 180,
        "testDirection": 180,
        "avgFps": 155,
        "minFps": 125,
        "maxFps": 244,
        "totalFrames": 250,
        "frameRates": 155
      },
      {
        "trial_number": 57,
        "trial_index": 388,
        "rt": 1939,
        "correct": true,
        "response": "ArrowLeft",
        "congruent": false,
        "gazeTowards": false,
        "gazeCondition": "away",
        "faceOnLeft": true,
        "impliedDirection": 0,
        "testDirection": 180,
        "avgFps": 155,
        "minFps": 123,
        "maxFps": 250,
        "totalFrames": 300,
        "frameRates": 155
      },
      {
        "trial_number": 58,
        "trial_index": 399,
        "rt": 979,
        "correct": true,
        "response": "ArrowRight",
        "congruent": true,
        "gazeTowards": false,
        "gazeCondition": "away",
        "faceOnLeft": true,
        "impliedDirection": 0,
        "testDirection": 0,
        "avgFps": 155,
        "minFps": 152,
        "maxFps": 250,
        "totalFrames": 152,
        "frameRates": 155
      },
      {
        "trial_number": 59,
        "trial_index": 404,
        "rt": 976,
        "correct": true,
        "response": "ArrowLeft",
        "congruent": true,
        "gazeTowards": false,
        "gazeCondition": "away",
        "faceOnLeft": false,
        "impliedDirection": 180,
        "testDirection": 180,
        "avgFps": 155,
        "minFps": 123,
        "maxFps": 244,
        "totalFrames": 151,
        "frameRates": 155
      },
      {
        "trial_number": 60,
        "trial_index": 413,
        "rt": 807,
        "correct": true,
        "response": "ArrowLeft",
        "congruent": false,
        "gazeTowards": true,
        "gazeCondition": "towards",
        "faceOnLeft": true,
        "impliedDirection": 0,
        "testDirection": 180,
        "avgFps": 156,
        "minFps": 149,
        "maxFps": 250,
        "totalFrames": 125,
        "frameRates": 156
      },
      {
        "trial_number": 61,
        "trial_index": 421,
        "rt": 1209,
        "correct": true,
        "response": "ArrowLeft",
        "congruent": true,
        "gazeTowards": false,
        "gazeCondition": "away",
        "faceOnLeft": false,
        "impliedDirection": 180,
        "testDirection": 180,
        "avgFps": 155,
        "minFps": 152,
        "maxFps": 250,
        "totalFrames": 187,
        "frameRates": 155
      },
      {
        "trial_number": 62,
        "trial_index": 426,
        "rt": 837,
        "correct": true,
        "response": "ArrowRight",
        "congruent": true,
        "gazeTowards": true,
        "gazeCondition": "towards",
        "faceOnLeft": true,
        "impliedDirection": 0,
        "testDirection": 0,
        "avgFps": 150,
        "minFps": 39,
        "maxFps": 250,
        "totalFrames": 125,
        "frameRates": 150
      },
      {
        "trial_number": 63,
        "trial_index": 431,
        "rt": 768,
        "correct": true,
        "response": "ArrowLeft",
        "congruent": false,
        "gazeTowards": false,
        "gazeCondition": "away",
        "faceOnLeft": true,
        "impliedDirection": 0,
        "testDirection": 180,
        "avgFps": 155,
        "minFps": 123,
        "maxFps": 244,
        "totalFrames": 119,
        "frameRates": 155
      },
      {
        "trial_number": 64,
        "trial_index": 436,
        "rt": 823,
        "correct": true,
        "response": "ArrowLeft",
        "congruent": false,
        "gazeTowards": false,
        "gazeCondition": "away",
        "faceOnLeft": true,
        "impliedDirection": 0,
        "testDirection": 180,
        "avgFps": 155,
        "minFps": 122,
        "maxFps": 250,
        "totalFrames": 127,
        "frameRates": 155
      },
      {
        "trial_number": 65,
        "trial_index": 441,
        "rt": 1059,
        "correct": true,
        "response": "ArrowLeft",
        "congruent": false,
        "gazeTowards": true,
        "gazeCondition": "towards",
        "faceOnLeft": true,
        "impliedDirection": 0,
        "testDirection": 180,
        "avgFps": 155,
        "minFps": 123,
        "maxFps": 250,
        "totalFrames": 164,
        "frameRates": 155
      },
      {
        "trial_number": 66,
        "trial_index": 446,
        "rt": 1357,
        "correct": true,
        "response": "ArrowRight",
        "congruent": false,
        "gazeTowards": false,
        "gazeCondition": "away",
        "faceOnLeft": false,
        "impliedDirection": 180,
        "testDirection": 0,
        "avgFps": 155,
        "minFps": 125,
        "maxFps": 244,
        "totalFrames": 210,
        "frameRates": 155
      },
      {
        "trial_number": 67,
        "trial_index": 451,
        "rt": 881,
        "correct": true,
        "response": "ArrowLeft",
        "congruent": false,
        "gazeTowards": true,
        "gazeCondition": "towards",
        "faceOnLeft": true,
        "impliedDirection": 0,
        "testDirection": 180,
        "avgFps": 156,
        "minFps": 152,
        "maxFps": 250,
        "totalFrames": 137,
        "frameRates": 156
      },
      {
        "trial_number": 68,
        "trial_index": 456,
        "rt": 792,
        "correct": true,
        "response": "ArrowRight",
        "congruent": true,
        "gazeTowards": false,
        "gazeCondition": "away",
        "faceOnLeft": true,
        "impliedDirection": 0,
        "testDirection": 0,
        "avgFps": 155,
        "minFps": 123,
        "maxFps": 250,
        "totalFrames": 122,
        "frameRates": 155
      },
      {
        "trial_number": 69,
        "trial_index": 461,
        "rt": 730,
        "correct": true,
        "response": "ArrowLeft",
        "congruent": true,
        "gazeTowards": false,
        "gazeCondition": "away",
        "faceOnLeft": false,
        "impliedDirection": 180,
        "testDirection": 180,
        "avgFps": 155,
        "minFps": 122,
        "maxFps": 244,
        "totalFrames": 112,
        "frameRates": 155
      },
      {
        "trial_number": 70,
        "trial_index": 466,
        "rt": 679,
        "correct": true,
        "response": "ArrowRight",
        "congruent": false,
        "gazeTowards": true,
        "gazeCondition": "towards",
        "faceOnLeft": false,
        "impliedDirection": 180,
        "testDirection": 0,
        "avgFps": 155,
        "minFps": 123,
        "maxFps": 256,
        "totalFrames": 105,
        "frameRates": 155
      },
      {
        "trial_number": 71,
        "trial_index": 471,
        "rt": 1009,
        "correct": true,
        "response": "ArrowRight",
        "congruent": false,
        "gazeTowards": false,
        "gazeCondition": "away",
        "faceOnLeft": false,
        "impliedDirection": 180,
        "testDirection": 0,
        "avgFps": 155,
        "minFps": 123,
        "maxFps": 244,
        "totalFrames": 156,
        "frameRates": 155
      },
      {
        "trial_number": 72,
        "trial_index": 476,
        "rt": 961,
        "correct": true,
        "response": "ArrowLeft",
        "congruent": true,
        "gazeTowards": true,
        "gazeCondition": "towards",
        "faceOnLeft": false,
        "impliedDirection": 180,
        "testDirection": 180,
        "avgFps": 155,
        "minFps": 123,
        "maxFps": 244,
        "totalFrames": 148,
        "frameRates": 155
      },
      {
        "trial_number": 73,
        "trial_index": 481,
        "rt": 888,
        "correct": true,
        "response": "ArrowRight",
        "congruent": false,
        "gazeTowards": false,
        "gazeCondition": "away",
        "faceOnLeft": false,
        "impliedDirection": 180,
        "testDirection": 0,
        "avgFps": 155,
        "minFps": 122,
        "maxFps": 250,
        "totalFrames": 138,
        "frameRates": 155
      },
      {
        "trial_number": 74,
        "trial_index": 486,
        "rt": 831,
        "correct": true,
        "response": "ArrowLeft",
        "congruent": true,
        "gazeTowards": true,
        "gazeCondition": "towards",
        "faceOnLeft": false,
        "impliedDirection": 180,
        "testDirection": 180,
        "avgFps": 155,
        "minFps": 123,
        "maxFps": 250,
        "totalFrames": 128,
        "frameRates": 155
      },
      {
        "trial_number": 75,
        "trial_index": 491,
        "rt": 1161,
        "correct": true,
        "response": "ArrowLeft",
        "congruent": true,
        "gazeTowards": true,
        "gazeCondition": "towards",
        "faceOnLeft": false,
        "impliedDirection": 180,
        "testDirection": 180,
        "avgFps": 155,
        "minFps": 97,
        "maxFps": 250,
        "totalFrames": 180,
        "frameRates": 155
      },
      {
        "trial_number": 76,
        "trial_index": 502,
        "rt": 1192,
        "correct": true,
        "response": "ArrowRight",
        "congruent": true,
        "gazeTowards": false,
        "gazeCondition": "away",
        "faceOnLeft": true,
        "impliedDirection": 0,
        "testDirection": 0,
        "avgFps": 155,
        "minFps": 152,
        "maxFps": 250,
        "totalFrames": 184,
        "frameRates": 155
      },
      {
        "trial_number": 77,
        "trial_index": 507,
        "rt": 1044,
        "correct": true,
        "response": "ArrowRight",
        "congruent": false,
        "gazeTowards": false,
        "gazeCondition": "away",
        "faceOnLeft": false,
        "impliedDirection": 180,
        "testDirection": 0,
        "avgFps": 155,
        "minFps": 123,
        "maxFps": 250,
        "totalFrames": 161,
        "frameRates": 155
      },
      {
        "trial_number": 78,
        "trial_index": 512,
        "rt": 953,
        "correct": true,
        "response": "ArrowRight",
        "congruent": false,
        "gazeTowards": true,
        "gazeCondition": "towards",
        "faceOnLeft": false,
        "impliedDirection": 180,
        "testDirection": 0,
        "avgFps": 155,
        "minFps": 104,
        "maxFps": 250,
        "totalFrames": 147,
        "frameRates": 155
      },
      {
        "trial_number": 79,
        "trial_index": 517,
        "rt": 886,
        "correct": true,
        "response": "ArrowRight",
        "congruent": false,
        "gazeTowards": false,
        "gazeCondition": "away",
        "faceOnLeft": false,
        "impliedDirection": 180,
        "testDirection": 0,
        "avgFps": 155,
        "minFps": 123,
        "maxFps": 250,
        "totalFrames": 137,
        "frameRates": 155
      },
      {
        "trial_number": 80,
        "trial_index": 522,
        "rt": 746,
        "correct": true,
        "response": "ArrowLeft",
        "congruent": true,
        "gazeTowards": true,
        "gazeCondition": "towards",
        "faceOnLeft": false,
        "impliedDirection": 180,
        "testDirection": 180,
        "avgFps": 155,
        "minFps": 123,
        "maxFps": 256,
        "totalFrames": 115,
        "frameRates": 155
      },
      {
        "trial_number": 81,
        "trial_index": 527,
        "rt": 911,
        "correct": true,
        "response": "ArrowRight",
        "congruent": true,
        "gazeTowards": true,
        "gazeCondition": "towards",
        "faceOnLeft": true,
        "impliedDirection": 0,
        "testDirection": 0,
        "avgFps": 155,
        "minFps": 123,
        "maxFps": 250,
        "totalFrames": 141,
        "frameRates": 155
      },
      {
        "trial_number": 82,
        "trial_index": 532,
        "rt": 932,
        "correct": true,
        "response": "ArrowRight",
        "congruent": true,
        "gazeTowards": false,
        "gazeCondition": "away",
        "faceOnLeft": true,
        "impliedDirection": 0,
        "testDirection": 0,
        "avgFps": 155,
        "minFps": 123,
        "maxFps": 250,
        "totalFrames": 145,
        "frameRates": 155
      },
      {
        "trial_number": 83,
        "trial_index": 537,
        "rt": 1005,
        "correct": true,
        "response": "ArrowRight",
        "congruent": false,
        "gazeTowards": false,
        "gazeCondition": "away",
        "faceOnLeft": false,
        "impliedDirection": 180,
        "testDirection": 0,
        "avgFps": 154,
        "minFps": 78,
        "maxFps": 250,
        "totalFrames": 154,
        "frameRates": 154
      },
      {
        "trial_number": 84,
        "trial_index": 542,
        "rt": 1472,
        "correct": true,
        "response": "ArrowRight",
        "congruent": false,
        "gazeTowards": false,
        "gazeCondition": "away",
        "faceOnLeft": false,
        "impliedDirection": 180,
        "testDirection": 0,
        "avgFps": 155,
        "minFps": 123,
        "maxFps": 244,
        "totalFrames": 228,
        "frameRates": 155
      },
      {
        "trial_number": 85,
        "trial_index": 547,
        "rt": 969,
        "correct": true,
        "response": "ArrowLeft",
        "congruent": false,
        "gazeTowards": false,
        "gazeCondition": "away",
        "faceOnLeft": true,
        "impliedDirection": 0,
        "testDirection": 180,
        "avgFps": 155,
        "minFps": 123,
        "maxFps": 256,
        "totalFrames": 150,
        "frameRates": 155
      },
      {
        "trial_number": 86,
        "trial_index": 552,
        "rt": 828,
        "correct": true,
        "response": "ArrowRight",
        "congruent": false,
        "gazeTowards": false,
        "gazeCondition": "away",
        "faceOnLeft": false,
        "impliedDirection": 180,
        "testDirection": 0,
        "avgFps": 155,
        "minFps": 122,
        "maxFps": 244,
        "totalFrames": 128,
        "frameRates": 155
      },
      {
        "trial_number": 87,
        "trial_index": 557,
        "rt": 811,
        "correct": true,
        "response": "ArrowLeft",
        "congruent": true,
        "gazeTowards": true,
        "gazeCondition": "towards",
        "faceOnLeft": false,
        "impliedDirection": 180,
        "testDirection": 180,
        "avgFps": 155,
        "minFps": 78,
        "maxFps": 407,
        "totalFrames": 125,
        "frameRates": 155
      },
      {
        "trial_number": 88,
        "trial_index": 562,
        "rt": 804,
        "correct": true,
        "response": "ArrowRight",
        "congruent": false,
        "gazeTowards": true,
        "gazeCondition": "towards",
        "faceOnLeft": false,
        "impliedDirection": 180,
        "testDirection": 0,
        "avgFps": 155,
        "minFps": 149,
        "maxFps": 256,
        "totalFrames": 124,
        "frameRates": 155
      },
      {
        "trial_number": 89,
        "trial_index": 568,
        "rt": 847,
        "correct": true,
        "response": "ArrowLeft",
        "congruent": true,
        "gazeTowards": false,
        "gazeCondition": "away",
        "faceOnLeft": false,
        "impliedDirection": 180,
        "testDirection": 180,
        "avgFps": 155,
        "minFps": 152,
        "maxFps": 250,
        "totalFrames": 131,
        "frameRates": 155
      },
      {
        "trial_number": 90,
        "trial_index": 573,
        "rt": 1235,
        "correct": true,
        "response": "ArrowLeft",
        "congruent": true,
        "gazeTowards": true,
        "gazeCondition": "towards",
        "faceOnLeft": false,
        "impliedDirection": 180,
        "testDirection": 180,
        "avgFps": 155,
        "minFps": 123,
        "maxFps": 250,
        "totalFrames": 191,
        "frameRates": 155
      },
      {
        "trial_number": 91,
        "trial_index": 578,
        "rt": 1094,
        "correct": true,
        "response": "ArrowRight",
        "congruent": false,
        "gazeTowards": true,
        "gazeCondition": "towards",
        "faceOnLeft": false,
        "impliedDirection": 180,
        "testDirection": 0,
        "avgFps": 155,
        "minFps": 123,
        "maxFps": 250,
        "totalFrames": 169,
        "frameRates": 155
      },
      {
        "trial_number": 92,
        "trial_index": 583,
        "rt": 1200,
        "correct": true,
        "response": "ArrowRight",
        "congruent": false,
        "gazeTowards": true,
        "gazeCondition": "towards",
        "faceOnLeft": false,
        "impliedDirection": 180,
        "testDirection": 0,
        "avgFps": 155,
        "minFps": 125,
        "maxFps": 250,
        "totalFrames": 186,
        "frameRates": 155
      },
      {
        "trial_number": 93,
        "trial_index": 588,
        "rt": 1413,
        "correct": true,
        "response": "ArrowRight",
        "congruent": false,
        "gazeTowards": false,
        "gazeCondition": "away",
        "faceOnLeft": false,
        "impliedDirection": 180,
        "testDirection": 0,
        "avgFps": 155,
        "minFps": 123,
        "maxFps": 244,
        "totalFrames": 219,
        "frameRates": 155
      },
      {
        "trial_number": 94,
        "trial_index": 593,
        "rt": 780,
        "correct": true,
        "response": "ArrowLeft",
        "congruent": true,
        "gazeTowards": true,
        "gazeCondition": "towards",
        "faceOnLeft": false,
        "impliedDirection": 180,
        "testDirection": 180,
        "avgFps": 155,
        "minFps": 122,
        "maxFps": 244,
        "totalFrames": 121,
        "frameRates": 155
      },
      {
        "trial_number": 95,
        "trial_index": 598,
        "rt": 672,
        "correct": true,
        "response": "ArrowLeft",
        "congruent": false,
        "gazeTowards": false,
        "gazeCondition": "away",
        "faceOnLeft": true,
        "impliedDirection": 0,
        "testDirection": 180,
        "avgFps": 155,
        "minFps": 123,
        "maxFps": 263,
        "totalFrames": 104,
        "frameRates": 155
      },
      {
        "trial_number": 96,
        "trial_index": 603,
        "rt": 1119,
        "correct": true,
        "response": "ArrowLeft",
        "congruent": true,
        "gazeTowards": true,
        "gazeCondition": "towards",
        "faceOnLeft": false,
        "impliedDirection": 180,
        "testDirection": 180,
        "avgFps": 155,
        "minFps": 123,
        "maxFps": 250,
        "totalFrames": 173,
        "frameRates": 155
      },
      {
        "trial_number": 97,
        "trial_index": 608,
        "rt": 680,
        "correct": true,
        "response": "ArrowRight",
        "congruent": true,
        "gazeTowards": true,
        "gazeCondition": "towards",
        "faceOnLeft": true,
        "impliedDirection": 0,
        "testDirection": 0,
        "avgFps": 155,
        "minFps": 123,
        "maxFps": 250,
        "totalFrames": 105,
        "frameRates": 155
      },
      {
        "trial_number": 98,
        "trial_index": 613,
        "rt": 631,
        "correct": true,
        "response": "ArrowLeft",
        "congruent": true,
        "gazeTowards": false,
        "gazeCondition": "away",
        "faceOnLeft": false,
        "impliedDirection": 180,
        "testDirection": 180,
        "avgFps": 155,
        "minFps": 123,
        "maxFps": 244,
        "totalFrames": 97,
        "frameRates": 155
      },
      {
        "trial_number": 99,
        "trial_index": 618,
        "rt": 617,
        "correct": true,
        "response": "ArrowRight",
        "congruent": true,
        "gazeTowards": false,
        "gazeCondition": "away",
        "faceOnLeft": true,
        "impliedDirection": 0,
        "testDirection": 0,
        "avgFps": 153,
        "minFps": 78,
        "maxFps": 256,
        "totalFrames": 95,
        "frameRates": 153
      },
      {
        "trial_number": 100,
        "trial_index": 623,
        "rt": 1275,
        "correct": true,
        "response": "ArrowLeft",
        "congruent": true,
        "gazeTowards": true,
        "gazeCondition": "towards",
        "faceOnLeft": false,
        "impliedDirection": 180,
        "testDirection": 180,
        "avgFps": 155,
        "minFps": 125,
        "maxFps": 424,
        "totalFrames": 197,
        "frameRates": 155
      },
      {
        "trial_number": 101,
        "trial_index": 628,
        "rt": 1166,
        "correct": true,
        "response": "ArrowLeft",
        "congruent": true,
        "gazeTowards": true,
        "gazeCondition": "towards",
        "faceOnLeft": false,
        "impliedDirection": 180,
        "testDirection": 180,
        "avgFps": 155,
        "minFps": 147,
        "maxFps": 250,
        "totalFrames": 180,
        "frameRates": 155
      },
      {
        "trial_number": 102,
        "trial_index": 633,
        "rt": 1031,
        "correct": true,
        "response": "ArrowLeft",
        "congruent": false,
        "gazeTowards": true,
        "gazeCondition": "towards",
        "faceOnLeft": true,
        "impliedDirection": 0,
        "testDirection": 180,
        "avgFps": 155,
        "minFps": 122,
        "maxFps": 250,
        "totalFrames": 159,
        "frameRates": 155
      },
      {
        "trial_number": 103,
        "trial_index": 638,
        "rt": 1056,
        "correct": true,
        "response": "ArrowLeft",
        "congruent": true,
        "gazeTowards": true,
        "gazeCondition": "towards",
        "faceOnLeft": false,
        "impliedDirection": 180,
        "testDirection": 180,
        "avgFps": 156,
        "minFps": 123,
        "maxFps": 424,
        "totalFrames": 164,
        "frameRates": 156
      },
      {
        "trial_number": 104,
        "trial_index": 643,
        "rt": 1520,
        "correct": true,
        "response": "ArrowLeft",
        "congruent": false,
        "gazeTowards": true,
        "gazeCondition": "towards",
        "faceOnLeft": true,
        "impliedDirection": 0,
        "testDirection": 180,
        "avgFps": 155,
        "minFps": 123,
        "maxFps": 250,
        "totalFrames": 236,
        "frameRates": 155
      },
      {
        "trial_number": 105,
        "trial_index": 648,
        "rt": 1116,
        "correct": true,
        "response": "ArrowRight",
        "congruent": false,
        "gazeTowards": true,
        "gazeCondition": "towards",
        "faceOnLeft": false,
        "impliedDirection": 180,
        "testDirection": 0,
        "avgFps": 155,
        "minFps": 123,
        "maxFps": 250,
        "totalFrames": 173,
        "frameRates": 155
      },
      {
        "trial_number": 106,
        "trial_index": 653,
        "rt": 1332,
        "correct": true,
        "response": "ArrowLeft",
        "congruent": false,
        "gazeTowards": false,
        "gazeCondition": "away",
        "faceOnLeft": true,
        "impliedDirection": 0,
        "testDirection": 180,
        "avgFps": 155,
        "minFps": 152,
        "maxFps": 256,
        "totalFrames": 207,
        "frameRates": 155
      },
      {
        "trial_number": 107,
        "trial_index": 658,
        "rt": 1220,
        "correct": true,
        "response": "ArrowRight",
        "congruent": false,
        "gazeTowards": true,
        "gazeCondition": "towards",
        "faceOnLeft": false,
        "impliedDirection": 180,
        "testDirection": 0,
        "avgFps": 155,
        "minFps": 122,
        "maxFps": 250,
        "totalFrames": 188,
        "frameRates": 155
      },
      {
        "trial_number": 108,
        "trial_index": 663,
        "rt": 1522,
        "correct": true,
        "response": "ArrowRight",
        "congruent": false,
        "gazeTowards": true,
        "gazeCondition": "towards",
        "faceOnLeft": false,
        "impliedDirection": 180,
        "testDirection": 0,
        "avgFps": 155,
        "minFps": 122,
        "maxFps": 250,
        "totalFrames": 236,
        "frameRates": 155
      },
      {
        "trial_number": 109,
        "trial_index": 671,
        "rt": 878,
        "correct": true,
        "response": "ArrowRight",
        "congruent": true,
        "gazeTowards": true,
        "gazeCondition": "towards",
        "faceOnLeft": true,
        "impliedDirection": 0,
        "testDirection": 0,
        "avgFps": 155,
        "minFps": 152,
        "maxFps": 250,
        "totalFrames": 137,
        "frameRates": 155
      },
      {
        "trial_number": 110,
        "trial_index": 676,
        "rt": 1399,
        "correct": true,
        "response": "ArrowRight",
        "congruent": true,
        "gazeTowards": true,
        "gazeCondition": "towards",
        "faceOnLeft": true,
        "impliedDirection": 0,
        "testDirection": 0,
        "avgFps": 154,
        "minFps": 78,
        "maxFps": 244,
        "totalFrames": 215,
        "frameRates": 154
      },
      {
        "trial_number": 111,
        "trial_index": 681,
        "rt": 887,
        "correct": true,
        "response": "ArrowLeft",
        "congruent": false,
        "gazeTowards": true,
        "gazeCondition": "towards",
        "faceOnLeft": true,
        "impliedDirection": 0,
        "testDirection": 180,
        "avgFps": 155,
        "minFps": 122,
        "maxFps": 256,
        "totalFrames": 138,
        "frameRates": 155
      },
      {
        "trial_number": 112,
        "trial_index": 686,
        "rt": 816,
        "correct": true,
        "response": "ArrowRight",
        "congruent": false,
        "gazeTowards": false,
        "gazeCondition": "away",
        "faceOnLeft": false,
        "impliedDirection": 180,
        "testDirection": 0,
        "avgFps": 155,
        "minFps": 123,
        "maxFps": 250,
        "totalFrames": 126,
        "frameRates": 155
      },
      {
        "trial_number": 113,
        "trial_index": 694,
        "rt": 1758,
        "correct": true,
        "response": "ArrowLeft",
        "congruent": true,
        "gazeTowards": true,
        "gazeCondition": "towards",
        "faceOnLeft": false,
        "impliedDirection": 180,
        "testDirection": 180,
        "avgFps": 155,
        "minFps": 152,
        "maxFps": 250,
        "totalFrames": 273,
        "frameRates": 155
      },
      {
        "trial_number": 114,
        "trial_index": 699,
        "rt": 1637,
        "correct": true,
        "response": "ArrowLeft",
        "congruent": false,
        "gazeTowards": false,
        "gazeCondition": "away",
        "faceOnLeft": true,
        "impliedDirection": 0,
        "testDirection": 180,
        "avgFps": 155,
        "minFps": 122,
        "maxFps": 250,
        "totalFrames": 254,
        "frameRates": 155
      },
      {
        "trial_number": 115,
        "trial_index": 704,
        "rt": 1197,
        "correct": true,
        "response": "ArrowRight",
        "congruent": true,
        "gazeTowards": true,
        "gazeCondition": "towards",
        "faceOnLeft": true,
        "impliedDirection": 0,
        "testDirection": 0,
        "avgFps": 155,
        "minFps": 122,
        "maxFps": 250,
        "totalFrames": 185,
        "frameRates": 155
      },
      {
        "trial_number": 116,
        "trial_index": 709,
        "rt": 771,
        "correct": true,
        "response": "ArrowLeft",
        "congruent": false,
        "gazeTowards": false,
        "gazeCondition": "away",
        "faceOnLeft": true,
        "impliedDirection": 0,
        "testDirection": 180,
        "avgFps": 156,
        "minFps": 123,
        "maxFps": 424,
        "totalFrames": 119,
        "frameRates": 156
      },
      {
        "trial_number": 117,
        "trial_index": 714,
        "rt": 1215,
        "correct": true,
        "response": "ArrowRight",
        "congruent": true,
        "gazeTowards": true,
        "gazeCondition": "towards",
        "faceOnLeft": true,
        "impliedDirection": 0,
        "testDirection": 0,
        "avgFps": 155,
        "minFps": 122,
        "maxFps": 424,
        "totalFrames": 188,
        "frameRates": 155
      },
      {
        "trial_number": 118,
        "trial_index": 719,
        "rt": 1676,
        "correct": true,
        "response": "ArrowLeft",
        "congruent": false,
        "gazeTowards": false,
        "gazeCondition": "away",
        "faceOnLeft": true,
        "impliedDirection": 0,
        "testDirection": 180,
        "avgFps": 155,
        "minFps": 113,
        "maxFps": 250,
        "totalFrames": 259,
        "frameRates": 155
      },
      {
        "trial_number": 119,
        "trial_index": 724,
        "rt": 1550,
        "correct": true,
        "response": "ArrowLeft",
        "congruent": false,
        "gazeTowards": false,
        "gazeCondition": "away",
        "faceOnLeft": true,
        "impliedDirection": 0,
        "testDirection": 180,
        "avgFps": 155,
        "minFps": 123,
        "maxFps": 250,
        "totalFrames": 240,
        "frameRates": 155
      }
    ],
    "catch": {
      "total": 12,
      "correct": 12,
      "accuracy": 100,
      "meanRT": 809,
      "trials": [
        {
          "trial_number": 0,
          "trial_index": 124,
          "rt": 1195,
          "correct": true,
          "colorTarget": "tree",
          "gazeTowards": true,
          "gazeCondition": "towards",
          "faceOnLeft": false
        },
        {
          "trial_number": 1,
          "trial_index": 232,
          "rt": 736,
          "correct": true,
          "colorTarget": "tree",
          "gazeTowards": false,
          "gazeCondition": "away",
          "faceOnLeft": true
        },
        {
          "trial_number": 2,
          "trial_index": 256,
          "rt": 726,
          "correct": true,
          "colorTarget": "tree",
          "gazeTowards": true,
          "gazeCondition": "towards",
          "faceOnLeft": false
        },
        {
          "trial_number": 3,
          "trial_index": 274,
          "rt": 945,
          "correct": true,
          "colorTarget": "face",
          "gazeTowards": false,
          "gazeCondition": "away",
          "faceOnLeft": true
        },
        {
          "trial_number": 4,
          "trial_index": 392,
          "rt": 911,
          "correct": true,
          "colorTarget": "tree",
          "gazeTowards": true,
          "gazeCondition": "towards",
          "faceOnLeft": false
        },
        {
          "trial_number": 5,
          "trial_index": 395,
          "rt": 713,
          "correct": true,
          "colorTarget": "face",
          "gazeTowards": true,
          "gazeCondition": "towards",
          "faceOnLeft": true
        },
        {
          "trial_number": 6,
          "trial_index": 409,
          "rt": 642,
          "correct": true,
          "colorTarget": "tree",
          "gazeTowards": true,
          "gazeCondition": "towards",
          "faceOnLeft": true
        },
        {
          "trial_number": 7,
          "trial_index": 417,
          "rt": 619,
          "correct": true,
          "colorTarget": "face",
          "gazeTowards": false,
          "gazeCondition": "away",
          "faceOnLeft": false
        },
        {
          "trial_number": 8,
          "trial_index": 495,
          "rt": 638,
          "correct": true,
          "colorTarget": "tree",
          "gazeTowards": false,
          "gazeCondition": "away",
          "faceOnLeft": false
        },
        {
          "trial_number": 9,
          "trial_index": 498,
          "rt": 837,
          "correct": true,
          "colorTarget": "face",
          "gazeTowards": false,
          "gazeCondition": "away",
          "faceOnLeft": false
        },
        {
          "trial_number": 10,
          "trial_index": 667,
          "rt": 957,
          "correct": true,
          "colorTarget": "face",
          "gazeTowards": true,
          "gazeCondition": "towards",
          "faceOnLeft": true
        },
        {
          "trial_number": 11,
          "trial_index": 690,
          "rt": 783,
          "correct": true,
          "colorTarget": "face",
          "gazeTowards": false,
          "gazeCondition": "away",
          "faceOnLeft": false
        }
      ]
    },
    "practice": {
      "trials": [
        {
          "trial_number": 0,
          "rt": 1765,
          "correct": true,
          "direction": 180
        },
        {
          "trial_number": 1,
          "rt": 884,
          "correct": true,
          "direction": 0
        },
        {
          "trial_number": 2,
          "rt": 1945,
          "correct": false,
          "direction": 0
        },
        {
          "trial_number": 3,
          "rt": null,
          "correct": false,
          "direction": 0
        },
        {
          "trial_number": 4,
          "rt": 521,
          "correct": true,
          "direction": 180
        },
        {
          "trial_number": 5,
          "rt": 565,
          "correct": true,
          "direction": 0
        },
        {
          "trial_number": 6,
          "rt": 688,
          "correct": false,
          "direction": 0
        },
        {
          "trial_number": 7,
          "rt": 707,
          "correct": true,
          "direction": 180
        },
        {
          "trial_number": 8,
          "rt": 1028,
          "correct": true,
          "direction": 180
        },
        {
          "trial_number": 9,
          "rt": 1125,
          "correct": true,
          "direction": 180
        },
        {
          "trial_number": 10,
          "rt": 747,
          "correct": true,
          "direction": 180
        },
        {
          "trial_number": 11,
          "rt": 826,
          "correct": true,
          "direction": 0
        },
        {
          "trial_number": 12,
          "rt": 1159,
          "correct": false,
          "direction": 0
        },
        {
          "trial_number": 13,
          "rt": 861,
          "correct": true,
          "direction": 0
        },
        {
          "trial_number": 14,
          "rt": 640,
          "correct": true,
          "direction": 180
        },
        {
          "trial_number": 15,
          "rt": 857,
          "correct": false,
          "direction": 0
        },
        {
          "trial_number": 16,
          "rt": 564,
          "correct": true,
          "direction": 0
        },
        {
          "trial_number": 17,
          "rt": 515,
          "correct": true,
          "direction": 180
        },
        {
          "trial_number": 18,
          "rt": 631,
          "correct": true,
          "direction": 180
        },
        {
          "trial_number": 19,
          "rt": 923,
          "correct": true,
          "direction": 180
        }
      ],
      "meanRT": 892,
      "accuracy": 75
    }
  }
}