{
  "experiment": "rdk-face-1",
  "UUID": "9f1b23d0-8efd-4ae8-859e-3822b1372603",
  "data": {
    "session": {
      "experiment_version": "1.8.6",
      "treatment": "faces_towards_away_catch",
      "file_version": "1.8.6",
      "totalTrials": 120,
      "totalTrialsIncludingCatch": 132,
      "conditions": {
        "gazeTowardsCount": 60,
        "gazeAwayCount": 60,
        "gazeTowardsAccuracy": 68,
        "gazeAwayAccuracy": 60
      },
      "session_group": "default",
      "browserData": {
        "os": "Windows",
        "browser": "Chrome",
        "screenResolution": "1366x768",
        "browserViewport": "1366x768",
        "devicePixelRatio": 1,
        "colorDepth": 24,
        "hardwareConcurrency": 4,
        "deviceMemory": 8,
        "gpuRenderer": "ANGLE (Intel, Intel(R) UHD Graphics 600 (0x00003185) Direct3D11 vs_5_0 ps_5_0, D3D11)",
        "measuredRefreshRateHz": 35
      },
      "attention": {
        "visibilityEvents": [
          {
            "event": "blur",
            "state": "blurred",
            "timestamp": 1772766101901
          },
          {
            "event": "visibilitychange",
            "state": "hidden",
            "timestamp": 1772766102073
          },
          {
            "event": "visibilitychange",
            "state": "visible",
            "timestamp": 1772766104877
          },
          {
            "event": "focus",
            "state": "focused",
            "timestamp": 1772766104885
          }
        ]
      },
      "calibration": {
        "monitorWidthCm": 38,
        "viewingDistanceCm": 54,
        "pixelsPerDegree": 50
      },
      "parameters": {
        "coherence": 0.4,
        "apertureDeg": 5,
        "densityDotsPerDeg2": 40,
        "dotDiameterDeg": 0.035,
        "dotSpeedDegPerSec": 3,
        "lifetimeMs": 200,
        "fixationDurationMs": 1500,
        "faceDurationMs": 1500,
        "testDurationMs": 2000,
        "catchResponseMs": 3000
      },
      "prolific": {
        "prolificPid": "670c0d262ead69ef8c5561cb",
        "studyId": "",
        "sessionId": ""
      },
      "timing": {
        "startTime": "2026-03-06T03:01:39.891Z",
        "endTime": "2026-03-06T03:16:20.818Z",
        "totalElapsedTimeMs": 880927
      }
    },
    "trials": [
      {
        "trial_number": 0,
        "trial_index": 49,
        "rt": 1455,
        "correct": false,
        "response": "ArrowRight",
        "congruent": false,
        "gazeTowards": true,
        "gazeCondition": "towards",
        "faceOnLeft": true,
        "impliedDirection": 0,
        "testDirection": 180,
        "avgFps": 60,
        "minFps": 60,
        "maxFps": 72,
        "totalFrames": 87,
        "frameRates": 60
      },
      {
        "trial_number": 1,
        "trial_index": 54,
        "rt": 1987,
        "correct": true,
        "response": "ArrowRight",
        "congruent": true,
        "gazeTowards": true,
        "gazeCondition": "towards",
        "faceOnLeft": true,
        "impliedDirection": 0,
        "testDirection": 0,
        "avgFps": 60,
        "minFps": 58,
        "maxFps": 72,
        "totalFrames": 119,
        "frameRates": 60
      },
      {
        "trial_number": 2,
        "trial_index": 59,
        "rt": 901,
        "correct": false,
        "response": "ArrowLeft",
        "congruent": false,
        "gazeTowards": false,
        "gazeCondition": "away",
        "faceOnLeft": false,
        "impliedDirection": 180,
        "testDirection": 0,
        "avgFps": 60,
        "minFps": 60,
        "maxFps": 66,
        "totalFrames": 54,
        "frameRates": 60
      },
      {
        "trial_number": 3,
        "trial_index": 64,
        "rt": 1373,
        "correct": false,
        "response": "ArrowLeft",
        "congruent": true,
        "gazeTowards": false,
        "gazeCondition": "away",
        "faceOnLeft": true,
        "impliedDirection": 0,
        "testDirection": 0,
        "avgFps": 60,
        "minFps": 60,
        "maxFps": 66,
        "totalFrames": 83,
        "frameRates": 60
      },
      {
        "trial_number": 4,
        "trial_index": 69,
        "rt": 1541,
        "correct": false,
        "response": "ArrowRight",
        "congruent": true,
        "gazeTowards": true,
        "gazeCondition": "towards",
        "faceOnLeft": false,
        "impliedDirection": 180,
        "testDirection": 180,
        "avgFps": 60,
        "minFps": 59,
        "maxFps": 71,
        "totalFrames": 92,
        "frameRates": 60
      },
      {
        "trial_number": 5,
        "trial_index": 74,
        "rt": 1832,
        "correct": true,
        "response": "ArrowRight",
        "congruent": true,
        "gazeTowards": true,
        "gazeCondition": "towards",
        "faceOnLeft": true,
        "impliedDirection": 0,
        "testDirection": 0,
        "avgFps": 60,
        "minFps": 60,
        "maxFps": 66,
        "totalFrames": 110,
        "frameRates": 60
      },
      {
        "trial_number": 6,
        "trial_index": 79,
        "rt": 1520,
        "correct": false,
        "response": "ArrowRight",
        "congruent": true,
        "gazeTowards": false,
        "gazeCondition": "away",
        "faceOnLeft": false,
        "impliedDirection": 180,
        "testDirection": 180,
        "avgFps": 60,
        "minFps": 60,
        "maxFps": 65,
        "totalFrames": 91,
        "frameRates": 60
      },
      {
        "trial_number": 7,
        "trial_index": 84,
        "rt": 1388,
        "correct": true,
        "response": "ArrowRight",
        "congruent": true,
        "gazeTowards": false,
        "gazeCondition": "away",
        "faceOnLeft": true,
        "impliedDirection": 0,
        "testDirection": 0,
        "avgFps": 60,
        "minFps": 60,
        "maxFps": 79,
        "totalFrames": 83,
        "frameRates": 60
      },
      {
        "trial_number": 8,
        "trial_index": 89,
        "rt": 1868,
        "correct": true,
        "response": "ArrowRight",
        "congruent": true,
        "gazeTowards": true,
        "gazeCondition": "towards",
        "faceOnLeft": true,
        "impliedDirection": 0,
        "testDirection": 0,
        "avgFps": 60,
        "minFps": 60,
        "maxFps": 66,
        "totalFrames": 112,
        "frameRates": 60
      },
      {
        "trial_number": 9,
        "trial_index": 94,
        "rt": 1030,
        "correct": false,
        "response": "ArrowRight",
        "congruent": false,
        "gazeTowards": false,
        "gazeCondition": "away",
        "faceOnLeft": true,
        "impliedDirection": 0,
        "testDirection": 180,
        "avgFps": 60,
        "minFps": 59,
        "maxFps": 66,
        "totalFrames": 62,
        "frameRates": 60
      },
      {
        "trial_number": 10,
        "trial_index": 99,
        "rt": 1332,
        "correct": false,
        "response": "ArrowLeft",
        "congruent": false,
        "gazeTowards": false,
        "gazeCondition": "away",
        "faceOnLeft": false,
        "impliedDirection": 180,
        "testDirection": 0,
        "avgFps": 60,
        "minFps": 60,
        "maxFps": 72,
        "totalFrames": 80,
        "frameRates": 60
      },
      {
        "trial_number": 11,
        "trial_index": 104,
        "rt": 1217,
        "correct": true,
        "response": "ArrowRight",
        "congruent": true,
        "gazeTowards": true,
        "gazeCondition": "towards",
        "faceOnLeft": true,
        "impliedDirection": 0,
        "testDirection": 0,
        "avgFps": 60,
        "minFps": 60,
        "maxFps": 66,
        "totalFrames": 73,
        "frameRates": 60
      },
      {
        "trial_number": 12,
        "trial_index": 109,
        "rt": 1463,
        "correct": false,
        "response": "ArrowRight",
        "congruent": true,
        "gazeTowards": true,
        "gazeCondition": "towards",
        "faceOnLeft": false,
        "impliedDirection": 180,
        "testDirection": 180,
        "avgFps": 60,
        "minFps": 60,
        "maxFps": 66,
        "totalFrames": 88,
        "frameRates": 60
      },
      {
        "trial_number": 13,
        "trial_index": 114,
        "rt": 1466,
        "correct": true,
        "response": "ArrowRight",
        "congruent": true,
        "gazeTowards": false,
        "gazeCondition": "away",
        "faceOnLeft": true,
        "impliedDirection": 0,
        "testDirection": 0,
        "avgFps": 60,
        "minFps": 60,
        "maxFps": 72,
        "totalFrames": 88,
        "frameRates": 60
      },
      {
        "trial_number": 14,
        "trial_index": 119,
        "rt": 1602,
        "correct": false,
        "response": "ArrowRight",
        "congruent": false,
        "gazeTowards": false,
        "gazeCondition": "away",
        "faceOnLeft": true,
        "impliedDirection": 0,
        "testDirection": 180,
        "avgFps": 59,
        "minFps": 30,
        "maxFps": 64,
        "totalFrames": 96,
        "frameRates": 59
      },
      {
        "trial_number": 15,
        "trial_index": 124,
        "rt": 1233,
        "correct": false,
        "response": "ArrowLeft",
        "congruent": true,
        "gazeTowards": true,
        "gazeCondition": "towards",
        "faceOnLeft": true,
        "impliedDirection": 0,
        "testDirection": 0,
        "avgFps": 60,
        "minFps": 60,
        "maxFps": 66,
        "totalFrames": 74,
        "frameRates": 60
      },
      {
        "trial_number": 16,
        "trial_index": 129,
        "rt": 1662,
        "correct": true,
        "response": "ArrowRight",
        "congruent": true,
        "gazeTowards": true,
        "gazeCondition": "towards",
        "faceOnLeft": true,
        "impliedDirection": 0,
        "testDirection": 0,
        "avgFps": 60,
        "minFps": 32,
        "maxFps": 62,
        "totalFrames": 99,
        "frameRates": 60
      },
      {
        "trial_number": 17,
        "trial_index": 134,
        "rt": 956,
        "correct": true,
        "response": "ArrowRight",
        "congruent": false,
        "gazeTowards": true,
        "gazeCondition": "towards",
        "faceOnLeft": false,
        "impliedDirection": 180,
        "testDirection": 0,
        "avgFps": 60,
        "minFps": 60,
        "maxFps": 72,
        "totalFrames": 58,
        "frameRates": 60
      },
      {
        "trial_number": 18,
        "trial_index": 139,
        "rt": 1680,
        "correct": false,
        "response": "ArrowRight",
        "congruent": false,
        "gazeTowards": true,
        "gazeCondition": "towards",
        "faceOnLeft": true,
        "impliedDirection": 0,
        "testDirection": 180,
        "avgFps": 60,
        "minFps": 59,
        "maxFps": 65,
        "totalFrames": 101,
        "frameRates": 60
      },
      {
        "trial_number": 19,
        "trial_index": 144,
        "rt": 12,
        "correct": true,
        "response": "ArrowLeft",
        "congruent": true,
        "gazeTowards": true,
        "gazeCondition": "towards",
        "faceOnLeft": false,
        "impliedDirection": 180,
        "testDirection": 180,
        "avgFps": 66,
        "minFps": 66,
        "maxFps": 66,
        "totalFrames": 1,
        "frameRates": 66
      },
      {
        "trial_number": 20,
        "trial_index": 149,
        "rt": 1670,
        "correct": true,
        "response": "ArrowRight",
        "congruent": false,
        "gazeTowards": false,
        "gazeCondition": "away",
        "faceOnLeft": false,
        "impliedDirection": 180,
        "testDirection": 0,
        "avgFps": 60,
        "minFps": 60,
        "maxFps": 73,
        "totalFrames": 100,
        "frameRates": 60
      },
      {
        "trial_number": 21,
        "trial_index": 157,
        "rt": 1394,
        "correct": true,
        "response": "ArrowRight",
        "congruent": false,
        "gazeTowards": true,
        "gazeCondition": "towards",
        "faceOnLeft": false,
        "impliedDirection": 180,
        "testDirection": 0,
        "avgFps": 60,
        "minFps": 60,
        "maxFps": 66,
        "totalFrames": 84,
        "frameRates": 60
      },
      {
        "trial_number": 22,
        "trial_index": 162,
        "rt": 1149,
        "correct": true,
        "response": "ArrowRight",
        "congruent": false,
        "gazeTowards": false,
        "gazeCondition": "away",
        "faceOnLeft": false,
        "impliedDirection": 180,
        "testDirection": 0,
        "avgFps": 60,
        "minFps": 60,
        "maxFps": 66,
        "totalFrames": 69,
        "frameRates": 60
      },
      {
        "trial_number": 23,
        "trial_index": 167,
        "rt": null,
        "correct": false,
        "response": null,
        "congruent": false,
        "gazeTowards": true,
        "gazeCondition": "towards",
        "faceOnLeft": true,
        "impliedDirection": 0,
        "testDirection": 180,
        "avgFps": 60,
        "minFps": 59,
        "maxFps": 72,
        "totalFrames": 121,
        "frameRates": 60
      },
      {
        "trial_number": 24,
        "trial_index": 172,
        "rt": 1067,
        "correct": false,
        "response": "ArrowRight",
        "congruent": false,
        "gazeTowards": true,
        "gazeCondition": "towards",
        "faceOnLeft": true,
        "impliedDirection": 0,
        "testDirection": 180,
        "avgFps": 60,
        "minFps": 60,
        "maxFps": 66,
        "totalFrames": 64,
        "frameRates": 60
      },
      {
        "trial_number": 25,
        "trial_index": 177,
        "rt": 1458,
        "correct": false,
        "response": "ArrowRight",
        "congruent": false,
        "gazeTowards": true,
        "gazeCondition": "towards",
        "faceOnLeft": true,
        "impliedDirection": 0,
        "testDirection": 180,
        "avgFps": 60,
        "minFps": 60,
        "maxFps": 66,
        "totalFrames": 88,
        "frameRates": 60
      },
      {
        "trial_number": 26,
        "trial_index": 182,
        "rt": 1434,
        "correct": true,
        "response": "ArrowLeft",
        "congruent": true,
        "gazeTowards": false,
        "gazeCondition": "away",
        "faceOnLeft": false,
        "impliedDirection": 180,
        "testDirection": 180,
        "avgFps": 60,
        "minFps": 60,
        "maxFps": 72,
        "totalFrames": 86,
        "frameRates": 60
      },
      {
        "trial_number": 27,
        "trial_index": 187,
        "rt": 789,
        "correct": false,
        "response": "ArrowRight",
        "congruent": false,
        "gazeTowards": false,
        "gazeCondition": "away",
        "faceOnLeft": true,
        "impliedDirection": 0,
        "testDirection": 180,
        "avgFps": 60,
        "minFps": 60,
        "maxFps": 73,
        "totalFrames": 48,
        "frameRates": 60
      },
      {
        "trial_number": 28,
        "trial_index": 192,
        "rt": 893,
        "correct": true,
        "response": "ArrowRight",
        "congruent": true,
        "gazeTowards": true,
        "gazeCondition": "towards",
        "faceOnLeft": true,
        "impliedDirection": 0,
        "testDirection": 0,
        "avgFps": 60,
        "minFps": 60,
        "maxFps": 72,
        "totalFrames": 53,
        "frameRates": 60
      },
      {
        "trial_number": 29,
        "trial_index": 197,
        "rt": 996,
        "correct": true,
        "response": "ArrowRight",
        "congruent": false,
        "gazeTowards": true,
        "gazeCondition": "towards",
        "faceOnLeft": false,
        "impliedDirection": 180,
        "testDirection": 0,
        "avgFps": 60,
        "minFps": 52,
        "maxFps": 70,
        "totalFrames": 60,
        "frameRates": 60
      },
      {
        "trial_number": 30,
        "trial_index": 205,
        "rt": 890,
        "correct": false,
        "response": "ArrowRight",
        "congruent": false,
        "gazeTowards": false,
        "gazeCondition": "away",
        "faceOnLeft": true,
        "impliedDirection": 0,
        "testDirection": 180,
        "avgFps": 60,
        "minFps": 56,
        "maxFps": 65,
        "totalFrames": 53,
        "frameRates": 60
      },
      {
        "trial_number": 31,
        "trial_index": 211,
        "rt": 729,
        "correct": true,
        "response": "ArrowRight",
        "congruent": false,
        "gazeTowards": true,
        "gazeCondition": "towards",
        "faceOnLeft": false,
        "impliedDirection": 180,
        "testDirection": 0,
        "avgFps": 60,
        "minFps": 58,
        "maxFps": 73,
        "totalFrames": 44,
        "frameRates": 60
      },
      {
        "trial_number": 32,
        "trial_index": 216,
        "rt": 1534,
        "correct": true,
        "response": "ArrowLeft",
        "congruent": true,
        "gazeTowards": true,
        "gazeCondition": "towards",
        "faceOnLeft": false,
        "impliedDirection": 180,
        "testDirection": 180,
        "avgFps": 59,
        "minFps": 30,
        "maxFps": 65,
        "totalFrames": 92,
        "frameRates": 59
      },
      {
        "trial_number": 33,
        "trial_index": 221,
        "rt": 1446,
        "correct": true,
        "response": "ArrowLeft",
        "congruent": true,
        "gazeTowards": false,
        "gazeCondition": "away",
        "faceOnLeft": false,
        "impliedDirection": 180,
        "testDirection": 180,
        "avgFps": 60,
        "minFps": 58,
        "maxFps": 66,
        "totalFrames": 87,
        "frameRates": 60
      },
      {
        "trial_number": 34,
        "trial_index": 226,
        "rt": 1709,
        "correct": true,
        "response": "ArrowRight",
        "congruent": false,
        "gazeTowards": false,
        "gazeCondition": "away",
        "faceOnLeft": false,
        "impliedDirection": 180,
        "testDirection": 0,
        "avgFps": 60,
        "minFps": 58,
        "maxFps": 72,
        "totalFrames": 103,
        "frameRates": 60
      },
      {
        "trial_number": 35,
        "trial_index": 231,
        "rt": 1414,
        "correct": true,
        "response": "ArrowRight",
        "congruent": false,
        "gazeTowards": false,
        "gazeCondition": "away",
        "faceOnLeft": false,
        "impliedDirection": 180,
        "testDirection": 0,
        "avgFps": 60,
        "minFps": 58,
        "maxFps": 71,
        "totalFrames": 85,
        "frameRates": 60
      },
      {
        "trial_number": 36,
        "trial_index": 236,
        "rt": 1621,
        "correct": true,
        "response": "ArrowLeft",
        "congruent": false,
        "gazeTowards": true,
        "gazeCondition": "towards",
        "faceOnLeft": true,
        "impliedDirection": 0,
        "testDirection": 180,
        "avgFps": 60,
        "minFps": 58,
        "maxFps": 72,
        "totalFrames": 98,
        "frameRates": 60
      },
      {
        "trial_number": 37,
        "trial_index": 241,
        "rt": 1950,
        "correct": false,
        "response": "ArrowRight",
        "congruent": true,
        "gazeTowards": true,
        "gazeCondition": "towards",
        "faceOnLeft": false,
        "impliedDirection": 180,
        "testDirection": 180,
        "avgFps": 60,
        "minFps": 58,
        "maxFps": 66,
        "totalFrames": 117,
        "frameRates": 60
      },
      {
        "trial_number": 38,
        "trial_index": 246,
        "rt": 911,
        "correct": false,
        "response": "ArrowRight",
        "congruent": true,
        "gazeTowards": true,
        "gazeCondition": "towards",
        "faceOnLeft": false,
        "impliedDirection": 180,
        "testDirection": 180,
        "avgFps": 60,
        "minFps": 58,
        "maxFps": 73,
        "totalFrames": 54,
        "frameRates": 60
      },
      {
        "trial_number": 39,
        "trial_index": 251,
        "rt": 1398,
        "correct": true,
        "response": "ArrowRight",
        "congruent": false,
        "gazeTowards": false,
        "gazeCondition": "away",
        "faceOnLeft": false,
        "impliedDirection": 180,
        "testDirection": 0,
        "avgFps": 60,
        "minFps": 58,
        "maxFps": 72,
        "totalFrames": 84,
        "frameRates": 60
      },
      {
        "trial_number": 40,
        "trial_index": 259,
        "rt": 1263,
        "correct": false,
        "response": "ArrowLeft",
        "congruent": true,
        "gazeTowards": false,
        "gazeCondition": "away",
        "faceOnLeft": true,
        "impliedDirection": 0,
        "testDirection": 0,
        "avgFps": 61,
        "minFps": 58,
        "maxFps": null,
        "totalFrames": 76,
        "frameRates": 61
      },
      {
        "trial_number": 41,
        "trial_index": 264,
        "rt": 1609,
        "correct": true,
        "response": "ArrowLeft",
        "congruent": false,
        "gazeTowards": false,
        "gazeCondition": "away",
        "faceOnLeft": true,
        "impliedDirection": 0,
        "testDirection": 180,
        "avgFps": 60,
        "minFps": 58,
        "maxFps": 79,
        "totalFrames": 97,
        "frameRates": 60
      },
      {
        "trial_number": 42,
        "trial_index": 269,
        "rt": 1141,
        "correct": false,
        "response": "ArrowLeft",
        "congruent": true,
        "gazeTowards": false,
        "gazeCondition": "away",
        "faceOnLeft": true,
        "impliedDirection": 0,
        "testDirection": 0,
        "avgFps": 60,
        "minFps": 60,
        "maxFps": 66,
        "totalFrames": 69,
        "frameRates": 60
      },
      {
        "trial_number": 43,
        "trial_index": 274,
        "rt": 1133,
        "correct": true,
        "response": "ArrowRight",
        "congruent": true,
        "gazeTowards": false,
        "gazeCondition": "away",
        "faceOnLeft": true,
        "impliedDirection": 0,
        "testDirection": 0,
        "avgFps": 60,
        "minFps": 59,
        "maxFps": 66,
        "totalFrames": 68,
        "frameRates": 60
      },
      {
        "trial_number": 44,
        "trial_index": 279,
        "rt": 1938,
        "correct": false,
        "response": "ArrowRight",
        "congruent": true,
        "gazeTowards": false,
        "gazeCondition": "away",
        "faceOnLeft": false,
        "impliedDirection": 180,
        "testDirection": 180,
        "avgFps": 60,
        "minFps": 60,
        "maxFps": 65,
        "totalFrames": 116,
        "frameRates": 60
      },
      {
        "trial_number": 45,
        "trial_index": 284,
        "rt": 1199,
        "correct": true,
        "response": "ArrowLeft",
        "congruent": false,
        "gazeTowards": false,
        "gazeCondition": "away",
        "faceOnLeft": true,
        "impliedDirection": 0,
        "testDirection": 180,
        "avgFps": 60,
        "minFps": 58,
        "maxFps": 73,
        "totalFrames": 72,
        "frameRates": 60
      },
      {
        "trial_number": 46,
        "trial_index": 289,
        "rt": null,
        "correct": false,
        "response": null,
        "congruent": false,
        "gazeTowards": true,
        "gazeCondition": "towards",
        "faceOnLeft": false,
        "impliedDirection": 180,
        "testDirection": 0,
        "avgFps": 60,
        "minFps": 33,
        "maxFps": 62,
        "totalFrames": 120,
        "frameRates": 60
      },
      {
        "trial_number": 47,
        "trial_index": 294,
        "rt": 1845,
        "correct": true,
        "response": "ArrowLeft",
        "congruent": true,
        "gazeTowards": false,
        "gazeCondition": "away",
        "faceOnLeft": false,
        "impliedDirection": 180,
        "testDirection": 180,
        "avgFps": 60,
        "minFps": 58,
        "maxFps": 71,
        "totalFrames": 111,
        "frameRates": 60
      },
      {
        "trial_number": 48,
        "trial_index": 302,
        "rt": null,
        "correct": false,
        "response": null,
        "congruent": true,
        "gazeTowards": true,
        "gazeCondition": "towards",
        "faceOnLeft": true,
        "impliedDirection": 0,
        "testDirection": 0,
        "avgFps": 60,
        "minFps": 58,
        "maxFps": 64,
        "totalFrames": 120,
        "frameRates": 60
      },
      {
        "trial_number": 49,
        "trial_index": 310,
        "rt": 1119,
        "correct": true,
        "response": "ArrowRight",
        "congruent": true,
        "gazeTowards": true,
        "gazeCondition": "towards",
        "faceOnLeft": true,
        "impliedDirection": 0,
        "testDirection": 0,
        "avgFps": 60,
        "minFps": 58,
        "maxFps": 65,
        "totalFrames": 67,
        "frameRates": 60
      },
      {
        "trial_number": 50,
        "trial_index": 315,
        "rt": 734,
        "correct": true,
        "response": "ArrowLeft",
        "congruent": false,
        "gazeTowards": true,
        "gazeCondition": "towards",
        "faceOnLeft": true,
        "impliedDirection": 0,
        "testDirection": 180,
        "avgFps": 60,
        "minFps": 58,
        "maxFps": 66,
        "totalFrames": 44,
        "frameRates": 60
      },
      {
        "trial_number": 51,
        "trial_index": 320,
        "rt": 890,
        "correct": false,
        "response": "ArrowLeft",
        "congruent": true,
        "gazeTowards": false,
        "gazeCondition": "away",
        "faceOnLeft": true,
        "impliedDirection": 0,
        "testDirection": 0,
        "avgFps": 60,
        "minFps": 58,
        "maxFps": 68,
        "totalFrames": 53,
        "frameRates": 60
      },
      {
        "trial_number": 52,
        "trial_index": 325,
        "rt": 980,
        "correct": true,
        "response": "ArrowRight",
        "congruent": false,
        "gazeTowards": false,
        "gazeCondition": "away",
        "faceOnLeft": false,
        "impliedDirection": 180,
        "testDirection": 0,
        "avgFps": 60,
        "minFps": 59,
        "maxFps": 72,
        "totalFrames": 59,
        "frameRates": 60
      },
      {
        "trial_number": 53,
        "trial_index": 330,
        "rt": 1474,
        "correct": false,
        "response": "ArrowRight",
        "congruent": false,
        "gazeTowards": false,
        "gazeCondition": "away",
        "faceOnLeft": true,
        "impliedDirection": 0,
        "testDirection": 180,
        "avgFps": 60,
        "minFps": 58,
        "maxFps": 69,
        "totalFrames": 88,
        "frameRates": 60
      },
      {
        "trial_number": 54,
        "trial_index": 335,
        "rt": 849,
        "correct": false,
        "response": "ArrowRight",
        "congruent": true,
        "gazeTowards": true,
        "gazeCondition": "towards",
        "faceOnLeft": false,
        "impliedDirection": 180,
        "testDirection": 180,
        "avgFps": 60,
        "minFps": 58,
        "maxFps": 73,
        "totalFrames": 51,
        "frameRates": 60
      },
      {
        "trial_number": 55,
        "trial_index": 340,
        "rt": 814,
        "correct": false,
        "response": "ArrowLeft",
        "congruent": true,
        "gazeTowards": true,
        "gazeCondition": "towards",
        "faceOnLeft": true,
        "impliedDirection": 0,
        "testDirection": 0,
        "avgFps": 60,
        "minFps": 59,
        "maxFps": 66,
        "totalFrames": 49,
        "frameRates": 60
      },
      {
        "trial_number": 56,
        "trial_index": 345,
        "rt": null,
        "correct": false,
        "response": null,
        "congruent": false,
        "gazeTowards": false,
        "gazeCondition": "away",
        "faceOnLeft": true,
        "impliedDirection": 0,
        "testDirection": 180,
        "avgFps": 60,
        "minFps": 58,
        "maxFps": 65,
        "totalFrames": 121,
        "frameRates": 60
      },
      {
        "trial_number": 57,
        "trial_index": 350,
        "rt": 1106,
        "correct": true,
        "response": "ArrowLeft",
        "congruent": true,
        "gazeTowards": true,
        "gazeCondition": "towards",
        "faceOnLeft": false,
        "impliedDirection": 180,
        "testDirection": 180,
        "avgFps": 60,
        "minFps": 58,
        "maxFps": 66,
        "totalFrames": 67,
        "frameRates": 60
      },
      {
        "trial_number": 58,
        "trial_index": 355,
        "rt": 1041,
        "correct": true,
        "response": "ArrowLeft",
        "congruent": false,
        "gazeTowards": true,
        "gazeCondition": "towards",
        "faceOnLeft": true,
        "impliedDirection": 0,
        "testDirection": 180,
        "avgFps": 60,
        "minFps": 59,
        "maxFps": 73,
        "totalFrames": 62,
        "frameRates": 60
      },
      {
        "trial_number": 59,
        "trial_index": 360,
        "rt": 1347,
        "correct": true,
        "response": "ArrowLeft",
        "congruent": true,
        "gazeTowards": false,
        "gazeCondition": "away",
        "faceOnLeft": false,
        "impliedDirection": 180,
        "testDirection": 180,
        "avgFps": 60,
        "minFps": 58,
        "maxFps": 67,
        "totalFrames": 80,
        "frameRates": 60
      },
      {
        "trial_number": 60,
        "trial_index": 365,
        "rt": 1472,
        "correct": true,
        "response": "ArrowRight",
        "congruent": false,
        "gazeTowards": false,
        "gazeCondition": "away",
        "faceOnLeft": false,
        "impliedDirection": 180,
        "testDirection": 0,
        "avgFps": 60,
        "minFps": 57,
        "maxFps": 74,
        "totalFrames": 89,
        "frameRates": 60
      },
      {
        "trial_number": 61,
        "trial_index": 371,
        "rt": 1082,
        "correct": true,
        "response": "ArrowRight",
        "congruent": false,
        "gazeTowards": true,
        "gazeCondition": "towards",
        "faceOnLeft": false,
        "impliedDirection": 180,
        "testDirection": 0,
        "avgFps": 60,
        "minFps": 58,
        "maxFps": 63,
        "totalFrames": 63,
        "frameRates": 60
      },
      {
        "trial_number": 62,
        "trial_index": 379,
        "rt": 1112,
        "correct": true,
        "response": "ArrowLeft",
        "congruent": true,
        "gazeTowards": true,
        "gazeCondition": "towards",
        "faceOnLeft": false,
        "impliedDirection": 180,
        "testDirection": 180,
        "avgFps": 60,
        "minFps": 58,
        "maxFps": 73,
        "totalFrames": 67,
        "frameRates": 60
      },
      {
        "trial_number": 63,
        "trial_index": 387,
        "rt": 956,
        "correct": false,
        "response": "ArrowLeft",
        "congruent": true,
        "gazeTowards": false,
        "gazeCondition": "away",
        "faceOnLeft": true,
        "impliedDirection": 0,
        "testDirection": 0,
        "avgFps": 60,
        "minFps": 58,
        "maxFps": 72,
        "totalFrames": 57,
        "frameRates": 60
      },
      {
        "trial_number": 64,
        "trial_index": 392,
        "rt": 1176,
        "correct": true,
        "response": "ArrowRight",
        "congruent": true,
        "gazeTowards": true,
        "gazeCondition": "towards",
        "faceOnLeft": true,
        "impliedDirection": 0,
        "testDirection": 0,
        "avgFps": 60,
        "minFps": 58,
        "maxFps": 65,
        "totalFrames": 71,
        "frameRates": 60
      },
      {
        "trial_number": 65,
        "trial_index": 397,
        "rt": 1102,
        "correct": true,
        "response": "ArrowLeft",
        "congruent": false,
        "gazeTowards": true,
        "gazeCondition": "towards",
        "faceOnLeft": true,
        "impliedDirection": 0,
        "testDirection": 180,
        "avgFps": 60,
        "minFps": 58,
        "maxFps": 73,
        "totalFrames": 66,
        "frameRates": 60
      },
      {
        "trial_number": 66,
        "trial_index": 402,
        "rt": 1094,
        "correct": true,
        "response": "ArrowLeft",
        "congruent": true,
        "gazeTowards": true,
        "gazeCondition": "towards",
        "faceOnLeft": false,
        "impliedDirection": 180,
        "testDirection": 180,
        "avgFps": 60,
        "minFps": 58,
        "maxFps": 72,
        "totalFrames": 65,
        "frameRates": 60
      },
      {
        "trial_number": 67,
        "trial_index": 410,
        "rt": 778,
        "correct": true,
        "response": "ArrowLeft",
        "congruent": false,
        "gazeTowards": false,
        "gazeCondition": "away",
        "faceOnLeft": true,
        "impliedDirection": 0,
        "testDirection": 180,
        "avgFps": 60,
        "minFps": 58,
        "maxFps": 72,
        "totalFrames": 47,
        "frameRates": 60
      },
      {
        "trial_number": 68,
        "trial_index": 418,
        "rt": 1078,
        "correct": true,
        "response": "ArrowLeft",
        "congruent": false,
        "gazeTowards": false,
        "gazeCondition": "away",
        "faceOnLeft": true,
        "impliedDirection": 0,
        "testDirection": 180,
        "avgFps": 60,
        "minFps": 58,
        "maxFps": 73,
        "totalFrames": 64,
        "frameRates": 60
      },
      {
        "trial_number": 69,
        "trial_index": 423,
        "rt": 1039,
        "correct": true,
        "response": "ArrowRight",
        "congruent": false,
        "gazeTowards": false,
        "gazeCondition": "away",
        "faceOnLeft": false,
        "impliedDirection": 180,
        "testDirection": 0,
        "avgFps": 60,
        "minFps": 58,
        "maxFps": 66,
        "totalFrames": 63,
        "frameRates": 60
      },
      {
        "trial_number": 70,
        "trial_index": 428,
        "rt": 1141,
        "correct": true,
        "response": "ArrowRight",
        "congruent": true,
        "gazeTowards": false,
        "gazeCondition": "away",
        "faceOnLeft": true,
        "impliedDirection": 0,
        "testDirection": 0,
        "avgFps": 60,
        "minFps": 58,
        "maxFps": 82,
        "totalFrames": 68,
        "frameRates": 60
      },
      {
        "trial_number": 71,
        "trial_index": 433,
        "rt": 1173,
        "correct": false,
        "response": "ArrowRight",
        "congruent": true,
        "gazeTowards": true,
        "gazeCondition": "towards",
        "faceOnLeft": false,
        "impliedDirection": 180,
        "testDirection": 180,
        "avgFps": 60,
        "minFps": 58,
        "maxFps": 72,
        "totalFrames": 70,
        "frameRates": 60
      },
      {
        "trial_number": 72,
        "trial_index": 438,
        "rt": 1499,
        "correct": false,
        "response": "ArrowLeft",
        "congruent": false,
        "gazeTowards": false,
        "gazeCondition": "away",
        "faceOnLeft": false,
        "impliedDirection": 180,
        "testDirection": 0,
        "avgFps": 60,
        "minFps": 58,
        "maxFps": 72,
        "totalFrames": 90,
        "frameRates": 60
      },
      {
        "trial_number": 73,
        "trial_index": 443,
        "rt": 1171,
        "correct": true,
        "response": "ArrowLeft",
        "congruent": false,
        "gazeTowards": true,
        "gazeCondition": "towards",
        "faceOnLeft": true,
        "impliedDirection": 0,
        "testDirection": 180,
        "avgFps": 60,
        "minFps": 59,
        "maxFps": 72,
        "totalFrames": 71,
        "frameRates": 60
      },
      {
        "trial_number": 74,
        "trial_index": 448,
        "rt": 1221,
        "correct": true,
        "response": "ArrowRight",
        "congruent": false,
        "gazeTowards": true,
        "gazeCondition": "towards",
        "faceOnLeft": false,
        "impliedDirection": 180,
        "testDirection": 0,
        "avgFps": 60,
        "minFps": 58,
        "maxFps": 72,
        "totalFrames": 73,
        "frameRates": 60
      },
      {
        "trial_number": 75,
        "trial_index": 453,
        "rt": 1423,
        "correct": false,
        "response": "ArrowRight",
        "congruent": true,
        "gazeTowards": true,
        "gazeCondition": "towards",
        "faceOnLeft": false,
        "impliedDirection": 180,
        "testDirection": 180,
        "avgFps": 60,
        "minFps": 58,
        "maxFps": 73,
        "totalFrames": 85,
        "frameRates": 60
      },
      {
        "trial_number": 76,
        "trial_index": 458,
        "rt": 1217,
        "correct": false,
        "response": "ArrowRight",
        "congruent": true,
        "gazeTowards": false,
        "gazeCondition": "away",
        "faceOnLeft": false,
        "impliedDirection": 180,
        "testDirection": 180,
        "avgFps": 60,
        "minFps": 59,
        "maxFps": 62,
        "totalFrames": 72,
        "frameRates": 60
      },
      {
        "trial_number": 77,
        "trial_index": 463,
        "rt": null,
        "correct": false,
        "response": null,
        "congruent": true,
        "gazeTowards": false,
        "gazeCondition": "away",
        "faceOnLeft": false,
        "impliedDirection": 180,
        "testDirection": 180,
        "avgFps": 60,
        "minFps": 58,
        "maxFps": 79,
        "totalFrames": 121,
        "frameRates": 60
      },
      {
        "trial_number": 78,
        "trial_index": 468,
        "rt": 765,
        "correct": true,
        "response": "ArrowRight",
        "congruent": false,
        "gazeTowards": true,
        "gazeCondition": "towards",
        "faceOnLeft": false,
        "impliedDirection": 180,
        "testDirection": 0,
        "avgFps": 60,
        "minFps": 58,
        "maxFps": 67,
        "totalFrames": 45,
        "frameRates": 60
      },
      {
        "trial_number": 79,
        "trial_index": 473,
        "rt": 793,
        "correct": true,
        "response": "ArrowLeft",
        "congruent": true,
        "gazeTowards": false,
        "gazeCondition": "away",
        "faceOnLeft": false,
        "impliedDirection": 180,
        "testDirection": 180,
        "avgFps": 60,
        "minFps": 59,
        "maxFps": 78,
        "totalFrames": 48,
        "frameRates": 60
      },
      {
        "trial_number": 80,
        "trial_index": 478,
        "rt": 1280,
        "correct": true,
        "response": "ArrowRight",
        "congruent": false,
        "gazeTowards": true,
        "gazeCondition": "towards",
        "faceOnLeft": false,
        "impliedDirection": 180,
        "testDirection": 0,
        "avgFps": 61,
        "minFps": 58,
        "maxFps": null,
        "totalFrames": 77,
        "frameRates": 61
      },
      {
        "trial_number": 81,
        "trial_index": 483,
        "rt": 823,
        "correct": true,
        "response": "ArrowLeft",
        "congruent": true,
        "gazeTowards": false,
        "gazeCondition": "away",
        "faceOnLeft": false,
        "impliedDirection": 180,
        "testDirection": 180,
        "avgFps": 59,
        "minFps": 31,
        "maxFps": 66,
        "totalFrames": 49,
        "frameRates": 59
      },
      {
        "trial_number": 82,
        "trial_index": 491,
        "rt": 652,
        "correct": true,
        "response": "ArrowLeft",
        "congruent": true,
        "gazeTowards": true,
        "gazeCondition": "towards",
        "faceOnLeft": false,
        "impliedDirection": 180,
        "testDirection": 180,
        "avgFps": 60,
        "minFps": 58,
        "maxFps": 65,
        "totalFrames": 39,
        "frameRates": 60
      },
      {
        "trial_number": 83,
        "trial_index": 496,
        "rt": 935,
        "correct": true,
        "response": "ArrowLeft",
        "congruent": false,
        "gazeTowards": true,
        "gazeCondition": "towards",
        "faceOnLeft": true,
        "impliedDirection": 0,
        "testDirection": 180,
        "avgFps": 60,
        "minFps": 58,
        "maxFps": 73,
        "totalFrames": 56,
        "frameRates": 60
      },
      {
        "trial_number": 84,
        "trial_index": 501,
        "rt": 803,
        "correct": true,
        "response": "ArrowRight",
        "congruent": false,
        "gazeTowards": false,
        "gazeCondition": "away",
        "faceOnLeft": false,
        "impliedDirection": 180,
        "testDirection": 0,
        "avgFps": 60,
        "minFps": 58,
        "maxFps": 66,
        "totalFrames": 48,
        "frameRates": 60
      },
      {
        "trial_number": 85,
        "trial_index": 506,
        "rt": 850,
        "correct": true,
        "response": "ArrowRight",
        "congruent": true,
        "gazeTowards": true,
        "gazeCondition": "towards",
        "faceOnLeft": true,
        "impliedDirection": 0,
        "testDirection": 0,
        "avgFps": 60,
        "minFps": 58,
        "maxFps": 72,
        "totalFrames": 51,
        "frameRates": 60
      },
      {
        "trial_number": 86,
        "trial_index": 511,
        "rt": 809,
        "correct": true,
        "response": "ArrowLeft",
        "congruent": true,
        "gazeTowards": true,
        "gazeCondition": "towards",
        "faceOnLeft": false,
        "impliedDirection": 180,
        "testDirection": 180,
        "avgFps": 60,
        "minFps": 58,
        "maxFps": 76,
        "totalFrames": 49,
        "frameRates": 60
      },
      {
        "trial_number": 87,
        "trial_index": 516,
        "rt": 1130,
        "correct": false,
        "response": "ArrowRight",
        "congruent": true,
        "gazeTowards": false,
        "gazeCondition": "away",
        "faceOnLeft": false,
        "impliedDirection": 180,
        "testDirection": 180,
        "avgFps": 60,
        "minFps": 58,
        "maxFps": 72,
        "totalFrames": 68,
        "frameRates": 60
      },
      {
        "trial_number": 88,
        "trial_index": 521,
        "rt": 1571,
        "correct": false,
        "response": "ArrowRight",
        "congruent": false,
        "gazeTowards": false,
        "gazeCondition": "away",
        "faceOnLeft": true,
        "impliedDirection": 0,
        "testDirection": 180,
        "avgFps": 60,
        "minFps": 58,
        "maxFps": 73,
        "totalFrames": 95,
        "frameRates": 60
      },
      {
        "trial_number": 89,
        "trial_index": 527,
        "rt": 865,
        "correct": true,
        "response": "ArrowRight",
        "congruent": false,
        "gazeTowards": true,
        "gazeCondition": "towards",
        "faceOnLeft": false,
        "impliedDirection": 180,
        "testDirection": 0,
        "avgFps": 60,
        "minFps": 58,
        "maxFps": 72,
        "totalFrames": 52,
        "frameRates": 60
      },
      {
        "trial_number": 90,
        "trial_index": 532,
        "rt": 1031,
        "correct": true,
        "response": "ArrowLeft",
        "congruent": false,
        "gazeTowards": true,
        "gazeCondition": "towards",
        "faceOnLeft": true,
        "impliedDirection": 0,
        "testDirection": 180,
        "avgFps": 60,
        "minFps": 59,
        "maxFps": 65,
        "totalFrames": 62,
        "frameRates": 60
      },
      {
        "trial_number": 91,
        "trial_index": 537,
        "rt": 963,
        "correct": true,
        "response": "ArrowLeft",
        "congruent": true,
        "gazeTowards": true,
        "gazeCondition": "towards",
        "faceOnLeft": false,
        "impliedDirection": 180,
        "testDirection": 180,
        "avgFps": 60,
        "minFps": 58,
        "maxFps": 67,
        "totalFrames": 57,
        "frameRates": 60
      },
      {
        "trial_number": 92,
        "trial_index": 542,
        "rt": 783,
        "correct": true,
        "response": "ArrowLeft",
        "congruent": false,
        "gazeTowards": true,
        "gazeCondition": "towards",
        "faceOnLeft": true,
        "impliedDirection": 0,
        "testDirection": 180,
        "avgFps": 60,
        "minFps": 58,
        "maxFps": 65,
        "totalFrames": 47,
        "frameRates": 60
      },
      {
        "trial_number": 93,
        "trial_index": 547,
        "rt": 889,
        "correct": true,
        "response": "ArrowLeft",
        "congruent": false,
        "gazeTowards": false,
        "gazeCondition": "away",
        "faceOnLeft": true,
        "impliedDirection": 0,
        "testDirection": 180,
        "avgFps": 60,
        "minFps": 58,
        "maxFps": 66,
        "totalFrames": 53,
        "frameRates": 60
      },
      {
        "trial_number": 94,
        "trial_index": 552,
        "rt": 748,
        "correct": true,
        "response": "ArrowLeft",
        "congruent": true,
        "gazeTowards": false,
        "gazeCondition": "away",
        "faceOnLeft": false,
        "impliedDirection": 180,
        "testDirection": 180,
        "avgFps": 60,
        "minFps": 58,
        "maxFps": 65,
        "totalFrames": 45,
        "frameRates": 60
      },
      {
        "trial_number": 95,
        "trial_index": 557,
        "rt": 1188,
        "correct": true,
        "response": "ArrowRight",
        "congruent": false,
        "gazeTowards": true,
        "gazeCondition": "towards",
        "faceOnLeft": false,
        "impliedDirection": 180,
        "testDirection": 0,
        "avgFps": 60,
        "minFps": 58,
        "maxFps": 66,
        "totalFrames": 71,
        "frameRates": 60
      },
      {
        "trial_number": 96,
        "trial_index": 562,
        "rt": 1345,
        "correct": false,
        "response": "ArrowLeft",
        "congruent": false,
        "gazeTowards": false,
        "gazeCondition": "away",
        "faceOnLeft": false,
        "impliedDirection": 180,
        "testDirection": 0,
        "avgFps": 60,
        "minFps": 59,
        "maxFps": 66,
        "totalFrames": 81,
        "frameRates": 60
      },
      {
        "trial_number": 97,
        "trial_index": 567,
        "rt": 953,
        "correct": true,
        "response": "ArrowRight",
        "congruent": false,
        "gazeTowards": false,
        "gazeCondition": "away",
        "faceOnLeft": false,
        "impliedDirection": 180,
        "testDirection": 0,
        "avgFps": 60,
        "minFps": 58,
        "maxFps": 73,
        "totalFrames": 57,
        "frameRates": 60
      },
      {
        "trial_number": 98,
        "trial_index": 572,
        "rt": 665,
        "correct": false,
        "response": "ArrowLeft",
        "congruent": true,
        "gazeTowards": false,
        "gazeCondition": "away",
        "faceOnLeft": true,
        "impliedDirection": 0,
        "testDirection": 0,
        "avgFps": 60,
        "minFps": 58,
        "maxFps": 67,
        "totalFrames": 40,
        "frameRates": 60
      },
      {
        "trial_number": 99,
        "trial_index": 577,
        "rt": 655,
        "correct": true,
        "response": "ArrowLeft",
        "congruent": false,
        "gazeTowards": true,
        "gazeCondition": "towards",
        "faceOnLeft": true,
        "impliedDirection": 0,
        "testDirection": 180,
        "avgFps": 60,
        "minFps": 58,
        "maxFps": 66,
        "totalFrames": 39,
        "frameRates": 60
      },
      {
        "trial_number": 100,
        "trial_index": 582,
        "rt": 868,
        "correct": false,
        "response": "ArrowLeft",
        "congruent": true,
        "gazeTowards": true,
        "gazeCondition": "towards",
        "faceOnLeft": true,
        "impliedDirection": 0,
        "testDirection": 0,
        "avgFps": 60,
        "minFps": 58,
        "maxFps": 72,
        "totalFrames": 52,
        "frameRates": 60
      },
      {
        "trial_number": 101,
        "trial_index": 587,
        "rt": 1184,
        "correct": false,
        "response": "ArrowLeft",
        "congruent": false,
        "gazeTowards": true,
        "gazeCondition": "towards",
        "faceOnLeft": false,
        "impliedDirection": 180,
        "testDirection": 0,
        "avgFps": 60,
        "minFps": 59,
        "maxFps": 73,
        "totalFrames": 71,
        "frameRates": 60
      },
      {
        "trial_number": 102,
        "trial_index": 592,
        "rt": 1790,
        "correct": true,
        "response": "ArrowLeft",
        "congruent": false,
        "gazeTowards": true,
        "gazeCondition": "towards",
        "faceOnLeft": true,
        "impliedDirection": 0,
        "testDirection": 180,
        "avgFps": 60,
        "minFps": 58,
        "maxFps": 65,
        "totalFrames": 107,
        "frameRates": 60
      },
      {
        "trial_number": 103,
        "trial_index": 597,
        "rt": 737,
        "correct": false,
        "response": "ArrowLeft",
        "congruent": false,
        "gazeTowards": false,
        "gazeCondition": "away",
        "faceOnLeft": false,
        "impliedDirection": 180,
        "testDirection": 0,
        "avgFps": 60,
        "minFps": 59,
        "maxFps": 64,
        "totalFrames": 44,
        "frameRates": 60
      },
      {
        "trial_number": 104,
        "trial_index": 602,
        "rt": 1121,
        "correct": true,
        "response": "ArrowRight",
        "congruent": false,
        "gazeTowards": false,
        "gazeCondition": "away",
        "faceOnLeft": false,
        "impliedDirection": 180,
        "testDirection": 0,
        "avgFps": 60,
        "minFps": 58,
        "maxFps": 72,
        "totalFrames": 67,
        "frameRates": 60
      },
      {
        "trial_number": 105,
        "trial_index": 607,
        "rt": 728,
        "correct": true,
        "response": "ArrowLeft",
        "congruent": true,
        "gazeTowards": false,
        "gazeCondition": "away",
        "faceOnLeft": false,
        "impliedDirection": 180,
        "testDirection": 180,
        "avgFps": 60,
        "minFps": 59,
        "maxFps": 73,
        "totalFrames": 44,
        "frameRates": 60
      },
      {
        "trial_number": 106,
        "trial_index": 612,
        "rt": 672,
        "correct": true,
        "response": "ArrowRight",
        "congruent": true,
        "gazeTowards": false,
        "gazeCondition": "away",
        "faceOnLeft": true,
        "impliedDirection": 0,
        "testDirection": 0,
        "avgFps": 60,
        "minFps": 58,
        "maxFps": 72,
        "totalFrames": 40,
        "frameRates": 60
      },
      {
        "trial_number": 107,
        "trial_index": 617,
        "rt": 657,
        "correct": true,
        "response": "ArrowLeft",
        "congruent": true,
        "gazeTowards": false,
        "gazeCondition": "away",
        "faceOnLeft": false,
        "impliedDirection": 180,
        "testDirection": 180,
        "avgFps": 60,
        "minFps": 58,
        "maxFps": 63,
        "totalFrames": 39,
        "frameRates": 60
      },
      {
        "trial_number": 108,
        "trial_index": 622,
        "rt": 968,
        "correct": false,
        "response": "ArrowRight",
        "congruent": true,
        "gazeTowards": false,
        "gazeCondition": "away",
        "faceOnLeft": false,
        "impliedDirection": 180,
        "testDirection": 180,
        "avgFps": 60,
        "minFps": 58,
        "maxFps": 66,
        "totalFrames": 58,
        "frameRates": 60
      },
      {
        "trial_number": 109,
        "trial_index": 627,
        "rt": null,
        "correct": false,
        "response": null,
        "congruent": false,
        "gazeTowards": true,
        "gazeCondition": "towards",
        "faceOnLeft": false,
        "impliedDirection": 180,
        "testDirection": 0,
        "avgFps": 60,
        "minFps": 59,
        "maxFps": 64,
        "totalFrames": 120,
        "frameRates": 60
      },
      {
        "trial_number": 110,
        "trial_index": 632,
        "rt": 861,
        "correct": true,
        "response": "ArrowLeft",
        "congruent": true,
        "gazeTowards": false,
        "gazeCondition": "away",
        "faceOnLeft": false,
        "impliedDirection": 180,
        "testDirection": 180,
        "avgFps": 60,
        "minFps": 59,
        "maxFps": 66,
        "totalFrames": 51,
        "frameRates": 60
      },
      {
        "trial_number": 111,
        "trial_index": 637,
        "rt": 1670,
        "correct": true,
        "response": "ArrowLeft",
        "congruent": false,
        "gazeTowards": true,
        "gazeCondition": "towards",
        "faceOnLeft": true,
        "impliedDirection": 0,
        "testDirection": 180,
        "avgFps": 60,
        "minFps": 58,
        "maxFps": 64,
        "totalFrames": 101,
        "frameRates": 60
      },
      {
        "trial_number": 112,
        "trial_index": 645,
        "rt": 787,
        "correct": true,
        "response": "ArrowRight",
        "congruent": true,
        "gazeTowards": false,
        "gazeCondition": "away",
        "faceOnLeft": true,
        "impliedDirection": 0,
        "testDirection": 0,
        "avgFps": 60,
        "minFps": 58,
        "maxFps": 66,
        "totalFrames": 48,
        "frameRates": 60
      },
      {
        "trial_number": 113,
        "trial_index": 650,
        "rt": 878,
        "correct": true,
        "response": "ArrowRight",
        "congruent": false,
        "gazeTowards": false,
        "gazeCondition": "away",
        "faceOnLeft": false,
        "impliedDirection": 180,
        "testDirection": 0,
        "avgFps": 60,
        "minFps": 58,
        "maxFps": 72,
        "totalFrames": 53,
        "frameRates": 60
      },
      {
        "trial_number": 114,
        "trial_index": 655,
        "rt": 848,
        "correct": true,
        "response": "ArrowLeft",
        "congruent": true,
        "gazeTowards": false,
        "gazeCondition": "away",
        "faceOnLeft": false,
        "impliedDirection": 180,
        "testDirection": 180,
        "avgFps": 60,
        "minFps": 59,
        "maxFps": 72,
        "totalFrames": 51,
        "frameRates": 60
      },
      {
        "trial_number": 115,
        "trial_index": 660,
        "rt": 840,
        "correct": true,
        "response": "ArrowRight",
        "congruent": true,
        "gazeTowards": false,
        "gazeCondition": "away",
        "faceOnLeft": true,
        "impliedDirection": 0,
        "testDirection": 0,
        "avgFps": 60,
        "minFps": 58,
        "maxFps": 72,
        "totalFrames": 51,
        "frameRates": 60
      },
      {
        "trial_number": 116,
        "trial_index": 665,
        "rt": 785,
        "correct": true,
        "response": "ArrowRight",
        "congruent": false,
        "gazeTowards": false,
        "gazeCondition": "away",
        "faceOnLeft": false,
        "impliedDirection": 180,
        "testDirection": 0,
        "avgFps": 60,
        "minFps": 59,
        "maxFps": 66,
        "totalFrames": 47,
        "frameRates": 60
      },
      {
        "trial_number": 117,
        "trial_index": 670,
        "rt": 748,
        "correct": true,
        "response": "ArrowLeft",
        "congruent": false,
        "gazeTowards": true,
        "gazeCondition": "towards",
        "faceOnLeft": true,
        "impliedDirection": 0,
        "testDirection": 180,
        "avgFps": 60,
        "minFps": 58,
        "maxFps": 82,
        "totalFrames": 45,
        "frameRates": 60
      },
      {
        "trial_number": 118,
        "trial_index": 678,
        "rt": 698,
        "correct": true,
        "response": "ArrowLeft",
        "congruent": true,
        "gazeTowards": true,
        "gazeCondition": "towards",
        "faceOnLeft": false,
        "impliedDirection": 180,
        "testDirection": 180,
        "avgFps": 60,
        "minFps": 58,
        "maxFps": 73,
        "totalFrames": 42,
        "frameRates": 60
      },
      {
        "trial_number": 119,
        "trial_index": 683,
        "rt": 975,
        "correct": true,
        "response": "ArrowRight",
        "congruent": true,
        "gazeTowards": true,
        "gazeCondition": "towards",
        "faceOnLeft": true,
        "impliedDirection": 0,
        "testDirection": 0,
        "avgFps": 60,
        "minFps": 58,
        "maxFps": 65,
        "totalFrames": 58,
        "frameRates": 60
      }
    ],
    "catch": {
      "total": 12,
      "correct": 11,
      "accuracy": 92,
      "meanRT": 970,
      "trials": [
        {
          "trial_number": 0,
          "trial_index": 153,
          "rt": 840,
          "correct": true,
          "colorTarget": "tree",
          "gazeTowards": false,
          "gazeCondition": "away",
          "faceOnLeft": true
        },
        {
          "trial_number": 1,
          "trial_index": 201,
          "rt": 1210,
          "correct": true,
          "colorTarget": "tree",
          "gazeTowards": true,
          "gazeCondition": "towards",
          "faceOnLeft": false
        },
        {
          "trial_number": 2,
          "trial_index": 255,
          "rt": 1199,
          "correct": true,
          "colorTarget": "face",
          "gazeTowards": false,
          "gazeCondition": "away",
          "faceOnLeft": false
        },
        {
          "trial_number": 3,
          "trial_index": 298,
          "rt": 1123,
          "correct": true,
          "colorTarget": "face",
          "gazeTowards": true,
          "gazeCondition": "towards",
          "faceOnLeft": true
        },
        {
          "trial_number": 4,
          "trial_index": 306,
          "rt": 903,
          "correct": true,
          "colorTarget": "face",
          "gazeTowards": false,
          "gazeCondition": "away",
          "faceOnLeft": true
        },
        {
          "trial_number": 5,
          "trial_index": 375,
          "rt": 1121,
          "correct": true,
          "colorTarget": "tree",
          "gazeTowards": false,
          "gazeCondition": "away",
          "faceOnLeft": false
        },
        {
          "trial_number": 6,
          "trial_index": 383,
          "rt": 846,
          "correct": true,
          "colorTarget": "face",
          "gazeTowards": false,
          "gazeCondition": "away",
          "faceOnLeft": true
        },
        {
          "trial_number": 7,
          "trial_index": 406,
          "rt": null,
          "correct": false,
          "colorTarget": "face",
          "gazeTowards": false,
          "gazeCondition": "away",
          "faceOnLeft": false
        },
        {
          "trial_number": 8,
          "trial_index": 414,
          "rt": 766,
          "correct": true,
          "colorTarget": "tree",
          "gazeTowards": true,
          "gazeCondition": "towards",
          "faceOnLeft": false
        },
        {
          "trial_number": 9,
          "trial_index": 487,
          "rt": 843,
          "correct": true,
          "colorTarget": "tree",
          "gazeTowards": true,
          "gazeCondition": "towards",
          "faceOnLeft": false
        },
        {
          "trial_number": 10,
          "trial_index": 641,
          "rt": 855,
          "correct": true,
          "colorTarget": "tree",
          "gazeTowards": false,
          "gazeCondition": "away",
          "faceOnLeft": false
        },
        {
          "trial_number": 11,
          "trial_index": 674,
          "rt": 959,
          "correct": true,
          "colorTarget": "face",
          "gazeTowards": true,
          "gazeCondition": "towards",
          "faceOnLeft": false
        }
      ]
    },
    "practice": {
      "trials": [
        {
          "trial_number": 0,
          "rt": 635,
          "correct": true,
          "direction": 0
        },
        {
          "trial_number": 1,
          "rt": null,
          "correct": false,
          "direction": 0
        },
        {
          "trial_number": 2,
          "rt": 696,
          "correct": true,
          "direction": 0
        },
        {
          "trial_number": 3,
          "rt": 426,
          "correct": false,
          "direction": 0
        },
        {
          "trial_number": 4,
          "rt": 682,
          "correct": true,
          "direction": 0
        },
        {
          "trial_number": 5,
          "rt": 641,
          "correct": true,
          "direction": 180
        },
        {
          "trial_number": 6,
          "rt": 905,
          "correct": true,
          "direction": 180
        },
        {
          "trial_number": 7,
          "rt": 1092,
          "correct": true,
          "direction": 0
        },
        {
          "trial_number": 8,
          "rt": 1271,
          "correct": true,
          "direction": 0
        },
        {
          "trial_number": 9,
          "rt": 1532,
          "correct": true,
          "direction": 180
        }
      ],
      "meanRT": 876,
      "accuracy": 80
    }
  }
}