{
  "experiment": "rdk-face-1",
  "UUID": "a3bb1fbf-b88e-4670-91e4-95d4aa58b2e8",
  "data": {
    "session": {
      "experiment_version": "1.8.6",
      "treatment": "faces_towards_away_catch",
      "file_version": "1.8.6",
      "totalTrials": 120,
      "totalTrialsIncludingCatch": 132,
      "conditions": {
        "gazeTowardsCount": 60,
        "gazeAwayCount": 60,
        "gazeTowardsAccuracy": 57,
        "gazeAwayAccuracy": 50
      },
      "session_group": "default",
      "browserData": {
        "os": "Windows",
        "browser": "Chrome",
        "screenResolution": "1280x720",
        "browserViewport": "1280x720",
        "devicePixelRatio": 1.5,
        "colorDepth": 32,
        "hardwareConcurrency": 4,
        "deviceMemory": 8,
        "gpuRenderer": "ANGLE (Microsoft, Microsoft Basic Render Driver (0x0000008C) Direct3D11 vs_5_0 ps_5_0, D3D11)",
        "measuredRefreshRateHz": 36
      },
      "attention": {
        "visibilityEvents": [
          {
            "event": "blur",
            "state": "blurred",
            "timestamp": 1772769220622
          },
          {
            "event": "focus",
            "state": "focused",
            "timestamp": 1772769222131
          },
          {
            "event": "blur",
            "state": "blurred",
            "timestamp": 1772769230013
          },
          {
            "event": "visibilitychange",
            "state": "hidden",
            "timestamp": 1772769230021
          },
          {
            "event": "visibilitychange",
            "state": "visible",
            "timestamp": 1772769233668
          },
          {
            "event": "focus",
            "state": "focused",
            "timestamp": 1772769233688
          }
        ]
      },
      "calibration": {
        "monitorWidthCm": 38,
        "viewingDistanceCm": 54,
        "pixelsPerDegree": 50
      },
      "parameters": {
        "coherence": 0.4,
        "apertureDeg": 5,
        "densityDotsPerDeg2": 40,
        "dotDiameterDeg": 0.035,
        "dotSpeedDegPerSec": 3,
        "lifetimeMs": 200,
        "fixationDurationMs": 1500,
        "faceDurationMs": 1500,
        "testDurationMs": 2000,
        "catchResponseMs": 3000
      },
      "prolific": {
        "prolificPid": "5996d2256b939900012d9f22",
        "studyId": "",
        "sessionId": ""
      },
      "timing": {
        "startTime": "2026-03-06T03:53:37.892Z",
        "endTime": "2026-03-06T04:08:40.945Z",
        "totalElapsedTimeMs": 903053
      }
    },
    "trials": [
      {
        "trial_number": 0,
        "trial_index": 55,
        "rt": 1150,
        "correct": false,
        "response": "ArrowRight",
        "congruent": true,
        "gazeTowards": false,
        "gazeCondition": "away",
        "faceOnLeft": false,
        "impliedDirection": 180,
        "testDirection": 180,
        "avgFps": 63,
        "minFps": 32,
        "maxFps": 65,
        "totalFrames": 72,
        "frameRates": 63
      },
      {
        "trial_number": 1,
        "trial_index": 60,
        "rt": 1319,
        "correct": false,
        "response": "ArrowRight",
        "congruent": false,
        "gazeTowards": false,
        "gazeCondition": "away",
        "faceOnLeft": true,
        "impliedDirection": 0,
        "testDirection": 180,
        "avgFps": 63,
        "minFps": 32,
        "maxFps": 65,
        "totalFrames": 83,
        "frameRates": 63
      },
      {
        "trial_number": 2,
        "trial_index": 65,
        "rt": 1473,
        "correct": false,
        "response": "ArrowRight",
        "congruent": true,
        "gazeTowards": false,
        "gazeCondition": "away",
        "faceOnLeft": false,
        "impliedDirection": 180,
        "testDirection": 180,
        "avgFps": 63,
        "minFps": 32,
        "maxFps": 69,
        "totalFrames": 92,
        "frameRates": 63
      },
      {
        "trial_number": 3,
        "trial_index": 70,
        "rt": 1474,
        "correct": false,
        "response": "ArrowRight",
        "congruent": true,
        "gazeTowards": false,
        "gazeCondition": "away",
        "faceOnLeft": false,
        "impliedDirection": 180,
        "testDirection": 180,
        "avgFps": 63,
        "minFps": 32,
        "maxFps": 65,
        "totalFrames": 93,
        "frameRates": 63
      },
      {
        "trial_number": 4,
        "trial_index": 75,
        "rt": 1995,
        "correct": false,
        "response": "ArrowRight",
        "congruent": true,
        "gazeTowards": true,
        "gazeCondition": "towards",
        "faceOnLeft": false,
        "impliedDirection": 180,
        "testDirection": 180,
        "avgFps": 62,
        "minFps": 32,
        "maxFps": 65,
        "totalFrames": 123,
        "frameRates": 62
      },
      {
        "trial_number": 5,
        "trial_index": 80,
        "rt": null,
        "correct": false,
        "response": null,
        "congruent": true,
        "gazeTowards": true,
        "gazeCondition": "towards",
        "faceOnLeft": true,
        "impliedDirection": 0,
        "testDirection": 0,
        "avgFps": 63,
        "minFps": 32,
        "maxFps": 73,
        "totalFrames": 126,
        "frameRates": 63
      },
      {
        "trial_number": 6,
        "trial_index": 85,
        "rt": 1822,
        "correct": false,
        "response": "ArrowLeft",
        "congruent": false,
        "gazeTowards": false,
        "gazeCondition": "away",
        "faceOnLeft": false,
        "impliedDirection": 180,
        "testDirection": 0,
        "avgFps": 63,
        "minFps": 32,
        "maxFps": 68,
        "totalFrames": 115,
        "frameRates": 63
      },
      {
        "trial_number": 7,
        "trial_index": 90,
        "rt": 1609,
        "correct": false,
        "response": "ArrowLeft",
        "congruent": false,
        "gazeTowards": true,
        "gazeCondition": "towards",
        "faceOnLeft": false,
        "impliedDirection": 180,
        "testDirection": 0,
        "avgFps": 63,
        "minFps": 32,
        "maxFps": 68,
        "totalFrames": 101,
        "frameRates": 63
      },
      {
        "trial_number": 8,
        "trial_index": 95,
        "rt": 1622,
        "correct": false,
        "response": "ArrowLeft",
        "congruent": false,
        "gazeTowards": false,
        "gazeCondition": "away",
        "faceOnLeft": false,
        "impliedDirection": 180,
        "testDirection": 0,
        "avgFps": 63,
        "minFps": 32,
        "maxFps": 65,
        "totalFrames": 102,
        "frameRates": 63
      },
      {
        "trial_number": 9,
        "trial_index": 100,
        "rt": null,
        "correct": false,
        "response": null,
        "congruent": false,
        "gazeTowards": false,
        "gazeCondition": "away",
        "faceOnLeft": false,
        "impliedDirection": 180,
        "testDirection": 0,
        "avgFps": 46,
        "minFps": 32,
        "maxFps": 69,
        "totalFrames": 92,
        "frameRates": 46
      },
      {
        "trial_number": 10,
        "trial_index": 105,
        "rt": 1314,
        "correct": false,
        "response": "ArrowRight",
        "congruent": false,
        "gazeTowards": true,
        "gazeCondition": "towards",
        "faceOnLeft": true,
        "impliedDirection": 0,
        "testDirection": 180,
        "avgFps": 62,
        "minFps": 32,
        "maxFps": 69,
        "totalFrames": 80,
        "frameRates": 62
      },
      {
        "trial_number": 11,
        "trial_index": 110,
        "rt": 1542,
        "correct": false,
        "response": "ArrowRight",
        "congruent": true,
        "gazeTowards": true,
        "gazeCondition": "towards",
        "faceOnLeft": false,
        "impliedDirection": 180,
        "testDirection": 180,
        "avgFps": 58,
        "minFps": 21,
        "maxFps": 65,
        "totalFrames": 88,
        "frameRates": 58
      },
      {
        "trial_number": 12,
        "trial_index": 115,
        "rt": 1232,
        "correct": true,
        "response": "ArrowLeft",
        "congruent": false,
        "gazeTowards": false,
        "gazeCondition": "away",
        "faceOnLeft": true,
        "impliedDirection": 0,
        "testDirection": 180,
        "avgFps": 64,
        "minFps": 63,
        "maxFps": 65,
        "totalFrames": 78,
        "frameRates": 64
      },
      {
        "trial_number": 13,
        "trial_index": 120,
        "rt": 1408,
        "correct": false,
        "response": "ArrowLeft",
        "congruent": true,
        "gazeTowards": true,
        "gazeCondition": "towards",
        "faceOnLeft": true,
        "impliedDirection": 0,
        "testDirection": 0,
        "avgFps": 63,
        "minFps": 32,
        "maxFps": 68,
        "totalFrames": 89,
        "frameRates": 63
      },
      {
        "trial_number": 14,
        "trial_index": 125,
        "rt": 1762,
        "correct": false,
        "response": "ArrowRight",
        "congruent": false,
        "gazeTowards": true,
        "gazeCondition": "towards",
        "faceOnLeft": true,
        "impliedDirection": 0,
        "testDirection": 180,
        "avgFps": 62,
        "minFps": 32,
        "maxFps": 68,
        "totalFrames": 110,
        "frameRates": 62
      },
      {
        "trial_number": 15,
        "trial_index": 130,
        "rt": null,
        "correct": false,
        "response": null,
        "congruent": true,
        "gazeTowards": true,
        "gazeCondition": "towards",
        "faceOnLeft": false,
        "impliedDirection": 180,
        "testDirection": 180,
        "avgFps": 63,
        "minFps": 32,
        "maxFps": 69,
        "totalFrames": 125,
        "frameRates": 63
      },
      {
        "trial_number": 16,
        "trial_index": 135,
        "rt": 1663,
        "correct": false,
        "response": "ArrowLeft",
        "congruent": true,
        "gazeTowards": false,
        "gazeCondition": "away",
        "faceOnLeft": true,
        "impliedDirection": 0,
        "testDirection": 0,
        "avgFps": 63,
        "minFps": 32,
        "maxFps": 69,
        "totalFrames": 104,
        "frameRates": 63
      },
      {
        "trial_number": 17,
        "trial_index": 140,
        "rt": 1473,
        "correct": true,
        "response": "ArrowLeft",
        "congruent": true,
        "gazeTowards": false,
        "gazeCondition": "away",
        "faceOnLeft": false,
        "impliedDirection": 180,
        "testDirection": 180,
        "avgFps": 63,
        "minFps": 32,
        "maxFps": 73,
        "totalFrames": 92,
        "frameRates": 63
      },
      {
        "trial_number": 18,
        "trial_index": 148,
        "rt": 1954,
        "correct": false,
        "response": "ArrowLeft",
        "congruent": false,
        "gazeTowards": false,
        "gazeCondition": "away",
        "faceOnLeft": false,
        "impliedDirection": 180,
        "testDirection": 0,
        "avgFps": 63,
        "minFps": 32,
        "maxFps": 65,
        "totalFrames": 122,
        "frameRates": 63
      },
      {
        "trial_number": 19,
        "trial_index": 156,
        "rt": 1915,
        "correct": false,
        "response": "ArrowLeft",
        "congruent": true,
        "gazeTowards": true,
        "gazeCondition": "towards",
        "faceOnLeft": true,
        "impliedDirection": 0,
        "testDirection": 0,
        "avgFps": 63,
        "minFps": 32,
        "maxFps": 73,
        "totalFrames": 121,
        "frameRates": 63
      },
      {
        "trial_number": 20,
        "trial_index": 161,
        "rt": 1555,
        "correct": false,
        "response": "ArrowRight",
        "congruent": true,
        "gazeTowards": true,
        "gazeCondition": "towards",
        "faceOnLeft": false,
        "impliedDirection": 180,
        "testDirection": 180,
        "avgFps": 61,
        "minFps": 32,
        "maxFps": 65,
        "totalFrames": 95,
        "frameRates": 61
      },
      {
        "trial_number": 21,
        "trial_index": 166,
        "rt": 1530,
        "correct": false,
        "response": "ArrowLeft",
        "congruent": true,
        "gazeTowards": true,
        "gazeCondition": "towards",
        "faceOnLeft": true,
        "impliedDirection": 0,
        "testDirection": 0,
        "avgFps": 63,
        "minFps": 32,
        "maxFps": 65,
        "totalFrames": 95,
        "frameRates": 63
      },
      {
        "trial_number": 22,
        "trial_index": 171,
        "rt": 1814,
        "correct": true,
        "response": "ArrowLeft",
        "congruent": false,
        "gazeTowards": true,
        "gazeCondition": "towards",
        "faceOnLeft": true,
        "impliedDirection": 0,
        "testDirection": 180,
        "avgFps": 46,
        "minFps": 32,
        "maxFps": 65,
        "totalFrames": 84,
        "frameRates": 46
      },
      {
        "trial_number": 23,
        "trial_index": 176,
        "rt": 1430,
        "correct": true,
        "response": "ArrowRight",
        "congruent": true,
        "gazeTowards": false,
        "gazeCondition": "away",
        "faceOnLeft": true,
        "impliedDirection": 0,
        "testDirection": 0,
        "avgFps": 63,
        "minFps": 32,
        "maxFps": 68,
        "totalFrames": 90,
        "frameRates": 63
      },
      {
        "trial_number": 24,
        "trial_index": 181,
        "rt": 1757,
        "correct": true,
        "response": "ArrowLeft",
        "congruent": false,
        "gazeTowards": true,
        "gazeCondition": "towards",
        "faceOnLeft": true,
        "impliedDirection": 0,
        "testDirection": 180,
        "avgFps": 64,
        "minFps": 63,
        "maxFps": 65,
        "totalFrames": 112,
        "frameRates": 64
      },
      {
        "trial_number": 25,
        "trial_index": 186,
        "rt": 1804,
        "correct": true,
        "response": "ArrowLeft",
        "congruent": true,
        "gazeTowards": false,
        "gazeCondition": "away",
        "faceOnLeft": false,
        "impliedDirection": 180,
        "testDirection": 180,
        "avgFps": 64,
        "minFps": 63,
        "maxFps": 154,
        "totalFrames": 115,
        "frameRates": 64
      },
      {
        "trial_number": 26,
        "trial_index": 194,
        "rt": null,
        "correct": false,
        "response": null,
        "congruent": true,
        "gazeTowards": false,
        "gazeCondition": "away",
        "faceOnLeft": true,
        "impliedDirection": 0,
        "testDirection": 0,
        "avgFps": 65,
        "minFps": 63,
        "maxFps": null,
        "totalFrames": 128,
        "frameRates": 65
      },
      {
        "trial_number": 27,
        "trial_index": 199,
        "rt": 1113,
        "correct": false,
        "response": "ArrowLeft",
        "congruent": false,
        "gazeTowards": false,
        "gazeCondition": "away",
        "faceOnLeft": false,
        "impliedDirection": 180,
        "testDirection": 0,
        "avgFps": 64,
        "minFps": 64,
        "maxFps": 65,
        "totalFrames": 71,
        "frameRates": 64
      },
      {
        "trial_number": 28,
        "trial_index": 205,
        "rt": 1136,
        "correct": false,
        "response": "ArrowLeft",
        "congruent": true,
        "gazeTowards": false,
        "gazeCondition": "away",
        "faceOnLeft": true,
        "impliedDirection": 0,
        "testDirection": 0,
        "avgFps": 50,
        "minFps": 32,
        "maxFps": 65,
        "totalFrames": 57,
        "frameRates": 50
      },
      {
        "trial_number": 29,
        "trial_index": 210,
        "rt": 1717,
        "correct": true,
        "response": "ArrowLeft",
        "congruent": true,
        "gazeTowards": false,
        "gazeCondition": "away",
        "faceOnLeft": false,
        "impliedDirection": 180,
        "testDirection": 180,
        "avgFps": 55,
        "minFps": 32,
        "maxFps": 69,
        "totalFrames": 94,
        "frameRates": 55
      },
      {
        "trial_number": 30,
        "trial_index": 215,
        "rt": 1232,
        "correct": true,
        "response": "ArrowLeft",
        "congruent": true,
        "gazeTowards": false,
        "gazeCondition": "away",
        "faceOnLeft": false,
        "impliedDirection": 180,
        "testDirection": 180,
        "avgFps": 64,
        "minFps": 64,
        "maxFps": 65,
        "totalFrames": 79,
        "frameRates": 64
      },
      {
        "trial_number": 31,
        "trial_index": 220,
        "rt": null,
        "correct": false,
        "response": null,
        "congruent": true,
        "gazeTowards": false,
        "gazeCondition": "away",
        "faceOnLeft": true,
        "impliedDirection": 0,
        "testDirection": 0,
        "avgFps": 63,
        "minFps": 32,
        "maxFps": 65,
        "totalFrames": 126,
        "frameRates": 63
      },
      {
        "trial_number": 32,
        "trial_index": 225,
        "rt": 1076,
        "correct": false,
        "response": "ArrowLeft",
        "congruent": false,
        "gazeTowards": false,
        "gazeCondition": "away",
        "faceOnLeft": false,
        "impliedDirection": 180,
        "testDirection": 0,
        "avgFps": 64,
        "minFps": 64,
        "maxFps": 69,
        "totalFrames": 68,
        "frameRates": 64
      },
      {
        "trial_number": 33,
        "trial_index": 230,
        "rt": 1319,
        "correct": false,
        "response": "ArrowRight",
        "congruent": false,
        "gazeTowards": true,
        "gazeCondition": "towards",
        "faceOnLeft": true,
        "impliedDirection": 0,
        "testDirection": 180,
        "avgFps": 63,
        "minFps": 32,
        "maxFps": 68,
        "totalFrames": 83,
        "frameRates": 63
      },
      {
        "trial_number": 34,
        "trial_index": 235,
        "rt": 1351,
        "correct": true,
        "response": "ArrowRight",
        "congruent": false,
        "gazeTowards": false,
        "gazeCondition": "away",
        "faceOnLeft": false,
        "impliedDirection": 180,
        "testDirection": 0,
        "avgFps": 63,
        "minFps": 32,
        "maxFps": 65,
        "totalFrames": 85,
        "frameRates": 63
      },
      {
        "trial_number": 35,
        "trial_index": 240,
        "rt": 1520,
        "correct": false,
        "response": "ArrowLeft",
        "congruent": true,
        "gazeTowards": false,
        "gazeCondition": "away",
        "faceOnLeft": true,
        "impliedDirection": 0,
        "testDirection": 0,
        "avgFps": 64,
        "minFps": 64,
        "maxFps": 121,
        "totalFrames": 97,
        "frameRates": 64
      },
      {
        "trial_number": 36,
        "trial_index": 245,
        "rt": 1371,
        "correct": false,
        "response": "ArrowLeft",
        "congruent": true,
        "gazeTowards": false,
        "gazeCondition": "away",
        "faceOnLeft": true,
        "impliedDirection": 0,
        "testDirection": 0,
        "avgFps": 64,
        "minFps": 64,
        "maxFps": 69,
        "totalFrames": 88,
        "frameRates": 64
      },
      {
        "trial_number": 37,
        "trial_index": 250,
        "rt": 1434,
        "correct": true,
        "response": "ArrowRight",
        "congruent": false,
        "gazeTowards": true,
        "gazeCondition": "towards",
        "faceOnLeft": false,
        "impliedDirection": 180,
        "testDirection": 0,
        "avgFps": 64,
        "minFps": 64,
        "maxFps": 65,
        "totalFrames": 91,
        "frameRates": 64
      },
      {
        "trial_number": 38,
        "trial_index": 255,
        "rt": 1471,
        "correct": false,
        "response": "ArrowLeft",
        "congruent": false,
        "gazeTowards": false,
        "gazeCondition": "away",
        "faceOnLeft": false,
        "impliedDirection": 180,
        "testDirection": 0,
        "avgFps": 60,
        "minFps": 32,
        "maxFps": 119,
        "totalFrames": 88,
        "frameRates": 60
      },
      {
        "trial_number": 39,
        "trial_index": 260,
        "rt": 1364,
        "correct": false,
        "response": "ArrowLeft",
        "congruent": false,
        "gazeTowards": true,
        "gazeCondition": "towards",
        "faceOnLeft": false,
        "impliedDirection": 180,
        "testDirection": 0,
        "avgFps": 63,
        "minFps": 32,
        "maxFps": 68,
        "totalFrames": 86,
        "frameRates": 63
      },
      {
        "trial_number": 40,
        "trial_index": 265,
        "rt": 1152,
        "correct": true,
        "response": "ArrowLeft",
        "congruent": true,
        "gazeTowards": true,
        "gazeCondition": "towards",
        "faceOnLeft": false,
        "impliedDirection": 180,
        "testDirection": 180,
        "avgFps": 58,
        "minFps": 32,
        "maxFps": 94,
        "totalFrames": 67,
        "frameRates": 58
      },
      {
        "trial_number": 41,
        "trial_index": 270,
        "rt": 1076,
        "correct": false,
        "response": "ArrowLeft",
        "congruent": false,
        "gazeTowards": false,
        "gazeCondition": "away",
        "faceOnLeft": false,
        "impliedDirection": 180,
        "testDirection": 0,
        "avgFps": 64,
        "minFps": 64,
        "maxFps": 65,
        "totalFrames": 68,
        "frameRates": 64
      },
      {
        "trial_number": 42,
        "trial_index": 275,
        "rt": 1150,
        "correct": false,
        "response": "ArrowRight",
        "congruent": true,
        "gazeTowards": false,
        "gazeCondition": "away",
        "faceOnLeft": false,
        "impliedDirection": 180,
        "testDirection": 180,
        "avgFps": 63,
        "minFps": 32,
        "maxFps": 65,
        "totalFrames": 73,
        "frameRates": 63
      },
      {
        "trial_number": 43,
        "trial_index": 280,
        "rt": 1316,
        "correct": false,
        "response": "ArrowLeft",
        "congruent": false,
        "gazeTowards": false,
        "gazeCondition": "away",
        "faceOnLeft": false,
        "impliedDirection": 180,
        "testDirection": 0,
        "avgFps": 64,
        "minFps": 63,
        "maxFps": 68,
        "totalFrames": 84,
        "frameRates": 64
      },
      {
        "trial_number": 44,
        "trial_index": 285,
        "rt": 1324,
        "correct": true,
        "response": "ArrowLeft",
        "congruent": false,
        "gazeTowards": true,
        "gazeCondition": "towards",
        "faceOnLeft": true,
        "impliedDirection": 0,
        "testDirection": 180,
        "avgFps": 64,
        "minFps": 64,
        "maxFps": 68,
        "totalFrames": 84,
        "frameRates": 64
      },
      {
        "trial_number": 45,
        "trial_index": 290,
        "rt": 1330,
        "correct": false,
        "response": "ArrowRight",
        "congruent": false,
        "gazeTowards": false,
        "gazeCondition": "away",
        "faceOnLeft": true,
        "impliedDirection": 0,
        "testDirection": 180,
        "avgFps": 64,
        "minFps": 64,
        "maxFps": 68,
        "totalFrames": 85,
        "frameRates": 64
      },
      {
        "trial_number": 46,
        "trial_index": 298,
        "rt": 1973,
        "correct": false,
        "response": "ArrowLeft",
        "congruent": true,
        "gazeTowards": true,
        "gazeCondition": "towards",
        "faceOnLeft": true,
        "impliedDirection": 0,
        "testDirection": 0,
        "avgFps": 64,
        "minFps": 63,
        "maxFps": 68,
        "totalFrames": 126,
        "frameRates": 64
      },
      {
        "trial_number": 47,
        "trial_index": 303,
        "rt": 1595,
        "correct": false,
        "response": "ArrowLeft",
        "congruent": true,
        "gazeTowards": true,
        "gazeCondition": "towards",
        "faceOnLeft": true,
        "impliedDirection": 0,
        "testDirection": 0,
        "avgFps": 62,
        "minFps": 32,
        "maxFps": 73,
        "totalFrames": 97,
        "frameRates": 62
      },
      {
        "trial_number": 48,
        "trial_index": 308,
        "rt": 1658,
        "correct": true,
        "response": "ArrowLeft",
        "congruent": false,
        "gazeTowards": true,
        "gazeCondition": "towards",
        "faceOnLeft": true,
        "impliedDirection": 0,
        "testDirection": 180,
        "avgFps": 64,
        "minFps": 63,
        "maxFps": 68,
        "totalFrames": 106,
        "frameRates": 64
      },
      {
        "trial_number": 49,
        "trial_index": 313,
        "rt": 1912,
        "correct": false,
        "response": "ArrowRight",
        "congruent": false,
        "gazeTowards": true,
        "gazeCondition": "towards",
        "faceOnLeft": true,
        "impliedDirection": 0,
        "testDirection": 180,
        "avgFps": 63,
        "minFps": 32,
        "maxFps": 65,
        "totalFrames": 121,
        "frameRates": 63
      },
      {
        "trial_number": 50,
        "trial_index": 318,
        "rt": 1969,
        "correct": false,
        "response": "ArrowLeft",
        "congruent": true,
        "gazeTowards": false,
        "gazeCondition": "away",
        "faceOnLeft": true,
        "impliedDirection": 0,
        "testDirection": 0,
        "avgFps": 64,
        "minFps": 32,
        "maxFps": 68,
        "totalFrames": 125,
        "frameRates": 64
      },
      {
        "trial_number": 51,
        "trial_index": 323,
        "rt": 1264,
        "correct": false,
        "response": "ArrowLeft",
        "congruent": false,
        "gazeTowards": false,
        "gazeCondition": "away",
        "faceOnLeft": false,
        "impliedDirection": 180,
        "testDirection": 0,
        "avgFps": 64,
        "minFps": 63,
        "maxFps": 69,
        "totalFrames": 80,
        "frameRates": 64
      },
      {
        "trial_number": 52,
        "trial_index": 328,
        "rt": 1816,
        "correct": true,
        "response": "ArrowRight",
        "congruent": true,
        "gazeTowards": true,
        "gazeCondition": "towards",
        "faceOnLeft": true,
        "impliedDirection": 0,
        "testDirection": 0,
        "avgFps": 61,
        "minFps": 32,
        "maxFps": 65,
        "totalFrames": 109,
        "frameRates": 61
      },
      {
        "trial_number": 53,
        "trial_index": 333,
        "rt": 1253,
        "correct": false,
        "response": "ArrowLeft",
        "congruent": true,
        "gazeTowards": true,
        "gazeCondition": "towards",
        "faceOnLeft": true,
        "impliedDirection": 0,
        "testDirection": 0,
        "avgFps": 64,
        "minFps": 64,
        "maxFps": 65,
        "totalFrames": 80,
        "frameRates": 64
      },
      {
        "trial_number": 54,
        "trial_index": 338,
        "rt": 1710,
        "correct": false,
        "response": "ArrowLeft",
        "congruent": true,
        "gazeTowards": true,
        "gazeCondition": "towards",
        "faceOnLeft": true,
        "impliedDirection": 0,
        "testDirection": 0,
        "avgFps": 63,
        "minFps": 32,
        "maxFps": 65,
        "totalFrames": 107,
        "frameRates": 63
      },
      {
        "trial_number": 55,
        "trial_index": 343,
        "rt": 1724,
        "correct": true,
        "response": "ArrowRight",
        "congruent": false,
        "gazeTowards": false,
        "gazeCondition": "away",
        "faceOnLeft": false,
        "impliedDirection": 180,
        "testDirection": 0,
        "avgFps": 63,
        "minFps": 32,
        "maxFps": 65,
        "totalFrames": 107,
        "frameRates": 63
      },
      {
        "trial_number": 56,
        "trial_index": 348,
        "rt": 1794,
        "correct": false,
        "response": "ArrowRight",
        "congruent": true,
        "gazeTowards": true,
        "gazeCondition": "towards",
        "faceOnLeft": false,
        "impliedDirection": 180,
        "testDirection": 180,
        "avgFps": 63,
        "minFps": 32,
        "maxFps": 65,
        "totalFrames": 114,
        "frameRates": 63
      },
      {
        "trial_number": 57,
        "trial_index": 353,
        "rt": 1334,
        "correct": false,
        "response": "ArrowLeft",
        "congruent": true,
        "gazeTowards": false,
        "gazeCondition": "away",
        "faceOnLeft": true,
        "impliedDirection": 0,
        "testDirection": 0,
        "avgFps": 59,
        "minFps": 32,
        "maxFps": 65,
        "totalFrames": 78,
        "frameRates": 59
      },
      {
        "trial_number": 58,
        "trial_index": 358,
        "rt": null,
        "correct": false,
        "response": null,
        "congruent": false,
        "gazeTowards": false,
        "gazeCondition": "away",
        "faceOnLeft": true,
        "impliedDirection": 0,
        "testDirection": 180,
        "avgFps": 64,
        "minFps": 64,
        "maxFps": 65,
        "totalFrames": 127,
        "frameRates": 64
      },
      {
        "trial_number": 59,
        "trial_index": 363,
        "rt": null,
        "correct": false,
        "response": null,
        "congruent": false,
        "gazeTowards": false,
        "gazeCondition": "away",
        "faceOnLeft": true,
        "impliedDirection": 0,
        "testDirection": 180,
        "avgFps": 64,
        "minFps": 64,
        "maxFps": 65,
        "totalFrames": 128,
        "frameRates": 64
      },
      {
        "trial_number": 60,
        "trial_index": 369,
        "rt": 1365,
        "correct": true,
        "response": "ArrowLeft",
        "congruent": false,
        "gazeTowards": false,
        "gazeCondition": "away",
        "faceOnLeft": true,
        "impliedDirection": 0,
        "testDirection": 180,
        "avgFps": 63,
        "minFps": 32,
        "maxFps": 73,
        "totalFrames": 87,
        "frameRates": 63
      },
      {
        "trial_number": 61,
        "trial_index": 374,
        "rt": 1642,
        "correct": true,
        "response": "ArrowLeft",
        "congruent": true,
        "gazeTowards": false,
        "gazeCondition": "away",
        "faceOnLeft": false,
        "impliedDirection": 180,
        "testDirection": 180,
        "avgFps": 64,
        "minFps": 64,
        "maxFps": 65,
        "totalFrames": 105,
        "frameRates": 64
      },
      {
        "trial_number": 62,
        "trial_index": 379,
        "rt": 1659,
        "correct": false,
        "response": "ArrowLeft",
        "congruent": false,
        "gazeTowards": true,
        "gazeCondition": "towards",
        "faceOnLeft": false,
        "impliedDirection": 180,
        "testDirection": 0,
        "avgFps": 63,
        "minFps": 32,
        "maxFps": 68,
        "totalFrames": 104,
        "frameRates": 63
      },
      {
        "trial_number": 63,
        "trial_index": 384,
        "rt": 1961,
        "correct": false,
        "response": "ArrowLeft",
        "congruent": true,
        "gazeTowards": false,
        "gazeCondition": "away",
        "faceOnLeft": true,
        "impliedDirection": 0,
        "testDirection": 0,
        "avgFps": 62,
        "minFps": 32,
        "maxFps": 69,
        "totalFrames": 120,
        "frameRates": 62
      },
      {
        "trial_number": 64,
        "trial_index": 389,
        "rt": 1894,
        "correct": false,
        "response": "ArrowLeft",
        "congruent": true,
        "gazeTowards": false,
        "gazeCondition": "away",
        "faceOnLeft": true,
        "impliedDirection": 0,
        "testDirection": 0,
        "avgFps": 63,
        "minFps": 32,
        "maxFps": 69,
        "totalFrames": 119,
        "frameRates": 63
      },
      {
        "trial_number": 65,
        "trial_index": 394,
        "rt": 1675,
        "correct": false,
        "response": "ArrowLeft",
        "congruent": false,
        "gazeTowards": true,
        "gazeCondition": "towards",
        "faceOnLeft": false,
        "impliedDirection": 180,
        "testDirection": 0,
        "avgFps": 59,
        "minFps": 32,
        "maxFps": 65,
        "totalFrames": 98,
        "frameRates": 59
      },
      {
        "trial_number": 66,
        "trial_index": 399,
        "rt": 1589,
        "correct": false,
        "response": "ArrowRight",
        "congruent": true,
        "gazeTowards": true,
        "gazeCondition": "towards",
        "faceOnLeft": false,
        "impliedDirection": 180,
        "testDirection": 180,
        "avgFps": 64,
        "minFps": 64,
        "maxFps": 104,
        "totalFrames": 101,
        "frameRates": 64
      },
      {
        "trial_number": 67,
        "trial_index": 404,
        "rt": null,
        "correct": false,
        "response": null,
        "congruent": true,
        "gazeTowards": true,
        "gazeCondition": "towards",
        "faceOnLeft": false,
        "impliedDirection": 180,
        "testDirection": 180,
        "avgFps": 64,
        "minFps": 64,
        "maxFps": 68,
        "totalFrames": 128,
        "frameRates": 64
      },
      {
        "trial_number": 68,
        "trial_index": 412,
        "rt": 1895,
        "correct": true,
        "response": "ArrowLeft",
        "congruent": false,
        "gazeTowards": true,
        "gazeCondition": "towards",
        "faceOnLeft": true,
        "impliedDirection": 0,
        "testDirection": 180,
        "avgFps": 64,
        "minFps": 63,
        "maxFps": 73,
        "totalFrames": 121,
        "frameRates": 64
      },
      {
        "trial_number": 69,
        "trial_index": 417,
        "rt": 1426,
        "correct": true,
        "response": "ArrowRight",
        "congruent": true,
        "gazeTowards": true,
        "gazeCondition": "towards",
        "faceOnLeft": true,
        "impliedDirection": 0,
        "testDirection": 0,
        "avgFps": 63,
        "minFps": 32,
        "maxFps": 69,
        "totalFrames": 89,
        "frameRates": 63
      },
      {
        "trial_number": 70,
        "trial_index": 422,
        "rt": 1354,
        "correct": true,
        "response": "ArrowRight",
        "congruent": false,
        "gazeTowards": true,
        "gazeCondition": "towards",
        "faceOnLeft": false,
        "impliedDirection": 180,
        "testDirection": 0,
        "avgFps": 63,
        "minFps": 32,
        "maxFps": 65,
        "totalFrames": 85,
        "frameRates": 63
      },
      {
        "trial_number": 71,
        "trial_index": 430,
        "rt": 1576,
        "correct": true,
        "response": "ArrowLeft",
        "congruent": true,
        "gazeTowards": true,
        "gazeCondition": "towards",
        "faceOnLeft": false,
        "impliedDirection": 180,
        "testDirection": 180,
        "avgFps": 63,
        "minFps": 32,
        "maxFps": 68,
        "totalFrames": 98,
        "frameRates": 63
      },
      {
        "trial_number": 72,
        "trial_index": 438,
        "rt": null,
        "correct": false,
        "response": null,
        "congruent": false,
        "gazeTowards": true,
        "gazeCondition": "towards",
        "faceOnLeft": true,
        "impliedDirection": 0,
        "testDirection": 180,
        "avgFps": 63,
        "minFps": 32,
        "maxFps": 69,
        "totalFrames": 126,
        "frameRates": 63
      },
      {
        "trial_number": 73,
        "trial_index": 443,
        "rt": 1563,
        "correct": true,
        "response": "ArrowRight",
        "congruent": true,
        "gazeTowards": true,
        "gazeCondition": "towards",
        "faceOnLeft": true,
        "impliedDirection": 0,
        "testDirection": 0,
        "avgFps": 63,
        "minFps": 32,
        "maxFps": 69,
        "totalFrames": 98,
        "frameRates": 63
      },
      {
        "trial_number": 74,
        "trial_index": 448,
        "rt": 1486,
        "correct": true,
        "response": "ArrowLeft",
        "congruent": true,
        "gazeTowards": false,
        "gazeCondition": "away",
        "faceOnLeft": false,
        "impliedDirection": 180,
        "testDirection": 180,
        "avgFps": 61,
        "minFps": 32,
        "maxFps": 68,
        "totalFrames": 91,
        "frameRates": 61
      },
      {
        "trial_number": 75,
        "trial_index": 456,
        "rt": 1630,
        "correct": true,
        "response": "ArrowLeft",
        "congruent": false,
        "gazeTowards": true,
        "gazeCondition": "towards",
        "faceOnLeft": true,
        "impliedDirection": 0,
        "testDirection": 180,
        "avgFps": 64,
        "minFps": 64,
        "maxFps": 69,
        "totalFrames": 104,
        "frameRates": 64
      },
      {
        "trial_number": 76,
        "trial_index": 461,
        "rt": null,
        "correct": false,
        "response": null,
        "congruent": true,
        "gazeTowards": false,
        "gazeCondition": "away",
        "faceOnLeft": true,
        "impliedDirection": 0,
        "testDirection": 0,
        "avgFps": 64,
        "minFps": 64,
        "maxFps": 69,
        "totalFrames": 128,
        "frameRates": 64
      },
      {
        "trial_number": 77,
        "trial_index": 466,
        "rt": 1256,
        "correct": true,
        "response": "ArrowLeft",
        "congruent": false,
        "gazeTowards": true,
        "gazeCondition": "towards",
        "faceOnLeft": true,
        "impliedDirection": 0,
        "testDirection": 180,
        "avgFps": 64,
        "minFps": 64,
        "maxFps": 68,
        "totalFrames": 80,
        "frameRates": 64
      },
      {
        "trial_number": 78,
        "trial_index": 471,
        "rt": 1294,
        "correct": true,
        "response": "ArrowRight",
        "congruent": false,
        "gazeTowards": false,
        "gazeCondition": "away",
        "faceOnLeft": false,
        "impliedDirection": 180,
        "testDirection": 0,
        "avgFps": 64,
        "minFps": 64,
        "maxFps": 65,
        "totalFrames": 82,
        "frameRates": 64
      },
      {
        "trial_number": 79,
        "trial_index": 476,
        "rt": 933,
        "correct": true,
        "response": "ArrowLeft",
        "congruent": false,
        "gazeTowards": true,
        "gazeCondition": "towards",
        "faceOnLeft": true,
        "impliedDirection": 0,
        "testDirection": 180,
        "avgFps": 64,
        "minFps": 64,
        "maxFps": 79,
        "totalFrames": 59,
        "frameRates": 64
      },
      {
        "trial_number": 80,
        "trial_index": 481,
        "rt": 1454,
        "correct": true,
        "response": "ArrowLeft",
        "congruent": false,
        "gazeTowards": false,
        "gazeCondition": "away",
        "faceOnLeft": true,
        "impliedDirection": 0,
        "testDirection": 180,
        "avgFps": 62,
        "minFps": 32,
        "maxFps": 65,
        "totalFrames": 89,
        "frameRates": 62
      },
      {
        "trial_number": 81,
        "trial_index": 486,
        "rt": 855,
        "correct": true,
        "response": "ArrowRight",
        "congruent": false,
        "gazeTowards": true,
        "gazeCondition": "towards",
        "faceOnLeft": false,
        "impliedDirection": 180,
        "testDirection": 0,
        "avgFps": 64,
        "minFps": 64,
        "maxFps": 68,
        "totalFrames": 54,
        "frameRates": 64
      },
      {
        "trial_number": 82,
        "trial_index": 491,
        "rt": 1495,
        "correct": true,
        "response": "ArrowRight",
        "congruent": true,
        "gazeTowards": true,
        "gazeCondition": "towards",
        "faceOnLeft": true,
        "impliedDirection": 0,
        "testDirection": 0,
        "avgFps": 62,
        "minFps": 32,
        "maxFps": 65,
        "totalFrames": 93,
        "frameRates": 62
      },
      {
        "trial_number": 83,
        "trial_index": 496,
        "rt": 852,
        "correct": true,
        "response": "ArrowLeft",
        "congruent": true,
        "gazeTowards": false,
        "gazeCondition": "away",
        "faceOnLeft": false,
        "impliedDirection": 180,
        "testDirection": 180,
        "avgFps": 63,
        "minFps": 32,
        "maxFps": 69,
        "totalFrames": 53,
        "frameRates": 63
      },
      {
        "trial_number": 84,
        "trial_index": 501,
        "rt": 1560,
        "correct": true,
        "response": "ArrowLeft",
        "congruent": true,
        "gazeTowards": false,
        "gazeCondition": "away",
        "faceOnLeft": false,
        "impliedDirection": 180,
        "testDirection": 180,
        "avgFps": 61,
        "minFps": 32,
        "maxFps": null,
        "totalFrames": 94,
        "frameRates": 61
      },
      {
        "trial_number": 85,
        "trial_index": 506,
        "rt": 1352,
        "correct": true,
        "response": "ArrowLeft",
        "congruent": true,
        "gazeTowards": false,
        "gazeCondition": "away",
        "faceOnLeft": false,
        "impliedDirection": 180,
        "testDirection": 180,
        "avgFps": 63,
        "minFps": 32,
        "maxFps": 69,
        "totalFrames": 84,
        "frameRates": 63
      },
      {
        "trial_number": 86,
        "trial_index": 511,
        "rt": 1062,
        "correct": true,
        "response": "ArrowRight",
        "congruent": false,
        "gazeTowards": true,
        "gazeCondition": "towards",
        "faceOnLeft": false,
        "impliedDirection": 180,
        "testDirection": 0,
        "avgFps": 64,
        "minFps": 64,
        "maxFps": 65,
        "totalFrames": 67,
        "frameRates": 64
      },
      {
        "trial_number": 87,
        "trial_index": 516,
        "rt": 1500,
        "correct": true,
        "response": "ArrowRight",
        "congruent": true,
        "gazeTowards": false,
        "gazeCondition": "away",
        "faceOnLeft": true,
        "impliedDirection": 0,
        "testDirection": 0,
        "avgFps": 63,
        "minFps": 32,
        "maxFps": 68,
        "totalFrames": 95,
        "frameRates": 63
      },
      {
        "trial_number": 88,
        "trial_index": 521,
        "rt": 945,
        "correct": true,
        "response": "ArrowLeft",
        "congruent": false,
        "gazeTowards": true,
        "gazeCondition": "towards",
        "faceOnLeft": true,
        "impliedDirection": 0,
        "testDirection": 180,
        "avgFps": 64,
        "minFps": 63,
        "maxFps": 65,
        "totalFrames": 61,
        "frameRates": 64
      },
      {
        "trial_number": 89,
        "trial_index": 527,
        "rt": 1025,
        "correct": true,
        "response": "ArrowRight",
        "congruent": true,
        "gazeTowards": false,
        "gazeCondition": "away",
        "faceOnLeft": true,
        "impliedDirection": 0,
        "testDirection": 0,
        "avgFps": 64,
        "minFps": 64,
        "maxFps": 69,
        "totalFrames": 65,
        "frameRates": 64
      },
      {
        "trial_number": 90,
        "trial_index": 532,
        "rt": 884,
        "correct": true,
        "response": "ArrowRight",
        "congruent": true,
        "gazeTowards": true,
        "gazeCondition": "towards",
        "faceOnLeft": true,
        "impliedDirection": 0,
        "testDirection": 0,
        "avgFps": 64,
        "minFps": 63,
        "maxFps": 67,
        "totalFrames": 56,
        "frameRates": 64
      },
      {
        "trial_number": 91,
        "trial_index": 540,
        "rt": 908,
        "correct": true,
        "response": "ArrowLeft",
        "congruent": false,
        "gazeTowards": false,
        "gazeCondition": "away",
        "faceOnLeft": true,
        "impliedDirection": 0,
        "testDirection": 180,
        "avgFps": 63,
        "minFps": 32,
        "maxFps": 68,
        "totalFrames": 56,
        "frameRates": 63
      },
      {
        "trial_number": 92,
        "trial_index": 545,
        "rt": 873,
        "correct": true,
        "response": "ArrowRight",
        "congruent": false,
        "gazeTowards": false,
        "gazeCondition": "away",
        "faceOnLeft": false,
        "impliedDirection": 180,
        "testDirection": 0,
        "avgFps": 62,
        "minFps": 32,
        "maxFps": 65,
        "totalFrames": 54,
        "frameRates": 62
      },
      {
        "trial_number": 93,
        "trial_index": 553,
        "rt": 1118,
        "correct": true,
        "response": "ArrowLeft",
        "congruent": false,
        "gazeTowards": true,
        "gazeCondition": "towards",
        "faceOnLeft": true,
        "impliedDirection": 0,
        "testDirection": 180,
        "avgFps": 64,
        "minFps": 64,
        "maxFps": 69,
        "totalFrames": 70,
        "frameRates": 64
      },
      {
        "trial_number": 94,
        "trial_index": 558,
        "rt": 930,
        "correct": true,
        "response": "ArrowLeft",
        "congruent": true,
        "gazeTowards": true,
        "gazeCondition": "towards",
        "faceOnLeft": false,
        "impliedDirection": 180,
        "testDirection": 180,
        "avgFps": 64,
        "minFps": 63,
        "maxFps": 65,
        "totalFrames": 58,
        "frameRates": 64
      },
      {
        "trial_number": 95,
        "trial_index": 563,
        "rt": 228,
        "correct": true,
        "response": "ArrowRight",
        "congruent": false,
        "gazeTowards": false,
        "gazeCondition": "away",
        "faceOnLeft": false,
        "impliedDirection": 180,
        "testDirection": 0,
        "avgFps": 65,
        "minFps": 64,
        "maxFps": 73,
        "totalFrames": 15,
        "frameRates": 65
      },
      {
        "trial_number": 96,
        "trial_index": 568,
        "rt": 818,
        "correct": true,
        "response": "ArrowLeft",
        "congruent": true,
        "gazeTowards": true,
        "gazeCondition": "towards",
        "faceOnLeft": false,
        "impliedDirection": 180,
        "testDirection": 180,
        "avgFps": 63,
        "minFps": 32,
        "maxFps": 68,
        "totalFrames": 51,
        "frameRates": 63
      },
      {
        "trial_number": 97,
        "trial_index": 573,
        "rt": 1280,
        "correct": true,
        "response": "ArrowRight",
        "congruent": false,
        "gazeTowards": true,
        "gazeCondition": "towards",
        "faceOnLeft": false,
        "impliedDirection": 180,
        "testDirection": 0,
        "avgFps": 64,
        "minFps": 64,
        "maxFps": 106,
        "totalFrames": 81,
        "frameRates": 64
      },
      {
        "trial_number": 98,
        "trial_index": 578,
        "rt": 912,
        "correct": true,
        "response": "ArrowRight",
        "congruent": false,
        "gazeTowards": true,
        "gazeCondition": "towards",
        "faceOnLeft": false,
        "impliedDirection": 180,
        "testDirection": 0,
        "avgFps": 64,
        "minFps": 64,
        "maxFps": 68,
        "totalFrames": 58,
        "frameRates": 64
      },
      {
        "trial_number": 99,
        "trial_index": 583,
        "rt": 1231,
        "correct": true,
        "response": "ArrowRight",
        "congruent": false,
        "gazeTowards": true,
        "gazeCondition": "towards",
        "faceOnLeft": false,
        "impliedDirection": 180,
        "testDirection": 0,
        "avgFps": 62,
        "minFps": 32,
        "maxFps": 65,
        "totalFrames": 74,
        "frameRates": 62
      },
      {
        "trial_number": 100,
        "trial_index": 588,
        "rt": 1046,
        "correct": true,
        "response": "ArrowLeft",
        "congruent": false,
        "gazeTowards": false,
        "gazeCondition": "away",
        "faceOnLeft": true,
        "impliedDirection": 0,
        "testDirection": 180,
        "avgFps": 64,
        "minFps": 64,
        "maxFps": 69,
        "totalFrames": 67,
        "frameRates": 64
      },
      {
        "trial_number": 101,
        "trial_index": 593,
        "rt": 1079,
        "correct": true,
        "response": "ArrowLeft",
        "congruent": false,
        "gazeTowards": false,
        "gazeCondition": "away",
        "faceOnLeft": true,
        "impliedDirection": 0,
        "testDirection": 180,
        "avgFps": 64,
        "minFps": 64,
        "maxFps": 68,
        "totalFrames": 69,
        "frameRates": 64
      },
      {
        "trial_number": 102,
        "trial_index": 598,
        "rt": 977,
        "correct": true,
        "response": "ArrowRight",
        "congruent": false,
        "gazeTowards": false,
        "gazeCondition": "away",
        "faceOnLeft": false,
        "impliedDirection": 180,
        "testDirection": 0,
        "avgFps": 64,
        "minFps": 64,
        "maxFps": 69,
        "totalFrames": 62,
        "frameRates": 64
      },
      {
        "trial_number": 103,
        "trial_index": 603,
        "rt": 882,
        "correct": true,
        "response": "ArrowRight",
        "congruent": true,
        "gazeTowards": true,
        "gazeCondition": "towards",
        "faceOnLeft": true,
        "impliedDirection": 0,
        "testDirection": 0,
        "avgFps": 64,
        "minFps": 64,
        "maxFps": 65,
        "totalFrames": 56,
        "frameRates": 64
      },
      {
        "trial_number": 104,
        "trial_index": 608,
        "rt": 1119,
        "correct": false,
        "response": "ArrowRight",
        "congruent": false,
        "gazeTowards": true,
        "gazeCondition": "towards",
        "faceOnLeft": true,
        "impliedDirection": 0,
        "testDirection": 180,
        "avgFps": 63,
        "minFps": 32,
        "maxFps": 65,
        "totalFrames": 70,
        "frameRates": 63
      },
      {
        "trial_number": 105,
        "trial_index": 613,
        "rt": 806,
        "correct": true,
        "response": "ArrowLeft",
        "congruent": true,
        "gazeTowards": true,
        "gazeCondition": "towards",
        "faceOnLeft": false,
        "impliedDirection": 180,
        "testDirection": 180,
        "avgFps": 58,
        "minFps": 32,
        "maxFps": 69,
        "totalFrames": 47,
        "frameRates": 58
      },
      {
        "trial_number": 106,
        "trial_index": 618,
        "rt": 1075,
        "correct": true,
        "response": "ArrowLeft",
        "congruent": false,
        "gazeTowards": false,
        "gazeCondition": "away",
        "faceOnLeft": true,
        "impliedDirection": 0,
        "testDirection": 180,
        "avgFps": 63,
        "minFps": 32,
        "maxFps": 65,
        "totalFrames": 68,
        "frameRates": 63
      },
      {
        "trial_number": 107,
        "trial_index": 623,
        "rt": 842,
        "correct": true,
        "response": "ArrowLeft",
        "congruent": true,
        "gazeTowards": true,
        "gazeCondition": "towards",
        "faceOnLeft": false,
        "impliedDirection": 180,
        "testDirection": 180,
        "avgFps": 63,
        "minFps": 32,
        "maxFps": 65,
        "totalFrames": 53,
        "frameRates": 63
      },
      {
        "trial_number": 108,
        "trial_index": 628,
        "rt": 895,
        "correct": true,
        "response": "ArrowLeft",
        "congruent": true,
        "gazeTowards": true,
        "gazeCondition": "towards",
        "faceOnLeft": false,
        "impliedDirection": 180,
        "testDirection": 180,
        "avgFps": 63,
        "minFps": 32,
        "maxFps": 73,
        "totalFrames": 56,
        "frameRates": 63
      },
      {
        "trial_number": 109,
        "trial_index": 633,
        "rt": 1413,
        "correct": true,
        "response": "ArrowRight",
        "congruent": true,
        "gazeTowards": false,
        "gazeCondition": "away",
        "faceOnLeft": true,
        "impliedDirection": 0,
        "testDirection": 0,
        "avgFps": 60,
        "minFps": 32,
        "maxFps": 69,
        "totalFrames": 85,
        "frameRates": 60
      },
      {
        "trial_number": 110,
        "trial_index": 638,
        "rt": 925,
        "correct": true,
        "response": "ArrowLeft",
        "congruent": false,
        "gazeTowards": true,
        "gazeCondition": "towards",
        "faceOnLeft": true,
        "impliedDirection": 0,
        "testDirection": 180,
        "avgFps": 64,
        "minFps": 64,
        "maxFps": 65,
        "totalFrames": 59,
        "frameRates": 64
      },
      {
        "trial_number": 111,
        "trial_index": 643,
        "rt": 1291,
        "correct": true,
        "response": "ArrowRight",
        "congruent": false,
        "gazeTowards": false,
        "gazeCondition": "away",
        "faceOnLeft": false,
        "impliedDirection": 180,
        "testDirection": 0,
        "avgFps": 62,
        "minFps": 32,
        "maxFps": 65,
        "totalFrames": 80,
        "frameRates": 62
      },
      {
        "trial_number": 112,
        "trial_index": 648,
        "rt": 1525,
        "correct": true,
        "response": "ArrowRight",
        "congruent": false,
        "gazeTowards": true,
        "gazeCondition": "towards",
        "faceOnLeft": false,
        "impliedDirection": 180,
        "testDirection": 0,
        "avgFps": 63,
        "minFps": 32,
        "maxFps": 68,
        "totalFrames": 97,
        "frameRates": 63
      },
      {
        "trial_number": 113,
        "trial_index": 653,
        "rt": 1083,
        "correct": true,
        "response": "ArrowRight",
        "congruent": true,
        "gazeTowards": true,
        "gazeCondition": "towards",
        "faceOnLeft": true,
        "impliedDirection": 0,
        "testDirection": 0,
        "avgFps": 63,
        "minFps": 32,
        "maxFps": 69,
        "totalFrames": 67,
        "frameRates": 63
      },
      {
        "trial_number": 114,
        "trial_index": 658,
        "rt": 922,
        "correct": true,
        "response": "ArrowLeft",
        "congruent": true,
        "gazeTowards": true,
        "gazeCondition": "towards",
        "faceOnLeft": false,
        "impliedDirection": 180,
        "testDirection": 180,
        "avgFps": 64,
        "minFps": 64,
        "maxFps": 65,
        "totalFrames": 59,
        "frameRates": 64
      },
      {
        "trial_number": 115,
        "trial_index": 663,
        "rt": 1020,
        "correct": true,
        "response": "ArrowLeft",
        "congruent": false,
        "gazeTowards": false,
        "gazeCondition": "away",
        "faceOnLeft": true,
        "impliedDirection": 0,
        "testDirection": 180,
        "avgFps": 62,
        "minFps": 32,
        "maxFps": 69,
        "totalFrames": 63,
        "frameRates": 62
      },
      {
        "trial_number": 116,
        "trial_index": 668,
        "rt": 895,
        "correct": true,
        "response": "ArrowRight",
        "congruent": true,
        "gazeTowards": false,
        "gazeCondition": "away",
        "faceOnLeft": true,
        "impliedDirection": 0,
        "testDirection": 0,
        "avgFps": 63,
        "minFps": 32,
        "maxFps": 68,
        "totalFrames": 56,
        "frameRates": 63
      },
      {
        "trial_number": 117,
        "trial_index": 673,
        "rt": 850,
        "correct": true,
        "response": "ArrowRight",
        "congruent": false,
        "gazeTowards": false,
        "gazeCondition": "away",
        "faceOnLeft": false,
        "impliedDirection": 180,
        "testDirection": 0,
        "avgFps": 64,
        "minFps": 64,
        "maxFps": 68,
        "totalFrames": 54,
        "frameRates": 64
      },
      {
        "trial_number": 118,
        "trial_index": 678,
        "rt": null,
        "correct": false,
        "response": null,
        "congruent": false,
        "gazeTowards": true,
        "gazeCondition": "towards",
        "faceOnLeft": false,
        "impliedDirection": 180,
        "testDirection": 0,
        "avgFps": 64,
        "minFps": 32,
        "maxFps": 65,
        "totalFrames": 127,
        "frameRates": 64
      },
      {
        "trial_number": 119,
        "trial_index": 683,
        "rt": 1689,
        "correct": false,
        "response": "ArrowLeft",
        "congruent": true,
        "gazeTowards": false,
        "gazeCondition": "away",
        "faceOnLeft": true,
        "impliedDirection": 0,
        "testDirection": 0,
        "avgFps": 64,
        "minFps": 64,
        "maxFps": 69,
        "totalFrames": 107,
        "frameRates": 64
      }
    ],
    "catch": {
      "total": 12,
      "correct": 11,
      "accuracy": 92,
      "meanRT": 1294,
      "trials": [
        {
          "trial_number": 0,
          "trial_index": 48,
          "rt": null,
          "correct": false,
          "colorTarget": "tree",
          "gazeTowards": false,
          "gazeCondition": "away",
          "faceOnLeft": false
        },
        {
          "trial_number": 1,
          "trial_index": 51,
          "rt": 1767,
          "correct": true,
          "colorTarget": "tree",
          "gazeTowards": true,
          "gazeCondition": "towards",
          "faceOnLeft": false
        },
        {
          "trial_number": 2,
          "trial_index": 144,
          "rt": 921,
          "correct": true,
          "colorTarget": "face",
          "gazeTowards": false,
          "gazeCondition": "away",
          "faceOnLeft": false
        },
        {
          "trial_number": 3,
          "trial_index": 152,
          "rt": 1070,
          "correct": true,
          "colorTarget": "face",
          "gazeTowards": false,
          "gazeCondition": "away",
          "faceOnLeft": true
        },
        {
          "trial_number": 4,
          "trial_index": 190,
          "rt": 2090,
          "correct": true,
          "colorTarget": "tree",
          "gazeTowards": false,
          "gazeCondition": "away",
          "faceOnLeft": false
        },
        {
          "trial_number": 5,
          "trial_index": 294,
          "rt": 1165,
          "correct": true,
          "colorTarget": "tree",
          "gazeTowards": false,
          "gazeCondition": "away",
          "faceOnLeft": true
        },
        {
          "trial_number": 6,
          "trial_index": 408,
          "rt": 1139,
          "correct": true,
          "colorTarget": "face",
          "gazeTowards": false,
          "gazeCondition": "away",
          "faceOnLeft": true
        },
        {
          "trial_number": 7,
          "trial_index": 426,
          "rt": 1459,
          "correct": true,
          "colorTarget": "face",
          "gazeTowards": false,
          "gazeCondition": "away",
          "faceOnLeft": false
        },
        {
          "trial_number": 8,
          "trial_index": 434,
          "rt": 840,
          "correct": true,
          "colorTarget": "tree",
          "gazeTowards": false,
          "gazeCondition": "away",
          "faceOnLeft": true
        },
        {
          "trial_number": 9,
          "trial_index": 452,
          "rt": 1782,
          "correct": true,
          "colorTarget": "tree",
          "gazeTowards": false,
          "gazeCondition": "away",
          "faceOnLeft": true
        },
        {
          "trial_number": 10,
          "trial_index": 536,
          "rt": 1022,
          "correct": true,
          "colorTarget": "face",
          "gazeTowards": true,
          "gazeCondition": "towards",
          "faceOnLeft": true
        },
        {
          "trial_number": 11,
          "trial_index": 549,
          "rt": 984,
          "correct": true,
          "colorTarget": "face",
          "gazeTowards": true,
          "gazeCondition": "towards",
          "faceOnLeft": false
        }
      ]
    },
    "practice": {
      "trials": [
        {
          "trial_number": 0,
          "rt": 1231,
          "correct": true,
          "direction": 0
        },
        {
          "trial_number": 1,
          "rt": 1193,
          "correct": true,
          "direction": 0
        },
        {
          "trial_number": 2,
          "rt": 1167,
          "correct": true,
          "direction": 0
        },
        {
          "trial_number": 3,
          "rt": 1444,
          "correct": true,
          "direction": 180
        },
        {
          "trial_number": 4,
          "rt": 752,
          "correct": true,
          "direction": 0
        },
        {
          "trial_number": 5,
          "rt": 1011,
          "correct": false,
          "direction": 180
        },
        {
          "trial_number": 6,
          "rt": 1434,
          "correct": false,
          "direction": 0
        },
        {
          "trial_number": 7,
          "rt": 845,
          "correct": true,
          "direction": 180
        },
        {
          "trial_number": 8,
          "rt": 849,
          "correct": true,
          "direction": 0
        },
        {
          "trial_number": 9,
          "rt": 796,
          "correct": true,
          "direction": 0
        }
      ],
      "meanRT": 1072,
      "accuracy": 80
    }
  }
}