{
  "experiment": "rdk-face-1",
  "UUID": "6a16a9cb-f2a1-4879-ad12-41c6609133ff",
  "data": {
    "session": {
      "experiment_version": "1.8.6",
      "treatment": "faces_towards_away_catch",
      "file_version": "1.8.6",
      "totalTrials": 120,
      "totalTrialsIncludingCatch": 132,
      "conditions": {
        "gazeTowardsCount": 60,
        "gazeAwayCount": 60,
        "gazeTowardsAccuracy": 95,
        "gazeAwayAccuracy": 90
      },
      "session_group": "default",
      "browserData": {
        "os": "Windows",
        "browser": "Chrome",
        "screenResolution": "2560x1440",
        "browserViewport": "2560x1440",
        "devicePixelRatio": 1.5,
        "colorDepth": 24,
        "hardwareConcurrency": 12,
        "deviceMemory": 8,
        "gpuRenderer": "ANGLE (NVIDIA, NVIDIA GeForce RTX 2070 SUPER (0x00001E84) Direct3D11 vs_5_0 ps_5_0, D3D11)",
        "measuredRefreshRateHz": 60
      },
      "attention": {
        "visibilityEvents": [
          {
            "event": "blur",
            "state": "blurred",
            "timestamp": 1772771295120
          },
          {
            "event": "focus",
            "state": "focused",
            "timestamp": 1772771312273
          },
          {
            "event": "blur",
            "state": "blurred",
            "timestamp": 1772771562619
          },
          {
            "event": "focus",
            "state": "focused",
            "timestamp": 1772771564194
          }
        ]
      },
      "calibration": {
        "monitorWidthCm": 38,
        "viewingDistanceCm": 54,
        "pixelsPerDegree": 50
      },
      "parameters": {
        "coherence": 0.4,
        "apertureDeg": 5,
        "densityDotsPerDeg2": 40,
        "dotDiameterDeg": 0.035,
        "dotSpeedDegPerSec": 3,
        "lifetimeMs": 200,
        "fixationDurationMs": 1500,
        "faceDurationMs": 1500,
        "testDurationMs": 2000,
        "catchResponseMs": 3000
      },
      "prolific": {
        "prolificPid": "5d6ab68809f9270001dac666",
        "studyId": "",
        "sessionId": ""
      },
      "timing": {
        "startTime": "2026-03-06T04:28:06.265Z",
        "endTime": "2026-03-06T04:43:46.560Z",
        "totalElapsedTimeMs": 940295
      }
    },
    "trials": [
      {
        "trial_number": 0,
        "trial_index": 49,
        "rt": 1056,
        "correct": true,
        "response": "ArrowLeft",
        "congruent": false,
        "gazeTowards": true,
        "gazeCondition": "towards",
        "faceOnLeft": true,
        "impliedDirection": 0,
        "testDirection": 180,
        "avgFps": 60,
        "minFps": 60,
        "maxFps": 60,
        "totalFrames": 64,
        "frameRates": 60
      },
      {
        "trial_number": 1,
        "trial_index": 54,
        "rt": 863,
        "correct": false,
        "response": "ArrowRight",
        "congruent": true,
        "gazeTowards": false,
        "gazeCondition": "away",
        "faceOnLeft": false,
        "impliedDirection": 180,
        "testDirection": 180,
        "avgFps": 60,
        "minFps": 60,
        "maxFps": 60,
        "totalFrames": 52,
        "frameRates": 60
      },
      {
        "trial_number": 2,
        "trial_index": 62,
        "rt": 597,
        "correct": true,
        "response": "ArrowRight",
        "congruent": true,
        "gazeTowards": true,
        "gazeCondition": "towards",
        "faceOnLeft": true,
        "impliedDirection": 0,
        "testDirection": 0,
        "avgFps": 60,
        "minFps": 60,
        "maxFps": 60,
        "totalFrames": 36,
        "frameRates": 60
      },
      {
        "trial_number": 3,
        "trial_index": 67,
        "rt": 585,
        "correct": true,
        "response": "ArrowLeft",
        "congruent": false,
        "gazeTowards": false,
        "gazeCondition": "away",
        "faceOnLeft": true,
        "impliedDirection": 0,
        "testDirection": 180,
        "avgFps": 60,
        "minFps": 60,
        "maxFps": 60,
        "totalFrames": 35,
        "frameRates": 60
      },
      {
        "trial_number": 4,
        "trial_index": 72,
        "rt": 901,
        "correct": false,
        "response": "ArrowRight",
        "congruent": true,
        "gazeTowards": true,
        "gazeCondition": "towards",
        "faceOnLeft": false,
        "impliedDirection": 180,
        "testDirection": 180,
        "avgFps": 60,
        "minFps": 60,
        "maxFps": 60,
        "totalFrames": 54,
        "frameRates": 60
      },
      {
        "trial_number": 5,
        "trial_index": 77,
        "rt": 611,
        "correct": true,
        "response": "ArrowRight",
        "congruent": true,
        "gazeTowards": true,
        "gazeCondition": "towards",
        "faceOnLeft": true,
        "impliedDirection": 0,
        "testDirection": 0,
        "avgFps": 60,
        "minFps": 60,
        "maxFps": 60,
        "totalFrames": 37,
        "frameRates": 60
      },
      {
        "trial_number": 6,
        "trial_index": 82,
        "rt": 517,
        "correct": true,
        "response": "ArrowLeft",
        "congruent": true,
        "gazeTowards": true,
        "gazeCondition": "towards",
        "faceOnLeft": false,
        "impliedDirection": 180,
        "testDirection": 180,
        "avgFps": 60,
        "minFps": 60,
        "maxFps": 60,
        "totalFrames": 31,
        "frameRates": 60
      },
      {
        "trial_number": 7,
        "trial_index": 87,
        "rt": 698,
        "correct": true,
        "response": "ArrowRight",
        "congruent": false,
        "gazeTowards": false,
        "gazeCondition": "away",
        "faceOnLeft": false,
        "impliedDirection": 180,
        "testDirection": 0,
        "avgFps": 60,
        "minFps": 60,
        "maxFps": 60,
        "totalFrames": 42,
        "frameRates": 60
      },
      {
        "trial_number": 8,
        "trial_index": 92,
        "rt": 889,
        "correct": true,
        "response": "ArrowRight",
        "congruent": true,
        "gazeTowards": true,
        "gazeCondition": "towards",
        "faceOnLeft": true,
        "impliedDirection": 0,
        "testDirection": 0,
        "avgFps": 60,
        "minFps": 60,
        "maxFps": 60,
        "totalFrames": 54,
        "frameRates": 60
      },
      {
        "trial_number": 9,
        "trial_index": 97,
        "rt": 1295,
        "correct": true,
        "response": "ArrowLeft",
        "congruent": false,
        "gazeTowards": true,
        "gazeCondition": "towards",
        "faceOnLeft": true,
        "impliedDirection": 0,
        "testDirection": 180,
        "avgFps": 60,
        "minFps": 60,
        "maxFps": 60,
        "totalFrames": 78,
        "frameRates": 60
      },
      {
        "trial_number": 10,
        "trial_index": 105,
        "rt": 688,
        "correct": true,
        "response": "ArrowRight",
        "congruent": true,
        "gazeTowards": true,
        "gazeCondition": "towards",
        "faceOnLeft": true,
        "impliedDirection": 0,
        "testDirection": 0,
        "avgFps": 61,
        "minFps": 60,
        "maxFps": 10638,
        "totalFrames": 42,
        "frameRates": 61
      },
      {
        "trial_number": 11,
        "trial_index": 110,
        "rt": 1132,
        "correct": true,
        "response": "ArrowLeft",
        "congruent": false,
        "gazeTowards": false,
        "gazeCondition": "away",
        "faceOnLeft": true,
        "impliedDirection": 0,
        "testDirection": 180,
        "avgFps": 60,
        "minFps": 60,
        "maxFps": 61,
        "totalFrames": 68,
        "frameRates": 60
      },
      {
        "trial_number": 12,
        "trial_index": 115,
        "rt": 624,
        "correct": true,
        "response": "ArrowRight",
        "congruent": false,
        "gazeTowards": true,
        "gazeCondition": "towards",
        "faceOnLeft": false,
        "impliedDirection": 180,
        "testDirection": 0,
        "avgFps": 60,
        "minFps": 60,
        "maxFps": 60,
        "totalFrames": 37,
        "frameRates": 60
      },
      {
        "trial_number": 13,
        "trial_index": 120,
        "rt": 1112,
        "correct": false,
        "response": "ArrowRight",
        "congruent": true,
        "gazeTowards": true,
        "gazeCondition": "towards",
        "faceOnLeft": false,
        "impliedDirection": 180,
        "testDirection": 180,
        "avgFps": 60,
        "minFps": 60,
        "maxFps": 60,
        "totalFrames": 67,
        "frameRates": 60
      },
      {
        "trial_number": 14,
        "trial_index": 125,
        "rt": 616,
        "correct": true,
        "response": "ArrowRight",
        "congruent": false,
        "gazeTowards": true,
        "gazeCondition": "towards",
        "faceOnLeft": false,
        "impliedDirection": 180,
        "testDirection": 0,
        "avgFps": 60,
        "minFps": 60,
        "maxFps": 60,
        "totalFrames": 37,
        "frameRates": 60
      },
      {
        "trial_number": 15,
        "trial_index": 130,
        "rt": 1129,
        "correct": false,
        "response": "ArrowLeft",
        "congruent": false,
        "gazeTowards": false,
        "gazeCondition": "away",
        "faceOnLeft": false,
        "impliedDirection": 180,
        "testDirection": 0,
        "avgFps": 60,
        "minFps": 60,
        "maxFps": 60,
        "totalFrames": 68,
        "frameRates": 60
      },
      {
        "trial_number": 16,
        "trial_index": 135,
        "rt": 984,
        "correct": true,
        "response": "ArrowRight",
        "congruent": false,
        "gazeTowards": false,
        "gazeCondition": "away",
        "faceOnLeft": false,
        "impliedDirection": 180,
        "testDirection": 0,
        "avgFps": 60,
        "minFps": 60,
        "maxFps": 60,
        "totalFrames": 59,
        "frameRates": 60
      },
      {
        "trial_number": 17,
        "trial_index": 143,
        "rt": 1037,
        "correct": true,
        "response": "ArrowRight",
        "congruent": true,
        "gazeTowards": true,
        "gazeCondition": "towards",
        "faceOnLeft": true,
        "impliedDirection": 0,
        "testDirection": 0,
        "avgFps": 60,
        "minFps": 60,
        "maxFps": 60,
        "totalFrames": 62,
        "frameRates": 60
      },
      {
        "trial_number": 18,
        "trial_index": 148,
        "rt": 806,
        "correct": true,
        "response": "ArrowLeft",
        "congruent": true,
        "gazeTowards": true,
        "gazeCondition": "towards",
        "faceOnLeft": false,
        "impliedDirection": 180,
        "testDirection": 180,
        "avgFps": 60,
        "minFps": 60,
        "maxFps": 60,
        "totalFrames": 49,
        "frameRates": 60
      },
      {
        "trial_number": 19,
        "trial_index": 153,
        "rt": 902,
        "correct": false,
        "response": "ArrowRight",
        "congruent": true,
        "gazeTowards": true,
        "gazeCondition": "towards",
        "faceOnLeft": false,
        "impliedDirection": 180,
        "testDirection": 180,
        "avgFps": 60,
        "minFps": 60,
        "maxFps": 60,
        "totalFrames": 54,
        "frameRates": 60
      },
      {
        "trial_number": 20,
        "trial_index": 158,
        "rt": 946,
        "correct": true,
        "response": "ArrowRight",
        "congruent": true,
        "gazeTowards": true,
        "gazeCondition": "towards",
        "faceOnLeft": true,
        "impliedDirection": 0,
        "testDirection": 0,
        "avgFps": 60,
        "minFps": 60,
        "maxFps": 60,
        "totalFrames": 57,
        "frameRates": 60
      },
      {
        "trial_number": 21,
        "trial_index": 163,
        "rt": 1231,
        "correct": true,
        "response": "ArrowRight",
        "congruent": false,
        "gazeTowards": true,
        "gazeCondition": "towards",
        "faceOnLeft": false,
        "impliedDirection": 180,
        "testDirection": 0,
        "avgFps": 60,
        "minFps": 60,
        "maxFps": 60,
        "totalFrames": 74,
        "frameRates": 60
      },
      {
        "trial_number": 22,
        "trial_index": 168,
        "rt": 659,
        "correct": true,
        "response": "ArrowLeft",
        "congruent": true,
        "gazeTowards": false,
        "gazeCondition": "away",
        "faceOnLeft": false,
        "impliedDirection": 180,
        "testDirection": 180,
        "avgFps": 60,
        "minFps": 60,
        "maxFps": 61,
        "totalFrames": 40,
        "frameRates": 60
      },
      {
        "trial_number": 23,
        "trial_index": 173,
        "rt": 697,
        "correct": true,
        "response": "ArrowRight",
        "congruent": true,
        "gazeTowards": true,
        "gazeCondition": "towards",
        "faceOnLeft": true,
        "impliedDirection": 0,
        "testDirection": 0,
        "avgFps": 60,
        "minFps": 60,
        "maxFps": 60,
        "totalFrames": 42,
        "frameRates": 60
      },
      {
        "trial_number": 24,
        "trial_index": 178,
        "rt": 1200,
        "correct": true,
        "response": "ArrowLeft",
        "congruent": true,
        "gazeTowards": true,
        "gazeCondition": "towards",
        "faceOnLeft": false,
        "impliedDirection": 180,
        "testDirection": 180,
        "avgFps": 60,
        "minFps": 60,
        "maxFps": 61,
        "totalFrames": 72,
        "frameRates": 60
      },
      {
        "trial_number": 25,
        "trial_index": 183,
        "rt": 771,
        "correct": true,
        "response": "ArrowRight",
        "congruent": true,
        "gazeTowards": true,
        "gazeCondition": "towards",
        "faceOnLeft": true,
        "impliedDirection": 0,
        "testDirection": 0,
        "avgFps": 60,
        "minFps": 60,
        "maxFps": 60,
        "totalFrames": 47,
        "frameRates": 60
      },
      {
        "trial_number": 26,
        "trial_index": 188,
        "rt": 626,
        "correct": true,
        "response": "ArrowRight",
        "congruent": true,
        "gazeTowards": false,
        "gazeCondition": "away",
        "faceOnLeft": true,
        "impliedDirection": 0,
        "testDirection": 0,
        "avgFps": 60,
        "minFps": 60,
        "maxFps": 60,
        "totalFrames": 37,
        "frameRates": 60
      },
      {
        "trial_number": 27,
        "trial_index": 193,
        "rt": 1122,
        "correct": true,
        "response": "ArrowRight",
        "congruent": true,
        "gazeTowards": false,
        "gazeCondition": "away",
        "faceOnLeft": true,
        "impliedDirection": 0,
        "testDirection": 0,
        "avgFps": 60,
        "minFps": 60,
        "maxFps": 61,
        "totalFrames": 67,
        "frameRates": 60
      },
      {
        "trial_number": 28,
        "trial_index": 198,
        "rt": 1020,
        "correct": false,
        "response": "ArrowLeft",
        "congruent": true,
        "gazeTowards": false,
        "gazeCondition": "away",
        "faceOnLeft": true,
        "impliedDirection": 0,
        "testDirection": 0,
        "avgFps": 61,
        "minFps": 60,
        "maxFps": 6250,
        "totalFrames": 62,
        "frameRates": 61
      },
      {
        "trial_number": 29,
        "trial_index": 203,
        "rt": 1212,
        "correct": true,
        "response": "ArrowRight",
        "congruent": false,
        "gazeTowards": false,
        "gazeCondition": "away",
        "faceOnLeft": false,
        "impliedDirection": 180,
        "testDirection": 0,
        "avgFps": 60,
        "minFps": 60,
        "maxFps": 61,
        "totalFrames": 73,
        "frameRates": 60
      },
      {
        "trial_number": 30,
        "trial_index": 212,
        "rt": 1266,
        "correct": true,
        "response": "ArrowLeft",
        "congruent": false,
        "gazeTowards": false,
        "gazeCondition": "away",
        "faceOnLeft": true,
        "impliedDirection": 0,
        "testDirection": 180,
        "avgFps": 60,
        "minFps": 60,
        "maxFps": 60,
        "totalFrames": 76,
        "frameRates": 60
      },
      {
        "trial_number": 31,
        "trial_index": 217,
        "rt": 1105,
        "correct": false,
        "response": "ArrowRight",
        "congruent": true,
        "gazeTowards": false,
        "gazeCondition": "away",
        "faceOnLeft": false,
        "impliedDirection": 180,
        "testDirection": 180,
        "avgFps": 60,
        "minFps": 60,
        "maxFps": 61,
        "totalFrames": 66,
        "frameRates": 60
      },
      {
        "trial_number": 32,
        "trial_index": 222,
        "rt": 755,
        "correct": true,
        "response": "ArrowRight",
        "congruent": false,
        "gazeTowards": true,
        "gazeCondition": "towards",
        "faceOnLeft": false,
        "impliedDirection": 180,
        "testDirection": 0,
        "avgFps": 60,
        "minFps": 60,
        "maxFps": 60,
        "totalFrames": 46,
        "frameRates": 60
      },
      {
        "trial_number": 33,
        "trial_index": 227,
        "rt": 814,
        "correct": true,
        "response": "ArrowRight",
        "congruent": true,
        "gazeTowards": false,
        "gazeCondition": "away",
        "faceOnLeft": true,
        "impliedDirection": 0,
        "testDirection": 0,
        "avgFps": 60,
        "minFps": 60,
        "maxFps": 60,
        "totalFrames": 49,
        "frameRates": 60
      },
      {
        "trial_number": 34,
        "trial_index": 232,
        "rt": 1302,
        "correct": false,
        "response": "ArrowLeft",
        "congruent": false,
        "gazeTowards": false,
        "gazeCondition": "away",
        "faceOnLeft": false,
        "impliedDirection": 180,
        "testDirection": 0,
        "avgFps": 60,
        "minFps": 60,
        "maxFps": 61,
        "totalFrames": 78,
        "frameRates": 60
      },
      {
        "trial_number": 35,
        "trial_index": 237,
        "rt": 749,
        "correct": true,
        "response": "ArrowLeft",
        "congruent": true,
        "gazeTowards": true,
        "gazeCondition": "towards",
        "faceOnLeft": false,
        "impliedDirection": 180,
        "testDirection": 180,
        "avgFps": 60,
        "minFps": 60,
        "maxFps": 60,
        "totalFrames": 45,
        "frameRates": 60
      },
      {
        "trial_number": 36,
        "trial_index": 242,
        "rt": 1028,
        "correct": true,
        "response": "ArrowRight",
        "congruent": true,
        "gazeTowards": false,
        "gazeCondition": "away",
        "faceOnLeft": true,
        "impliedDirection": 0,
        "testDirection": 0,
        "avgFps": 60,
        "minFps": 60,
        "maxFps": 60,
        "totalFrames": 62,
        "frameRates": 60
      },
      {
        "trial_number": 37,
        "trial_index": 247,
        "rt": 921,
        "correct": true,
        "response": "ArrowLeft",
        "congruent": false,
        "gazeTowards": true,
        "gazeCondition": "towards",
        "faceOnLeft": true,
        "impliedDirection": 0,
        "testDirection": 180,
        "avgFps": 61,
        "minFps": 60,
        "maxFps": 10870,
        "totalFrames": 56,
        "frameRates": 61
      },
      {
        "trial_number": 38,
        "trial_index": 252,
        "rt": 995,
        "correct": true,
        "response": "ArrowRight",
        "congruent": true,
        "gazeTowards": true,
        "gazeCondition": "towards",
        "faceOnLeft": true,
        "impliedDirection": 0,
        "testDirection": 0,
        "avgFps": 60,
        "minFps": 60,
        "maxFps": 60,
        "totalFrames": 60,
        "frameRates": 60
      },
      {
        "trial_number": 39,
        "trial_index": 257,
        "rt": 1122,
        "correct": true,
        "response": "ArrowLeft",
        "congruent": false,
        "gazeTowards": true,
        "gazeCondition": "towards",
        "faceOnLeft": true,
        "impliedDirection": 0,
        "testDirection": 180,
        "avgFps": 60,
        "minFps": 60,
        "maxFps": 60,
        "totalFrames": 67,
        "frameRates": 60
      },
      {
        "trial_number": 40,
        "trial_index": 262,
        "rt": 1078,
        "correct": true,
        "response": "ArrowRight",
        "congruent": true,
        "gazeTowards": false,
        "gazeCondition": "away",
        "faceOnLeft": true,
        "impliedDirection": 0,
        "testDirection": 0,
        "avgFps": 60,
        "minFps": 60,
        "maxFps": 61,
        "totalFrames": 64,
        "frameRates": 60
      },
      {
        "trial_number": 41,
        "trial_index": 267,
        "rt": 1255,
        "correct": true,
        "response": "ArrowLeft",
        "congruent": false,
        "gazeTowards": true,
        "gazeCondition": "towards",
        "faceOnLeft": true,
        "impliedDirection": 0,
        "testDirection": 180,
        "avgFps": 60,
        "minFps": 60,
        "maxFps": 60,
        "totalFrames": 76,
        "frameRates": 60
      },
      {
        "trial_number": 42,
        "trial_index": 272,
        "rt": 910,
        "correct": true,
        "response": "ArrowRight",
        "congruent": false,
        "gazeTowards": false,
        "gazeCondition": "away",
        "faceOnLeft": false,
        "impliedDirection": 180,
        "testDirection": 0,
        "avgFps": 60,
        "minFps": 60,
        "maxFps": 60,
        "totalFrames": 55,
        "frameRates": 60
      },
      {
        "trial_number": 43,
        "trial_index": 277,
        "rt": 1155,
        "correct": true,
        "response": "ArrowRight",
        "congruent": true,
        "gazeTowards": false,
        "gazeCondition": "away",
        "faceOnLeft": true,
        "impliedDirection": 0,
        "testDirection": 0,
        "avgFps": 60,
        "minFps": 60,
        "maxFps": 61,
        "totalFrames": 70,
        "frameRates": 60
      },
      {
        "trial_number": 44,
        "trial_index": 282,
        "rt": 869,
        "correct": true,
        "response": "ArrowLeft",
        "congruent": false,
        "gazeTowards": true,
        "gazeCondition": "towards",
        "faceOnLeft": true,
        "impliedDirection": 0,
        "testDirection": 180,
        "avgFps": 61,
        "minFps": 60,
        "maxFps": 7937,
        "totalFrames": 53,
        "frameRates": 61
      },
      {
        "trial_number": 45,
        "trial_index": 287,
        "rt": 870,
        "correct": true,
        "response": "ArrowRight",
        "congruent": true,
        "gazeTowards": false,
        "gazeCondition": "away",
        "faceOnLeft": true,
        "impliedDirection": 0,
        "testDirection": 0,
        "avgFps": 60,
        "minFps": 60,
        "maxFps": 60,
        "totalFrames": 53,
        "frameRates": 60
      },
      {
        "trial_number": 46,
        "trial_index": 292,
        "rt": 1095,
        "correct": true,
        "response": "ArrowRight",
        "congruent": false,
        "gazeTowards": false,
        "gazeCondition": "away",
        "faceOnLeft": false,
        "impliedDirection": 180,
        "testDirection": 0,
        "avgFps": 60,
        "minFps": 60,
        "maxFps": 60,
        "totalFrames": 65,
        "frameRates": 60
      },
      {
        "trial_number": 47,
        "trial_index": 297,
        "rt": 1404,
        "correct": true,
        "response": "ArrowRight",
        "congruent": true,
        "gazeTowards": true,
        "gazeCondition": "towards",
        "faceOnLeft": true,
        "impliedDirection": 0,
        "testDirection": 0,
        "avgFps": 60,
        "minFps": 60,
        "maxFps": 60,
        "totalFrames": 84,
        "frameRates": 60
      },
      {
        "trial_number": 48,
        "trial_index": 302,
        "rt": 1208,
        "correct": true,
        "response": "ArrowLeft",
        "congruent": false,
        "gazeTowards": false,
        "gazeCondition": "away",
        "faceOnLeft": true,
        "impliedDirection": 0,
        "testDirection": 180,
        "avgFps": 60,
        "minFps": 60,
        "maxFps": 61,
        "totalFrames": 72,
        "frameRates": 60
      },
      {
        "trial_number": 49,
        "trial_index": 307,
        "rt": 1267,
        "correct": true,
        "response": "ArrowRight",
        "congruent": true,
        "gazeTowards": false,
        "gazeCondition": "away",
        "faceOnLeft": true,
        "impliedDirection": 0,
        "testDirection": 0,
        "avgFps": 60,
        "minFps": 60,
        "maxFps": 60,
        "totalFrames": 76,
        "frameRates": 60
      },
      {
        "trial_number": 50,
        "trial_index": 312,
        "rt": 1058,
        "correct": true,
        "response": "ArrowRight",
        "congruent": true,
        "gazeTowards": false,
        "gazeCondition": "away",
        "faceOnLeft": true,
        "impliedDirection": 0,
        "testDirection": 0,
        "avgFps": 60,
        "minFps": 60,
        "maxFps": 60,
        "totalFrames": 64,
        "frameRates": 60
      },
      {
        "trial_number": 51,
        "trial_index": 317,
        "rt": 1357,
        "correct": true,
        "response": "ArrowLeft",
        "congruent": false,
        "gazeTowards": false,
        "gazeCondition": "away",
        "faceOnLeft": true,
        "impliedDirection": 0,
        "testDirection": 180,
        "avgFps": 60,
        "minFps": 60,
        "maxFps": 61,
        "totalFrames": 81,
        "frameRates": 60
      },
      {
        "trial_number": 52,
        "trial_index": 325,
        "rt": 935,
        "correct": true,
        "response": "ArrowRight",
        "congruent": false,
        "gazeTowards": true,
        "gazeCondition": "towards",
        "faceOnLeft": false,
        "impliedDirection": 180,
        "testDirection": 0,
        "avgFps": 60,
        "minFps": 60,
        "maxFps": 61,
        "totalFrames": 56,
        "frameRates": 60
      },
      {
        "trial_number": 53,
        "trial_index": 330,
        "rt": 1233,
        "correct": true,
        "response": "ArrowRight",
        "congruent": false,
        "gazeTowards": true,
        "gazeCondition": "towards",
        "faceOnLeft": false,
        "impliedDirection": 180,
        "testDirection": 0,
        "avgFps": 60,
        "minFps": 60,
        "maxFps": 61,
        "totalFrames": 74,
        "frameRates": 60
      },
      {
        "trial_number": 54,
        "trial_index": 335,
        "rt": 1554,
        "correct": true,
        "response": "ArrowRight",
        "congruent": true,
        "gazeTowards": true,
        "gazeCondition": "towards",
        "faceOnLeft": true,
        "impliedDirection": 0,
        "testDirection": 0,
        "avgFps": 60,
        "minFps": 60,
        "maxFps": 61,
        "totalFrames": 93,
        "frameRates": 60
      },
      {
        "trial_number": 55,
        "trial_index": 340,
        "rt": 959,
        "correct": true,
        "response": "ArrowLeft",
        "congruent": false,
        "gazeTowards": false,
        "gazeCondition": "away",
        "faceOnLeft": true,
        "impliedDirection": 0,
        "testDirection": 180,
        "avgFps": 60,
        "minFps": 60,
        "maxFps": 60,
        "totalFrames": 57,
        "frameRates": 60
      },
      {
        "trial_number": 56,
        "trial_index": 345,
        "rt": 1258,
        "correct": true,
        "response": "ArrowLeft",
        "congruent": false,
        "gazeTowards": false,
        "gazeCondition": "away",
        "faceOnLeft": true,
        "impliedDirection": 0,
        "testDirection": 180,
        "avgFps": 60,
        "minFps": 60,
        "maxFps": 60,
        "totalFrames": 75,
        "frameRates": 60
      },
      {
        "trial_number": 57,
        "trial_index": 353,
        "rt": 907,
        "correct": true,
        "response": "ArrowRight",
        "congruent": false,
        "gazeTowards": true,
        "gazeCondition": "towards",
        "faceOnLeft": false,
        "impliedDirection": 180,
        "testDirection": 0,
        "avgFps": 60,
        "minFps": 60,
        "maxFps": 61,
        "totalFrames": 54,
        "frameRates": 60
      },
      {
        "trial_number": 58,
        "trial_index": 358,
        "rt": 966,
        "correct": true,
        "response": "ArrowRight",
        "congruent": true,
        "gazeTowards": false,
        "gazeCondition": "away",
        "faceOnLeft": true,
        "impliedDirection": 0,
        "testDirection": 0,
        "avgFps": 60,
        "minFps": 60,
        "maxFps": 61,
        "totalFrames": 58,
        "frameRates": 60
      },
      {
        "trial_number": 59,
        "trial_index": 363,
        "rt": 1099,
        "correct": true,
        "response": "ArrowRight",
        "congruent": false,
        "gazeTowards": true,
        "gazeCondition": "towards",
        "faceOnLeft": false,
        "impliedDirection": 180,
        "testDirection": 0,
        "avgFps": 60,
        "minFps": 60,
        "maxFps": 60,
        "totalFrames": 66,
        "frameRates": 60
      },
      {
        "trial_number": 60,
        "trial_index": 369,
        "rt": 626,
        "correct": true,
        "response": "ArrowRight",
        "congruent": false,
        "gazeTowards": true,
        "gazeCondition": "towards",
        "faceOnLeft": false,
        "impliedDirection": 180,
        "testDirection": 0,
        "avgFps": 60,
        "minFps": 60,
        "maxFps": 60,
        "totalFrames": 37,
        "frameRates": 60
      },
      {
        "trial_number": 61,
        "trial_index": 374,
        "rt": 734,
        "correct": true,
        "response": "ArrowRight",
        "congruent": false,
        "gazeTowards": true,
        "gazeCondition": "towards",
        "faceOnLeft": false,
        "impliedDirection": 180,
        "testDirection": 0,
        "avgFps": 60,
        "minFps": 60,
        "maxFps": 60,
        "totalFrames": 44,
        "frameRates": 60
      },
      {
        "trial_number": 62,
        "trial_index": 379,
        "rt": 1045,
        "correct": true,
        "response": "ArrowLeft",
        "congruent": false,
        "gazeTowards": false,
        "gazeCondition": "away",
        "faceOnLeft": true,
        "impliedDirection": 0,
        "testDirection": 180,
        "avgFps": 60,
        "minFps": 60,
        "maxFps": 60,
        "totalFrames": 63,
        "frameRates": 60
      },
      {
        "trial_number": 63,
        "trial_index": 384,
        "rt": 1041,
        "correct": true,
        "response": "ArrowLeft",
        "congruent": true,
        "gazeTowards": true,
        "gazeCondition": "towards",
        "faceOnLeft": false,
        "impliedDirection": 180,
        "testDirection": 180,
        "avgFps": 60,
        "minFps": 60,
        "maxFps": 60,
        "totalFrames": 62,
        "frameRates": 60
      },
      {
        "trial_number": 64,
        "trial_index": 389,
        "rt": 876,
        "correct": true,
        "response": "ArrowRight",
        "congruent": false,
        "gazeTowards": false,
        "gazeCondition": "away",
        "faceOnLeft": false,
        "impliedDirection": 180,
        "testDirection": 0,
        "avgFps": 60,
        "minFps": 60,
        "maxFps": 60,
        "totalFrames": 53,
        "frameRates": 60
      },
      {
        "trial_number": 65,
        "trial_index": 397,
        "rt": 782,
        "correct": true,
        "response": "ArrowLeft",
        "congruent": true,
        "gazeTowards": false,
        "gazeCondition": "away",
        "faceOnLeft": false,
        "impliedDirection": 180,
        "testDirection": 180,
        "avgFps": 60,
        "minFps": 60,
        "maxFps": 60,
        "totalFrames": 47,
        "frameRates": 60
      },
      {
        "trial_number": 66,
        "trial_index": 402,
        "rt": 809,
        "correct": true,
        "response": "ArrowLeft",
        "congruent": true,
        "gazeTowards": false,
        "gazeCondition": "away",
        "faceOnLeft": false,
        "impliedDirection": 180,
        "testDirection": 180,
        "avgFps": 60,
        "minFps": 60,
        "maxFps": 60,
        "totalFrames": 49,
        "frameRates": 60
      },
      {
        "trial_number": 67,
        "trial_index": 407,
        "rt": 1104,
        "correct": true,
        "response": "ArrowRight",
        "congruent": false,
        "gazeTowards": false,
        "gazeCondition": "away",
        "faceOnLeft": false,
        "impliedDirection": 180,
        "testDirection": 0,
        "avgFps": 60,
        "minFps": 60,
        "maxFps": 60,
        "totalFrames": 67,
        "frameRates": 60
      },
      {
        "trial_number": 68,
        "trial_index": 412,
        "rt": 563,
        "correct": true,
        "response": "ArrowLeft",
        "congruent": true,
        "gazeTowards": false,
        "gazeCondition": "away",
        "faceOnLeft": false,
        "impliedDirection": 180,
        "testDirection": 180,
        "avgFps": 60,
        "minFps": 60,
        "maxFps": 61,
        "totalFrames": 34,
        "frameRates": 60
      },
      {
        "trial_number": 69,
        "trial_index": 417,
        "rt": 582,
        "correct": true,
        "response": "ArrowRight",
        "congruent": true,
        "gazeTowards": false,
        "gazeCondition": "away",
        "faceOnLeft": true,
        "impliedDirection": 0,
        "testDirection": 0,
        "avgFps": 60,
        "minFps": 60,
        "maxFps": 60,
        "totalFrames": 35,
        "frameRates": 60
      },
      {
        "trial_number": 70,
        "trial_index": 422,
        "rt": 1370,
        "correct": true,
        "response": "ArrowRight",
        "congruent": true,
        "gazeTowards": true,
        "gazeCondition": "towards",
        "faceOnLeft": true,
        "impliedDirection": 0,
        "testDirection": 0,
        "avgFps": 60,
        "minFps": 60,
        "maxFps": 60,
        "totalFrames": 82,
        "frameRates": 60
      },
      {
        "trial_number": 71,
        "trial_index": 430,
        "rt": 1048,
        "correct": true,
        "response": "ArrowRight",
        "congruent": false,
        "gazeTowards": false,
        "gazeCondition": "away",
        "faceOnLeft": false,
        "impliedDirection": 180,
        "testDirection": 0,
        "avgFps": 60,
        "minFps": 60,
        "maxFps": 60,
        "totalFrames": 63,
        "frameRates": 60
      },
      {
        "trial_number": 72,
        "trial_index": 435,
        "rt": 832,
        "correct": true,
        "response": "ArrowLeft",
        "congruent": true,
        "gazeTowards": false,
        "gazeCondition": "away",
        "faceOnLeft": false,
        "impliedDirection": 180,
        "testDirection": 180,
        "avgFps": 60,
        "minFps": 60,
        "maxFps": 60,
        "totalFrames": 50,
        "frameRates": 60
      },
      {
        "trial_number": 73,
        "trial_index": 440,
        "rt": 819,
        "correct": true,
        "response": "ArrowRight",
        "congruent": true,
        "gazeTowards": true,
        "gazeCondition": "towards",
        "faceOnLeft": true,
        "impliedDirection": 0,
        "testDirection": 0,
        "avgFps": 60,
        "minFps": 60,
        "maxFps": 60,
        "totalFrames": 49,
        "frameRates": 60
      },
      {
        "trial_number": 74,
        "trial_index": 445,
        "rt": 724,
        "correct": true,
        "response": "ArrowLeft",
        "congruent": false,
        "gazeTowards": false,
        "gazeCondition": "away",
        "faceOnLeft": true,
        "impliedDirection": 0,
        "testDirection": 180,
        "avgFps": 60,
        "minFps": 60,
        "maxFps": 60,
        "totalFrames": 43,
        "frameRates": 60
      },
      {
        "trial_number": 75,
        "trial_index": 453,
        "rt": 707,
        "correct": true,
        "response": "ArrowLeft",
        "congruent": true,
        "gazeTowards": false,
        "gazeCondition": "away",
        "faceOnLeft": false,
        "impliedDirection": 180,
        "testDirection": 180,
        "avgFps": 60,
        "minFps": 60,
        "maxFps": 61,
        "totalFrames": 43,
        "frameRates": 60
      },
      {
        "trial_number": 76,
        "trial_index": 458,
        "rt": 763,
        "correct": true,
        "response": "ArrowLeft",
        "congruent": false,
        "gazeTowards": true,
        "gazeCondition": "towards",
        "faceOnLeft": true,
        "impliedDirection": 0,
        "testDirection": 180,
        "avgFps": 60,
        "minFps": 60,
        "maxFps": 61,
        "totalFrames": 46,
        "frameRates": 60
      },
      {
        "trial_number": 77,
        "trial_index": 463,
        "rt": 763,
        "correct": true,
        "response": "ArrowLeft",
        "congruent": false,
        "gazeTowards": true,
        "gazeCondition": "towards",
        "faceOnLeft": true,
        "impliedDirection": 0,
        "testDirection": 180,
        "avgFps": 60,
        "minFps": 60,
        "maxFps": 60,
        "totalFrames": 46,
        "frameRates": 60
      },
      {
        "trial_number": 78,
        "trial_index": 468,
        "rt": 653,
        "correct": true,
        "response": "ArrowLeft",
        "congruent": false,
        "gazeTowards": true,
        "gazeCondition": "towards",
        "faceOnLeft": true,
        "impliedDirection": 0,
        "testDirection": 180,
        "avgFps": 60,
        "minFps": 60,
        "maxFps": 61,
        "totalFrames": 39,
        "frameRates": 60
      },
      {
        "trial_number": 79,
        "trial_index": 473,
        "rt": 1068,
        "correct": true,
        "response": "ArrowLeft",
        "congruent": false,
        "gazeTowards": true,
        "gazeCondition": "towards",
        "faceOnLeft": true,
        "impliedDirection": 0,
        "testDirection": 180,
        "avgFps": 60,
        "minFps": 60,
        "maxFps": 60,
        "totalFrames": 64,
        "frameRates": 60
      },
      {
        "trial_number": 80,
        "trial_index": 478,
        "rt": 623,
        "correct": true,
        "response": "ArrowRight",
        "congruent": true,
        "gazeTowards": false,
        "gazeCondition": "away",
        "faceOnLeft": true,
        "impliedDirection": 0,
        "testDirection": 0,
        "avgFps": 60,
        "minFps": 60,
        "maxFps": 60,
        "totalFrames": 37,
        "frameRates": 60
      },
      {
        "trial_number": 81,
        "trial_index": 483,
        "rt": 820,
        "correct": true,
        "response": "ArrowLeft",
        "congruent": false,
        "gazeTowards": false,
        "gazeCondition": "away",
        "faceOnLeft": true,
        "impliedDirection": 0,
        "testDirection": 180,
        "avgFps": 60,
        "minFps": 60,
        "maxFps": 60,
        "totalFrames": 49,
        "frameRates": 60
      },
      {
        "trial_number": 82,
        "trial_index": 488,
        "rt": 765,
        "correct": true,
        "response": "ArrowLeft",
        "congruent": false,
        "gazeTowards": false,
        "gazeCondition": "away",
        "faceOnLeft": true,
        "impliedDirection": 0,
        "testDirection": 180,
        "avgFps": 60,
        "minFps": 60,
        "maxFps": 60,
        "totalFrames": 46,
        "frameRates": 60
      },
      {
        "trial_number": 83,
        "trial_index": 493,
        "rt": 863,
        "correct": true,
        "response": "ArrowRight",
        "congruent": true,
        "gazeTowards": false,
        "gazeCondition": "away",
        "faceOnLeft": true,
        "impliedDirection": 0,
        "testDirection": 0,
        "avgFps": 61,
        "minFps": 60,
        "maxFps": 6250,
        "totalFrames": 52,
        "frameRates": 61
      },
      {
        "trial_number": 84,
        "trial_index": 498,
        "rt": 824,
        "correct": true,
        "response": "ArrowLeft",
        "congruent": true,
        "gazeTowards": false,
        "gazeCondition": "away",
        "faceOnLeft": false,
        "impliedDirection": 180,
        "testDirection": 180,
        "avgFps": 60,
        "minFps": 60,
        "maxFps": 60,
        "totalFrames": 49,
        "frameRates": 60
      },
      {
        "trial_number": 85,
        "trial_index": 503,
        "rt": 768,
        "correct": true,
        "response": "ArrowRight",
        "congruent": true,
        "gazeTowards": false,
        "gazeCondition": "away",
        "faceOnLeft": true,
        "impliedDirection": 0,
        "testDirection": 0,
        "avgFps": 60,
        "minFps": 60,
        "maxFps": 60,
        "totalFrames": 46,
        "frameRates": 60
      },
      {
        "trial_number": 86,
        "trial_index": 508,
        "rt": 1314,
        "correct": true,
        "response": "ArrowRight",
        "congruent": false,
        "gazeTowards": true,
        "gazeCondition": "towards",
        "faceOnLeft": false,
        "impliedDirection": 180,
        "testDirection": 0,
        "avgFps": 60,
        "minFps": 60,
        "maxFps": 60,
        "totalFrames": 78,
        "frameRates": 60
      },
      {
        "trial_number": 87,
        "trial_index": 513,
        "rt": 1250,
        "correct": true,
        "response": "ArrowRight",
        "congruent": true,
        "gazeTowards": true,
        "gazeCondition": "towards",
        "faceOnLeft": true,
        "impliedDirection": 0,
        "testDirection": 0,
        "avgFps": 60,
        "minFps": 60,
        "maxFps": 60,
        "totalFrames": 75,
        "frameRates": 60
      },
      {
        "trial_number": 88,
        "trial_index": 518,
        "rt": 1402,
        "correct": false,
        "response": "ArrowLeft",
        "congruent": false,
        "gazeTowards": false,
        "gazeCondition": "away",
        "faceOnLeft": false,
        "impliedDirection": 180,
        "testDirection": 0,
        "avgFps": 60,
        "minFps": 60,
        "maxFps": 60,
        "totalFrames": 84,
        "frameRates": 60
      },
      {
        "trial_number": 89,
        "trial_index": 523,
        "rt": 1266,
        "correct": true,
        "response": "ArrowRight",
        "congruent": false,
        "gazeTowards": true,
        "gazeCondition": "towards",
        "faceOnLeft": false,
        "impliedDirection": 180,
        "testDirection": 0,
        "avgFps": 60,
        "minFps": 60,
        "maxFps": 61,
        "totalFrames": 76,
        "frameRates": 60
      },
      {
        "trial_number": 90,
        "trial_index": 529,
        "rt": 914,
        "correct": true,
        "response": "ArrowLeft",
        "congruent": true,
        "gazeTowards": true,
        "gazeCondition": "towards",
        "faceOnLeft": false,
        "impliedDirection": 180,
        "testDirection": 180,
        "avgFps": 60,
        "minFps": 60,
        "maxFps": 60,
        "totalFrames": 55,
        "frameRates": 60
      },
      {
        "trial_number": 91,
        "trial_index": 534,
        "rt": 899,
        "correct": true,
        "response": "ArrowLeft",
        "congruent": false,
        "gazeTowards": true,
        "gazeCondition": "towards",
        "faceOnLeft": true,
        "impliedDirection": 0,
        "testDirection": 180,
        "avgFps": 60,
        "minFps": 60,
        "maxFps": 60,
        "totalFrames": 54,
        "frameRates": 60
      },
      {
        "trial_number": 92,
        "trial_index": 539,
        "rt": 715,
        "correct": true,
        "response": "ArrowRight",
        "congruent": true,
        "gazeTowards": true,
        "gazeCondition": "towards",
        "faceOnLeft": true,
        "impliedDirection": 0,
        "testDirection": 0,
        "avgFps": 60,
        "minFps": 60,
        "maxFps": 60,
        "totalFrames": 43,
        "frameRates": 60
      },
      {
        "trial_number": 93,
        "trial_index": 544,
        "rt": 1075,
        "correct": true,
        "response": "ArrowLeft",
        "congruent": false,
        "gazeTowards": false,
        "gazeCondition": "away",
        "faceOnLeft": true,
        "impliedDirection": 0,
        "testDirection": 180,
        "avgFps": 60,
        "minFps": 60,
        "maxFps": 61,
        "totalFrames": 64,
        "frameRates": 60
      },
      {
        "trial_number": 94,
        "trial_index": 549,
        "rt": 1029,
        "correct": true,
        "response": "ArrowRight",
        "congruent": true,
        "gazeTowards": false,
        "gazeCondition": "away",
        "faceOnLeft": true,
        "impliedDirection": 0,
        "testDirection": 0,
        "avgFps": 60,
        "minFps": 60,
        "maxFps": 60,
        "totalFrames": 62,
        "frameRates": 60
      },
      {
        "trial_number": 95,
        "trial_index": 554,
        "rt": 1039,
        "correct": true,
        "response": "ArrowLeft",
        "congruent": false,
        "gazeTowards": true,
        "gazeCondition": "towards",
        "faceOnLeft": true,
        "impliedDirection": 0,
        "testDirection": 180,
        "avgFps": 60,
        "minFps": 60,
        "maxFps": 61,
        "totalFrames": 63,
        "frameRates": 60
      },
      {
        "trial_number": 96,
        "trial_index": 559,
        "rt": 1091,
        "correct": true,
        "response": "ArrowRight",
        "congruent": false,
        "gazeTowards": true,
        "gazeCondition": "towards",
        "faceOnLeft": false,
        "impliedDirection": 180,
        "testDirection": 0,
        "avgFps": 60,
        "minFps": 60,
        "maxFps": 60,
        "totalFrames": 66,
        "frameRates": 60
      },
      {
        "trial_number": 97,
        "trial_index": 564,
        "rt": 781,
        "correct": true,
        "response": "ArrowLeft",
        "congruent": false,
        "gazeTowards": true,
        "gazeCondition": "towards",
        "faceOnLeft": true,
        "impliedDirection": 0,
        "testDirection": 180,
        "avgFps": 60,
        "minFps": 60,
        "maxFps": 60,
        "totalFrames": 46,
        "frameRates": 60
      },
      {
        "trial_number": 98,
        "trial_index": 569,
        "rt": 920,
        "correct": true,
        "response": "ArrowLeft",
        "congruent": true,
        "gazeTowards": false,
        "gazeCondition": "away",
        "faceOnLeft": false,
        "impliedDirection": 180,
        "testDirection": 180,
        "avgFps": 60,
        "minFps": 60,
        "maxFps": 60,
        "totalFrames": 55,
        "frameRates": 60
      },
      {
        "trial_number": 99,
        "trial_index": 574,
        "rt": 1465,
        "correct": true,
        "response": "ArrowLeft",
        "congruent": false,
        "gazeTowards": false,
        "gazeCondition": "away",
        "faceOnLeft": true,
        "impliedDirection": 0,
        "testDirection": 180,
        "avgFps": 60,
        "minFps": 60,
        "maxFps": 60,
        "totalFrames": 87,
        "frameRates": 60
      },
      {
        "trial_number": 100,
        "trial_index": 582,
        "rt": 1001,
        "correct": true,
        "response": "ArrowLeft",
        "congruent": true,
        "gazeTowards": true,
        "gazeCondition": "towards",
        "faceOnLeft": false,
        "impliedDirection": 180,
        "testDirection": 180,
        "avgFps": 60,
        "minFps": 60,
        "maxFps": 61,
        "totalFrames": 60,
        "frameRates": 60
      },
      {
        "trial_number": 101,
        "trial_index": 587,
        "rt": 1644,
        "correct": true,
        "response": "ArrowLeft",
        "congruent": false,
        "gazeTowards": false,
        "gazeCondition": "away",
        "faceOnLeft": true,
        "impliedDirection": 0,
        "testDirection": 180,
        "avgFps": 60,
        "minFps": 60,
        "maxFps": 60,
        "totalFrames": 98,
        "frameRates": 60
      },
      {
        "trial_number": 102,
        "trial_index": 592,
        "rt": 1171,
        "correct": true,
        "response": "ArrowRight",
        "congruent": false,
        "gazeTowards": true,
        "gazeCondition": "towards",
        "faceOnLeft": false,
        "impliedDirection": 180,
        "testDirection": 0,
        "avgFps": 60,
        "minFps": 60,
        "maxFps": 61,
        "totalFrames": 70,
        "frameRates": 60
      },
      {
        "trial_number": 103,
        "trial_index": 597,
        "rt": 786,
        "correct": true,
        "response": "ArrowLeft",
        "congruent": false,
        "gazeTowards": true,
        "gazeCondition": "towards",
        "faceOnLeft": true,
        "impliedDirection": 0,
        "testDirection": 180,
        "avgFps": 60,
        "minFps": 60,
        "maxFps": 60,
        "totalFrames": 47,
        "frameRates": 60
      },
      {
        "trial_number": 104,
        "trial_index": 602,
        "rt": 716,
        "correct": true,
        "response": "ArrowRight",
        "congruent": false,
        "gazeTowards": false,
        "gazeCondition": "away",
        "faceOnLeft": false,
        "impliedDirection": 180,
        "testDirection": 0,
        "avgFps": 60,
        "minFps": 60,
        "maxFps": 61,
        "totalFrames": 43,
        "frameRates": 60
      },
      {
        "trial_number": 105,
        "trial_index": 607,
        "rt": 1217,
        "correct": true,
        "response": "ArrowLeft",
        "congruent": true,
        "gazeTowards": false,
        "gazeCondition": "away",
        "faceOnLeft": false,
        "impliedDirection": 180,
        "testDirection": 180,
        "avgFps": 60,
        "minFps": 60,
        "maxFps": 61,
        "totalFrames": 73,
        "frameRates": 60
      },
      {
        "trial_number": 106,
        "trial_index": 612,
        "rt": 1325,
        "correct": true,
        "response": "ArrowLeft",
        "congruent": true,
        "gazeTowards": true,
        "gazeCondition": "towards",
        "faceOnLeft": false,
        "impliedDirection": 180,
        "testDirection": 180,
        "avgFps": 60,
        "minFps": 60,
        "maxFps": 60,
        "totalFrames": 79,
        "frameRates": 60
      },
      {
        "trial_number": 107,
        "trial_index": 617,
        "rt": 1064,
        "correct": true,
        "response": "ArrowLeft",
        "congruent": true,
        "gazeTowards": false,
        "gazeCondition": "away",
        "faceOnLeft": false,
        "impliedDirection": 180,
        "testDirection": 180,
        "avgFps": 60,
        "minFps": 60,
        "maxFps": 60,
        "totalFrames": 63,
        "frameRates": 60
      },
      {
        "trial_number": 108,
        "trial_index": 622,
        "rt": 753,
        "correct": true,
        "response": "ArrowRight",
        "congruent": true,
        "gazeTowards": true,
        "gazeCondition": "towards",
        "faceOnLeft": true,
        "impliedDirection": 0,
        "testDirection": 0,
        "avgFps": 60,
        "minFps": 60,
        "maxFps": 60,
        "totalFrames": 45,
        "frameRates": 60
      },
      {
        "trial_number": 109,
        "trial_index": 627,
        "rt": 656,
        "correct": true,
        "response": "ArrowLeft",
        "congruent": true,
        "gazeTowards": false,
        "gazeCondition": "away",
        "faceOnLeft": false,
        "impliedDirection": 180,
        "testDirection": 180,
        "avgFps": 60,
        "minFps": 60,
        "maxFps": 61,
        "totalFrames": 40,
        "frameRates": 60
      },
      {
        "trial_number": 110,
        "trial_index": 632,
        "rt": 674,
        "correct": true,
        "response": "ArrowRight",
        "congruent": true,
        "gazeTowards": true,
        "gazeCondition": "towards",
        "faceOnLeft": true,
        "impliedDirection": 0,
        "testDirection": 0,
        "avgFps": 60,
        "minFps": 60,
        "maxFps": 60,
        "totalFrames": 41,
        "frameRates": 60
      },
      {
        "trial_number": 111,
        "trial_index": 637,
        "rt": 699,
        "correct": true,
        "response": "ArrowRight",
        "congruent": false,
        "gazeTowards": true,
        "gazeCondition": "towards",
        "faceOnLeft": false,
        "impliedDirection": 180,
        "testDirection": 0,
        "avgFps": 61,
        "minFps": 60,
        "maxFps": 38462,
        "totalFrames": 42,
        "frameRates": 61
      },
      {
        "trial_number": 112,
        "trial_index": 642,
        "rt": 656,
        "correct": true,
        "response": "ArrowRight",
        "congruent": false,
        "gazeTowards": false,
        "gazeCondition": "away",
        "faceOnLeft": false,
        "impliedDirection": 180,
        "testDirection": 0,
        "avgFps": 60,
        "minFps": 60,
        "maxFps": 61,
        "totalFrames": 39,
        "frameRates": 60
      },
      {
        "trial_number": 113,
        "trial_index": 647,
        "rt": 616,
        "correct": true,
        "response": "ArrowRight",
        "congruent": true,
        "gazeTowards": false,
        "gazeCondition": "away",
        "faceOnLeft": true,
        "impliedDirection": 0,
        "testDirection": 0,
        "avgFps": 60,
        "minFps": 60,
        "maxFps": 60,
        "totalFrames": 37,
        "frameRates": 60
      },
      {
        "trial_number": 114,
        "trial_index": 652,
        "rt": 783,
        "correct": true,
        "response": "ArrowRight",
        "congruent": false,
        "gazeTowards": false,
        "gazeCondition": "away",
        "faceOnLeft": false,
        "impliedDirection": 180,
        "testDirection": 0,
        "avgFps": 60,
        "minFps": 60,
        "maxFps": 61,
        "totalFrames": 47,
        "frameRates": 60
      },
      {
        "trial_number": 115,
        "trial_index": 663,
        "rt": 1177,
        "correct": true,
        "response": "ArrowLeft",
        "congruent": false,
        "gazeTowards": false,
        "gazeCondition": "away",
        "faceOnLeft": true,
        "impliedDirection": 0,
        "testDirection": 180,
        "avgFps": 60,
        "minFps": 60,
        "maxFps": 61,
        "totalFrames": 71,
        "frameRates": 60
      },
      {
        "trial_number": 116,
        "trial_index": 668,
        "rt": 813,
        "correct": true,
        "response": "ArrowRight",
        "congruent": true,
        "gazeTowards": true,
        "gazeCondition": "towards",
        "faceOnLeft": true,
        "impliedDirection": 0,
        "testDirection": 0,
        "avgFps": 60,
        "minFps": 60,
        "maxFps": 61,
        "totalFrames": 49,
        "frameRates": 60
      },
      {
        "trial_number": 117,
        "trial_index": 673,
        "rt": 1069,
        "correct": true,
        "response": "ArrowLeft",
        "congruent": false,
        "gazeTowards": false,
        "gazeCondition": "away",
        "faceOnLeft": true,
        "impliedDirection": 0,
        "testDirection": 180,
        "avgFps": 60,
        "minFps": 60,
        "maxFps": 60,
        "totalFrames": 64,
        "frameRates": 60
      },
      {
        "trial_number": 118,
        "trial_index": 678,
        "rt": 1002,
        "correct": true,
        "response": "ArrowLeft",
        "congruent": true,
        "gazeTowards": true,
        "gazeCondition": "towards",
        "faceOnLeft": false,
        "impliedDirection": 180,
        "testDirection": 180,
        "avgFps": 60,
        "minFps": 60,
        "maxFps": 60,
        "totalFrames": 60,
        "frameRates": 60
      },
      {
        "trial_number": 119,
        "trial_index": 683,
        "rt": 746,
        "correct": true,
        "response": "ArrowRight",
        "congruent": false,
        "gazeTowards": true,
        "gazeCondition": "towards",
        "faceOnLeft": false,
        "impliedDirection": 180,
        "testDirection": 0,
        "avgFps": 60,
        "minFps": 60,
        "maxFps": 60,
        "totalFrames": 45,
        "frameRates": 60
      }
    ],
    "catch": {
      "total": 12,
      "correct": 12,
      "accuracy": 100,
      "meanRT": 750,
      "trials": [
        {
          "trial_number": 0,
          "trial_index": 58,
          "rt": 546,
          "correct": true,
          "colorTarget": "face",
          "gazeTowards": false,
          "gazeCondition": "away",
          "faceOnLeft": true
        },
        {
          "trial_number": 1,
          "trial_index": 101,
          "rt": 384,
          "correct": true,
          "colorTarget": "tree",
          "gazeTowards": false,
          "gazeCondition": "away",
          "faceOnLeft": true
        },
        {
          "trial_number": 2,
          "trial_index": 139,
          "rt": 592,
          "correct": true,
          "colorTarget": "face",
          "gazeTowards": true,
          "gazeCondition": "towards",
          "faceOnLeft": false
        },
        {
          "trial_number": 3,
          "trial_index": 208,
          "rt": 709,
          "correct": true,
          "colorTarget": "tree",
          "gazeTowards": false,
          "gazeCondition": "away",
          "faceOnLeft": true
        },
        {
          "trial_number": 4,
          "trial_index": 321,
          "rt": 843,
          "correct": true,
          "colorTarget": "tree",
          "gazeTowards": false,
          "gazeCondition": "away",
          "faceOnLeft": false
        },
        {
          "trial_number": 5,
          "trial_index": 349,
          "rt": 640,
          "correct": true,
          "colorTarget": "face",
          "gazeTowards": true,
          "gazeCondition": "towards",
          "faceOnLeft": true
        },
        {
          "trial_number": 6,
          "trial_index": 393,
          "rt": 850,
          "correct": true,
          "colorTarget": "face",
          "gazeTowards": false,
          "gazeCondition": "away",
          "faceOnLeft": true
        },
        {
          "trial_number": 7,
          "trial_index": 426,
          "rt": 743,
          "correct": true,
          "colorTarget": "face",
          "gazeTowards": true,
          "gazeCondition": "towards",
          "faceOnLeft": false
        },
        {
          "trial_number": 8,
          "trial_index": 449,
          "rt": 1584,
          "correct": true,
          "colorTarget": "tree",
          "gazeTowards": true,
          "gazeCondition": "towards",
          "faceOnLeft": false
        },
        {
          "trial_number": 9,
          "trial_index": 578,
          "rt": 967,
          "correct": true,
          "colorTarget": "tree",
          "gazeTowards": true,
          "gazeCondition": "towards",
          "faceOnLeft": true
        },
        {
          "trial_number": 10,
          "trial_index": 656,
          "rt": 608,
          "correct": true,
          "colorTarget": "face",
          "gazeTowards": false,
          "gazeCondition": "away",
          "faceOnLeft": true
        },
        {
          "trial_number": 11,
          "trial_index": 659,
          "rt": 536,
          "correct": true,
          "colorTarget": "tree",
          "gazeTowards": false,
          "gazeCondition": "away",
          "faceOnLeft": false
        }
      ]
    },
    "practice": {
      "trials": [
        {
          "trial_number": 0,
          "rt": null,
          "correct": false,
          "direction": 180
        },
        {
          "trial_number": 1,
          "rt": 583,
          "correct": true,
          "direction": 0
        },
        {
          "trial_number": 2,
          "rt": 912,
          "correct": true,
          "direction": 0
        },
        {
          "trial_number": 3,
          "rt": 867,
          "correct": true,
          "direction": 180
        },
        {
          "trial_number": 4,
          "rt": 589,
          "correct": true,
          "direction": 0
        },
        {
          "trial_number": 5,
          "rt": 630,
          "correct": true,
          "direction": 0
        },
        {
          "trial_number": 6,
          "rt": 711,
          "correct": true,
          "direction": 180
        },
        {
          "trial_number": 7,
          "rt": 673,
          "correct": true,
          "direction": 0
        },
        {
          "trial_number": 8,
          "rt": 781,
          "correct": true,
          "direction": 0
        },
        {
          "trial_number": 9,
          "rt": 685,
          "correct": true,
          "direction": 180
        }
      ],
      "meanRT": 715,
      "accuracy": 90
    }
  }
}