{
  "experiment": "rdk-face-1",
  "UUID": "bd13ba36-8047-4724-b5cb-006a8f4d98ec",
  "data": {
    "session": {
      "experiment_version": "1.8.6",
      "treatment": "faces_towards_away_catch",
      "file_version": "1.8.6",
      "totalTrials": 120,
      "totalTrialsIncludingCatch": 132,
      "conditions": {
        "gazeTowardsCount": 60,
        "gazeAwayCount": 60,
        "gazeTowardsAccuracy": 98,
        "gazeAwayAccuracy": 100
      },
      "session_group": "default",
      "browserData": {
        "os": "Windows",
        "browser": "Firefox",
        "screenResolution": "1536x864",
        "browserViewport": "1536x864",
        "devicePixelRatio": 1.25,
        "colorDepth": 24,
        "hardwareConcurrency": 16,
        "deviceMemory": "Unknown",
        "gpuRenderer": "ANGLE (NVIDIA, NVIDIA GeForce GTX 980 Direct3D11 vs_5_0 ps_5_0), or similar",
        "measuredRefreshRateHz": 58
      },
      "attention": {
        "visibilityEvents": [
          {
            "event": "focus",
            "state": "focused",
            "timestamp": 1772773982587
          },
          {
            "event": "blur",
            "state": "blurred",
            "timestamp": 1772774023657
          },
          {
            "event": "visibilitychange",
            "state": "hidden",
            "timestamp": 1772774023967
          },
          {
            "event": "focus",
            "state": "focused",
            "timestamp": 1772774025985
          },
          {
            "event": "visibilitychange",
            "state": "visible",
            "timestamp": 1772774025987
          }
        ]
      },
      "calibration": {
        "monitorWidthCm": 38,
        "viewingDistanceCm": 54,
        "pixelsPerDegree": 50
      },
      "parameters": {
        "coherence": 0.4,
        "apertureDeg": 5,
        "densityDotsPerDeg2": 40,
        "dotDiameterDeg": 0.035,
        "dotSpeedDegPerSec": 3,
        "lifetimeMs": 200,
        "fixationDurationMs": 1500,
        "faceDurationMs": 1500,
        "testDurationMs": 2000,
        "catchResponseMs": 3000
      },
      "prolific": {
        "prolificPid": "5e76fe122d882b2752a469e2",
        "studyId": "",
        "sessionId": ""
      },
      "timing": {
        "startTime": "2026-03-06T05:13:02.581Z",
        "endTime": "2026-03-06T05:29:54.021Z",
        "totalElapsedTimeMs": 1011440
      }
    },
    "trials": [
      {
        "trial_number": 0,
        "trial_index": 131,
        "rt": 848,
        "correct": true,
        "response": "ArrowRight",
        "congruent": true,
        "gazeTowards": true,
        "gazeCondition": "towards",
        "faceOnLeft": true,
        "impliedDirection": 0,
        "testDirection": 0,
        "avgFps": 61,
        "minFps": 60,
        "maxFps": 568,
        "totalFrames": 51,
        "frameRates": 61
      },
      {
        "trial_number": 1,
        "trial_index": 136,
        "rt": 878,
        "correct": true,
        "response": "ArrowRight",
        "congruent": false,
        "gazeTowards": true,
        "gazeCondition": "towards",
        "faceOnLeft": false,
        "impliedDirection": 180,
        "testDirection": 0,
        "avgFps": 60,
        "minFps": 60,
        "maxFps": 78,
        "totalFrames": 52,
        "frameRates": 60
      },
      {
        "trial_number": 2,
        "trial_index": 141,
        "rt": 735,
        "correct": true,
        "response": "ArrowLeft",
        "congruent": true,
        "gazeTowards": false,
        "gazeCondition": "away",
        "faceOnLeft": false,
        "impliedDirection": 180,
        "testDirection": 180,
        "avgFps": 61,
        "minFps": 60,
        "maxFps": 113,
        "totalFrames": 44,
        "frameRates": 61
      },
      {
        "trial_number": 3,
        "trial_index": 152,
        "rt": 767,
        "correct": true,
        "response": "ArrowRight",
        "congruent": false,
        "gazeTowards": false,
        "gazeCondition": "away",
        "faceOnLeft": false,
        "impliedDirection": 180,
        "testDirection": 0,
        "avgFps": 61,
        "minFps": 60,
        "maxFps": 197,
        "totalFrames": 46,
        "frameRates": 61
      },
      {
        "trial_number": 4,
        "trial_index": 157,
        "rt": 857,
        "correct": true,
        "response": "ArrowRight",
        "congruent": false,
        "gazeTowards": false,
        "gazeCondition": "away",
        "faceOnLeft": false,
        "impliedDirection": 180,
        "testDirection": 0,
        "avgFps": 60,
        "minFps": 60,
        "maxFps": 99,
        "totalFrames": 51,
        "frameRates": 60
      },
      {
        "trial_number": 5,
        "trial_index": 162,
        "rt": 691,
        "correct": true,
        "response": "ArrowRight",
        "congruent": true,
        "gazeTowards": false,
        "gazeCondition": "away",
        "faceOnLeft": true,
        "impliedDirection": 0,
        "testDirection": 0,
        "avgFps": 61,
        "minFps": 60,
        "maxFps": 602,
        "totalFrames": 42,
        "frameRates": 61
      },
      {
        "trial_number": 6,
        "trial_index": 167,
        "rt": 645,
        "correct": true,
        "response": "ArrowRight",
        "congruent": true,
        "gazeTowards": false,
        "gazeCondition": "away",
        "faceOnLeft": true,
        "impliedDirection": 0,
        "testDirection": 0,
        "avgFps": 60,
        "minFps": 60,
        "maxFps": 68,
        "totalFrames": 38,
        "frameRates": 60
      },
      {
        "trial_number": 7,
        "trial_index": 172,
        "rt": 615,
        "correct": true,
        "response": "ArrowLeft",
        "congruent": false,
        "gazeTowards": true,
        "gazeCondition": "towards",
        "faceOnLeft": true,
        "impliedDirection": 0,
        "testDirection": 180,
        "avgFps": 61,
        "minFps": 60,
        "maxFps": 120,
        "totalFrames": 37,
        "frameRates": 61
      },
      {
        "trial_number": 8,
        "trial_index": 177,
        "rt": 638,
        "correct": true,
        "response": "ArrowLeft",
        "congruent": true,
        "gazeTowards": false,
        "gazeCondition": "away",
        "faceOnLeft": false,
        "impliedDirection": 180,
        "testDirection": 180,
        "avgFps": 61,
        "minFps": 60,
        "maxFps": 123,
        "totalFrames": 38,
        "frameRates": 61
      },
      {
        "trial_number": 9,
        "trial_index": 182,
        "rt": 699,
        "correct": true,
        "response": "ArrowLeft",
        "congruent": true,
        "gazeTowards": true,
        "gazeCondition": "towards",
        "faceOnLeft": false,
        "impliedDirection": 180,
        "testDirection": 180,
        "avgFps": 60,
        "minFps": 60,
        "maxFps": 66,
        "totalFrames": 42,
        "frameRates": 60
      },
      {
        "trial_number": 10,
        "trial_index": 190,
        "rt": 739,
        "correct": true,
        "response": "ArrowLeft",
        "congruent": false,
        "gazeTowards": false,
        "gazeCondition": "away",
        "faceOnLeft": true,
        "impliedDirection": 0,
        "testDirection": 180,
        "avgFps": 61,
        "minFps": 60,
        "maxFps": 725,
        "totalFrames": 45,
        "frameRates": 61
      },
      {
        "trial_number": 11,
        "trial_index": 195,
        "rt": 684,
        "correct": true,
        "response": "ArrowLeft",
        "congruent": false,
        "gazeTowards": false,
        "gazeCondition": "away",
        "faceOnLeft": true,
        "impliedDirection": 0,
        "testDirection": 180,
        "avgFps": 60,
        "minFps": 60,
        "maxFps": 69,
        "totalFrames": 41,
        "frameRates": 60
      },
      {
        "trial_number": 12,
        "trial_index": 203,
        "rt": 637,
        "correct": true,
        "response": "ArrowRight",
        "congruent": false,
        "gazeTowards": false,
        "gazeCondition": "away",
        "faceOnLeft": false,
        "impliedDirection": 180,
        "testDirection": 0,
        "avgFps": 60,
        "minFps": 60,
        "maxFps": 71,
        "totalFrames": 38,
        "frameRates": 60
      },
      {
        "trial_number": 13,
        "trial_index": 208,
        "rt": 604,
        "correct": true,
        "response": "ArrowLeft",
        "congruent": false,
        "gazeTowards": true,
        "gazeCondition": "towards",
        "faceOnLeft": true,
        "impliedDirection": 0,
        "testDirection": 180,
        "avgFps": 61,
        "minFps": 60,
        "maxFps": 133,
        "totalFrames": 36,
        "frameRates": 61
      },
      {
        "trial_number": 14,
        "trial_index": 213,
        "rt": 606,
        "correct": true,
        "response": "ArrowLeft",
        "congruent": false,
        "gazeTowards": false,
        "gazeCondition": "away",
        "faceOnLeft": true,
        "impliedDirection": 0,
        "testDirection": 180,
        "avgFps": 61,
        "minFps": 60,
        "maxFps": 93,
        "totalFrames": 36,
        "frameRates": 61
      },
      {
        "trial_number": 15,
        "trial_index": 218,
        "rt": 657,
        "correct": true,
        "response": "ArrowLeft",
        "congruent": false,
        "gazeTowards": false,
        "gazeCondition": "away",
        "faceOnLeft": true,
        "impliedDirection": 0,
        "testDirection": 180,
        "avgFps": 61,
        "minFps": 60,
        "maxFps": 373,
        "totalFrames": 40,
        "frameRates": 61
      },
      {
        "trial_number": 16,
        "trial_index": 223,
        "rt": 812,
        "correct": true,
        "response": "ArrowLeft",
        "congruent": false,
        "gazeTowards": false,
        "gazeCondition": "away",
        "faceOnLeft": true,
        "impliedDirection": 0,
        "testDirection": 180,
        "avgFps": 61,
        "minFps": 60,
        "maxFps": 2632,
        "totalFrames": 49,
        "frameRates": 61
      },
      {
        "trial_number": 17,
        "trial_index": 228,
        "rt": 649,
        "correct": true,
        "response": "ArrowLeft",
        "congruent": true,
        "gazeTowards": true,
        "gazeCondition": "towards",
        "faceOnLeft": false,
        "impliedDirection": 180,
        "testDirection": 180,
        "avgFps": 61,
        "minFps": 60,
        "maxFps": 273,
        "totalFrames": 39,
        "frameRates": 61
      },
      {
        "trial_number": 18,
        "trial_index": 233,
        "rt": 692,
        "correct": true,
        "response": "ArrowLeft",
        "congruent": true,
        "gazeTowards": false,
        "gazeCondition": "away",
        "faceOnLeft": false,
        "impliedDirection": 180,
        "testDirection": 180,
        "avgFps": 61,
        "minFps": 60,
        "maxFps": 132,
        "totalFrames": 42,
        "frameRates": 61
      },
      {
        "trial_number": 19,
        "trial_index": 238,
        "rt": 632,
        "correct": true,
        "response": "ArrowRight",
        "congruent": false,
        "gazeTowards": false,
        "gazeCondition": "away",
        "faceOnLeft": false,
        "impliedDirection": 180,
        "testDirection": 0,
        "avgFps": 62,
        "minFps": 60,
        "maxFps": 1429,
        "totalFrames": 38,
        "frameRates": 62
      },
      {
        "trial_number": 20,
        "trial_index": 243,
        "rt": 504,
        "correct": true,
        "response": "ArrowLeft",
        "congruent": true,
        "gazeTowards": true,
        "gazeCondition": "towards",
        "faceOnLeft": false,
        "impliedDirection": 180,
        "testDirection": 180,
        "avgFps": 60,
        "minFps": 60,
        "maxFps": 61,
        "totalFrames": 30,
        "frameRates": 60
      },
      {
        "trial_number": 21,
        "trial_index": 248,
        "rt": 795,
        "correct": true,
        "response": "ArrowRight",
        "congruent": true,
        "gazeTowards": true,
        "gazeCondition": "towards",
        "faceOnLeft": true,
        "impliedDirection": 0,
        "testDirection": 0,
        "avgFps": 61,
        "minFps": 60,
        "maxFps": 239,
        "totalFrames": 48,
        "frameRates": 61
      },
      {
        "trial_number": 22,
        "trial_index": 253,
        "rt": 617,
        "correct": true,
        "response": "ArrowLeft",
        "congruent": true,
        "gazeTowards": true,
        "gazeCondition": "towards",
        "faceOnLeft": false,
        "impliedDirection": 180,
        "testDirection": 180,
        "avgFps": 60,
        "minFps": 60,
        "maxFps": 71,
        "totalFrames": 37,
        "frameRates": 60
      },
      {
        "trial_number": 23,
        "trial_index": 258,
        "rt": 631,
        "correct": true,
        "response": "ArrowRight",
        "congruent": false,
        "gazeTowards": true,
        "gazeCondition": "towards",
        "faceOnLeft": false,
        "impliedDirection": 180,
        "testDirection": 0,
        "avgFps": 62,
        "minFps": 60,
        "maxFps": 1316,
        "totalFrames": 38,
        "frameRates": 62
      },
      {
        "trial_number": 24,
        "trial_index": 263,
        "rt": 662,
        "correct": true,
        "response": "ArrowRight",
        "congruent": true,
        "gazeTowards": true,
        "gazeCondition": "towards",
        "faceOnLeft": true,
        "impliedDirection": 0,
        "testDirection": 0,
        "avgFps": 61,
        "minFps": 60,
        "maxFps": 142,
        "totalFrames": 40,
        "frameRates": 61
      },
      {
        "trial_number": 25,
        "trial_index": 268,
        "rt": 750,
        "correct": true,
        "response": "ArrowLeft",
        "congruent": true,
        "gazeTowards": true,
        "gazeCondition": "towards",
        "faceOnLeft": false,
        "impliedDirection": 180,
        "testDirection": 180,
        "avgFps": 60,
        "minFps": 60,
        "maxFps": 94,
        "totalFrames": 45,
        "frameRates": 60
      },
      {
        "trial_number": 26,
        "trial_index": 273,
        "rt": 743,
        "correct": true,
        "response": "ArrowRight",
        "congruent": false,
        "gazeTowards": true,
        "gazeCondition": "towards",
        "faceOnLeft": false,
        "impliedDirection": 180,
        "testDirection": 0,
        "avgFps": 61,
        "minFps": 60,
        "maxFps": 96,
        "totalFrames": 44,
        "frameRates": 61
      },
      {
        "trial_number": 27,
        "trial_index": 278,
        "rt": 754,
        "correct": true,
        "response": "ArrowLeft",
        "congruent": true,
        "gazeTowards": true,
        "gazeCondition": "towards",
        "faceOnLeft": false,
        "impliedDirection": 180,
        "testDirection": 180,
        "avgFps": 61,
        "minFps": 60,
        "maxFps": 138,
        "totalFrames": 45,
        "frameRates": 61
      },
      {
        "trial_number": 28,
        "trial_index": 283,
        "rt": 829,
        "correct": true,
        "response": "ArrowRight",
        "congruent": true,
        "gazeTowards": true,
        "gazeCondition": "towards",
        "faceOnLeft": true,
        "impliedDirection": 0,
        "testDirection": 0,
        "avgFps": 60,
        "minFps": 60,
        "maxFps": 96,
        "totalFrames": 50,
        "frameRates": 60
      },
      {
        "trial_number": 29,
        "trial_index": 289,
        "rt": 714,
        "correct": true,
        "response": "ArrowLeft",
        "congruent": true,
        "gazeTowards": true,
        "gazeCondition": "towards",
        "faceOnLeft": false,
        "impliedDirection": 180,
        "testDirection": 180,
        "avgFps": 61,
        "minFps": 60,
        "maxFps": 146,
        "totalFrames": 43,
        "frameRates": 61
      },
      {
        "trial_number": 30,
        "trial_index": 300,
        "rt": 868,
        "correct": true,
        "response": "ArrowLeft",
        "congruent": false,
        "gazeTowards": false,
        "gazeCondition": "away",
        "faceOnLeft": true,
        "impliedDirection": 0,
        "testDirection": 180,
        "avgFps": 60,
        "minFps": 60,
        "maxFps": 60,
        "totalFrames": 52,
        "frameRates": 60
      },
      {
        "trial_number": 31,
        "trial_index": 305,
        "rt": 605,
        "correct": true,
        "response": "ArrowRight",
        "congruent": false,
        "gazeTowards": true,
        "gazeCondition": "towards",
        "faceOnLeft": false,
        "impliedDirection": 180,
        "testDirection": 0,
        "avgFps": 61,
        "minFps": 60,
        "maxFps": 108,
        "totalFrames": 36,
        "frameRates": 61
      },
      {
        "trial_number": 32,
        "trial_index": 313,
        "rt": 742,
        "correct": true,
        "response": "ArrowLeft",
        "congruent": false,
        "gazeTowards": false,
        "gazeCondition": "away",
        "faceOnLeft": true,
        "impliedDirection": 0,
        "testDirection": 180,
        "avgFps": 60,
        "minFps": 60,
        "maxFps": 60,
        "totalFrames": 44,
        "frameRates": 60
      },
      {
        "trial_number": 33,
        "trial_index": 318,
        "rt": 608,
        "correct": true,
        "response": "ArrowLeft",
        "congruent": false,
        "gazeTowards": false,
        "gazeCondition": "away",
        "faceOnLeft": true,
        "impliedDirection": 0,
        "testDirection": 180,
        "avgFps": 60,
        "minFps": 60,
        "maxFps": 75,
        "totalFrames": 36,
        "frameRates": 60
      },
      {
        "trial_number": 34,
        "trial_index": 326,
        "rt": 987,
        "correct": true,
        "response": "ArrowLeft",
        "congruent": true,
        "gazeTowards": true,
        "gazeCondition": "towards",
        "faceOnLeft": false,
        "impliedDirection": 180,
        "testDirection": 180,
        "avgFps": 60,
        "minFps": 60,
        "maxFps": 61,
        "totalFrames": 59,
        "frameRates": 60
      },
      {
        "trial_number": 35,
        "trial_index": 331,
        "rt": 641,
        "correct": true,
        "response": "ArrowLeft",
        "congruent": true,
        "gazeTowards": true,
        "gazeCondition": "towards",
        "faceOnLeft": false,
        "impliedDirection": 180,
        "testDirection": 180,
        "avgFps": 61,
        "minFps": 60,
        "maxFps": 164,
        "totalFrames": 39,
        "frameRates": 61
      },
      {
        "trial_number": 36,
        "trial_index": 336,
        "rt": 538,
        "correct": true,
        "response": "ArrowRight",
        "congruent": true,
        "gazeTowards": true,
        "gazeCondition": "towards",
        "faceOnLeft": true,
        "impliedDirection": 0,
        "testDirection": 0,
        "avgFps": 60,
        "minFps": 60,
        "maxFps": 61,
        "totalFrames": 32,
        "frameRates": 60
      },
      {
        "trial_number": 37,
        "trial_index": 341,
        "rt": 674,
        "correct": true,
        "response": "ArrowLeft",
        "congruent": true,
        "gazeTowards": false,
        "gazeCondition": "away",
        "faceOnLeft": false,
        "impliedDirection": 180,
        "testDirection": 180,
        "avgFps": 61,
        "minFps": 60,
        "maxFps": 161,
        "totalFrames": 41,
        "frameRates": 61
      },
      {
        "trial_number": 38,
        "trial_index": 346,
        "rt": 641,
        "correct": true,
        "response": "ArrowRight",
        "congruent": false,
        "gazeTowards": true,
        "gazeCondition": "towards",
        "faceOnLeft": false,
        "impliedDirection": 180,
        "testDirection": 0,
        "avgFps": 61,
        "minFps": 60,
        "maxFps": 360,
        "totalFrames": 39,
        "frameRates": 61
      },
      {
        "trial_number": 39,
        "trial_index": 351,
        "rt": 756,
        "correct": true,
        "response": "ArrowRight",
        "congruent": true,
        "gazeTowards": false,
        "gazeCondition": "away",
        "faceOnLeft": true,
        "impliedDirection": 0,
        "testDirection": 0,
        "avgFps": 60,
        "minFps": 60,
        "maxFps": 62,
        "totalFrames": 45,
        "frameRates": 60
      },
      {
        "trial_number": 40,
        "trial_index": 356,
        "rt": 536,
        "correct": true,
        "response": "ArrowLeft",
        "congruent": true,
        "gazeTowards": true,
        "gazeCondition": "towards",
        "faceOnLeft": false,
        "impliedDirection": 180,
        "testDirection": 180,
        "avgFps": 60,
        "minFps": 60,
        "maxFps": 68,
        "totalFrames": 32,
        "frameRates": 60
      },
      {
        "trial_number": 41,
        "trial_index": 361,
        "rt": 799,
        "correct": true,
        "response": "ArrowRight",
        "congruent": true,
        "gazeTowards": false,
        "gazeCondition": "away",
        "faceOnLeft": true,
        "impliedDirection": 0,
        "testDirection": 0,
        "avgFps": 61,
        "minFps": 60,
        "maxFps": 131,
        "totalFrames": 48,
        "frameRates": 61
      },
      {
        "trial_number": 42,
        "trial_index": 366,
        "rt": 753,
        "correct": true,
        "response": "ArrowRight",
        "congruent": false,
        "gazeTowards": false,
        "gazeCondition": "away",
        "faceOnLeft": false,
        "impliedDirection": 180,
        "testDirection": 0,
        "avgFps": 61,
        "minFps": 60,
        "maxFps": 127,
        "totalFrames": 45,
        "frameRates": 61
      },
      {
        "trial_number": 43,
        "trial_index": 371,
        "rt": 680,
        "correct": true,
        "response": "ArrowLeft",
        "congruent": false,
        "gazeTowards": false,
        "gazeCondition": "away",
        "faceOnLeft": true,
        "impliedDirection": 0,
        "testDirection": 180,
        "avgFps": 60,
        "minFps": 60,
        "maxFps": 75,
        "totalFrames": 40,
        "frameRates": 60
      },
      {
        "trial_number": 44,
        "trial_index": 376,
        "rt": 815,
        "correct": true,
        "response": "ArrowLeft",
        "congruent": false,
        "gazeTowards": true,
        "gazeCondition": "towards",
        "faceOnLeft": true,
        "impliedDirection": 0,
        "testDirection": 180,
        "avgFps": 60,
        "minFps": 60,
        "maxFps": 64,
        "totalFrames": 48,
        "frameRates": 60
      },
      {
        "trial_number": 45,
        "trial_index": 381,
        "rt": 781,
        "correct": true,
        "response": "ArrowLeft",
        "congruent": true,
        "gazeTowards": true,
        "gazeCondition": "towards",
        "faceOnLeft": false,
        "impliedDirection": 180,
        "testDirection": 180,
        "avgFps": 61,
        "minFps": 60,
        "maxFps": 424,
        "totalFrames": 47,
        "frameRates": 61
      },
      {
        "trial_number": 46,
        "trial_index": 386,
        "rt": 773,
        "correct": true,
        "response": "ArrowLeft",
        "congruent": true,
        "gazeTowards": false,
        "gazeCondition": "away",
        "faceOnLeft": false,
        "impliedDirection": 180,
        "testDirection": 180,
        "avgFps": 60,
        "minFps": 60,
        "maxFps": 63,
        "totalFrames": 46,
        "frameRates": 60
      },
      {
        "trial_number": 47,
        "trial_index": 391,
        "rt": 740,
        "correct": true,
        "response": "ArrowLeft",
        "congruent": false,
        "gazeTowards": true,
        "gazeCondition": "towards",
        "faceOnLeft": true,
        "impliedDirection": 0,
        "testDirection": 180,
        "avgFps": 61,
        "minFps": 60,
        "maxFps": 176,
        "totalFrames": 45,
        "frameRates": 61
      },
      {
        "trial_number": 48,
        "trial_index": 396,
        "rt": 622,
        "correct": true,
        "response": "ArrowRight",
        "congruent": false,
        "gazeTowards": false,
        "gazeCondition": "away",
        "faceOnLeft": false,
        "impliedDirection": 180,
        "testDirection": 0,
        "avgFps": 60,
        "minFps": 60,
        "maxFps": 64,
        "totalFrames": 37,
        "frameRates": 60
      },
      {
        "trial_number": 49,
        "trial_index": 401,
        "rt": 813,
        "correct": true,
        "response": "ArrowRight",
        "congruent": true,
        "gazeTowards": true,
        "gazeCondition": "towards",
        "faceOnLeft": true,
        "impliedDirection": 0,
        "testDirection": 0,
        "avgFps": 60,
        "minFps": 60,
        "maxFps": 64,
        "totalFrames": 48,
        "frameRates": 60
      },
      {
        "trial_number": 50,
        "trial_index": 406,
        "rt": 694,
        "correct": true,
        "response": "ArrowLeft",
        "congruent": true,
        "gazeTowards": true,
        "gazeCondition": "towards",
        "faceOnLeft": false,
        "impliedDirection": 180,
        "testDirection": 180,
        "avgFps": 61,
        "minFps": 60,
        "maxFps": 246,
        "totalFrames": 42,
        "frameRates": 61
      },
      {
        "trial_number": 51,
        "trial_index": 411,
        "rt": 856,
        "correct": true,
        "response": "ArrowLeft",
        "congruent": true,
        "gazeTowards": false,
        "gazeCondition": "away",
        "faceOnLeft": false,
        "impliedDirection": 180,
        "testDirection": 180,
        "avgFps": 60,
        "minFps": 60,
        "maxFps": 84,
        "totalFrames": 51,
        "frameRates": 60
      },
      {
        "trial_number": 52,
        "trial_index": 416,
        "rt": 723,
        "correct": true,
        "response": "ArrowLeft",
        "congruent": true,
        "gazeTowards": true,
        "gazeCondition": "towards",
        "faceOnLeft": false,
        "impliedDirection": 180,
        "testDirection": 180,
        "avgFps": 61,
        "minFps": 60,
        "maxFps": 189,
        "totalFrames": 44,
        "frameRates": 61
      },
      {
        "trial_number": 53,
        "trial_index": 421,
        "rt": 804,
        "correct": true,
        "response": "ArrowLeft",
        "congruent": false,
        "gazeTowards": false,
        "gazeCondition": "away",
        "faceOnLeft": true,
        "impliedDirection": 0,
        "testDirection": 180,
        "avgFps": 61,
        "minFps": 60,
        "maxFps": 198,
        "totalFrames": 48,
        "frameRates": 61
      },
      {
        "trial_number": 54,
        "trial_index": 426,
        "rt": 793,
        "correct": true,
        "response": "ArrowRight",
        "congruent": false,
        "gazeTowards": false,
        "gazeCondition": "away",
        "faceOnLeft": false,
        "impliedDirection": 180,
        "testDirection": 0,
        "avgFps": 60,
        "minFps": 60,
        "maxFps": 84,
        "totalFrames": 47,
        "frameRates": 60
      },
      {
        "trial_number": 55,
        "trial_index": 431,
        "rt": 773,
        "correct": true,
        "response": "ArrowRight",
        "congruent": false,
        "gazeTowards": true,
        "gazeCondition": "towards",
        "faceOnLeft": false,
        "impliedDirection": 180,
        "testDirection": 0,
        "avgFps": 61,
        "minFps": 60,
        "maxFps": 194,
        "totalFrames": 47,
        "frameRates": 61
      },
      {
        "trial_number": 56,
        "trial_index": 436,
        "rt": 825,
        "correct": true,
        "response": "ArrowRight",
        "congruent": true,
        "gazeTowards": false,
        "gazeCondition": "away",
        "faceOnLeft": true,
        "impliedDirection": 0,
        "testDirection": 0,
        "avgFps": 61,
        "minFps": 60,
        "maxFps": 521,
        "totalFrames": 50,
        "frameRates": 61
      },
      {
        "trial_number": 57,
        "trial_index": 441,
        "rt": 691,
        "correct": true,
        "response": "ArrowLeft",
        "congruent": true,
        "gazeTowards": false,
        "gazeCondition": "away",
        "faceOnLeft": false,
        "impliedDirection": 180,
        "testDirection": 180,
        "avgFps": 61,
        "minFps": 60,
        "maxFps": 202,
        "totalFrames": 42,
        "frameRates": 61
      },
      {
        "trial_number": 58,
        "trial_index": 447,
        "rt": 746,
        "correct": true,
        "response": "ArrowRight",
        "congruent": true,
        "gazeTowards": false,
        "gazeCondition": "away",
        "faceOnLeft": true,
        "impliedDirection": 0,
        "testDirection": 0,
        "avgFps": 60,
        "minFps": 60,
        "maxFps": 85,
        "totalFrames": 45,
        "frameRates": 60
      },
      {
        "trial_number": 59,
        "trial_index": 452,
        "rt": 646,
        "correct": true,
        "response": "ArrowLeft",
        "congruent": true,
        "gazeTowards": false,
        "gazeCondition": "away",
        "faceOnLeft": false,
        "impliedDirection": 180,
        "testDirection": 180,
        "avgFps": 61,
        "minFps": 60,
        "maxFps": 244,
        "totalFrames": 39,
        "frameRates": 61
      },
      {
        "trial_number": 60,
        "trial_index": 460,
        "rt": 706,
        "correct": true,
        "response": "ArrowLeft",
        "congruent": false,
        "gazeTowards": false,
        "gazeCondition": "away",
        "faceOnLeft": true,
        "impliedDirection": 0,
        "testDirection": 180,
        "avgFps": 60,
        "minFps": 60,
        "maxFps": 65,
        "totalFrames": 42,
        "frameRates": 60
      },
      {
        "trial_number": 61,
        "trial_index": 465,
        "rt": 685,
        "correct": true,
        "response": "ArrowRight",
        "congruent": false,
        "gazeTowards": false,
        "gazeCondition": "away",
        "faceOnLeft": false,
        "impliedDirection": 180,
        "testDirection": 0,
        "avgFps": 60,
        "minFps": 60,
        "maxFps": 76,
        "totalFrames": 41,
        "frameRates": 60
      },
      {
        "trial_number": 62,
        "trial_index": 470,
        "rt": 665,
        "correct": true,
        "response": "ArrowRight",
        "congruent": false,
        "gazeTowards": true,
        "gazeCondition": "towards",
        "faceOnLeft": false,
        "impliedDirection": 180,
        "testDirection": 0,
        "avgFps": 61,
        "minFps": 60,
        "maxFps": 215,
        "totalFrames": 40,
        "frameRates": 61
      },
      {
        "trial_number": 63,
        "trial_index": 475,
        "rt": 608,
        "correct": true,
        "response": "ArrowRight",
        "congruent": true,
        "gazeTowards": false,
        "gazeCondition": "away",
        "faceOnLeft": true,
        "impliedDirection": 0,
        "testDirection": 0,
        "avgFps": 61,
        "minFps": 60,
        "maxFps": 89,
        "totalFrames": 36,
        "frameRates": 61
      },
      {
        "trial_number": 64,
        "trial_index": 480,
        "rt": 811,
        "correct": true,
        "response": "ArrowRight",
        "congruent": false,
        "gazeTowards": true,
        "gazeCondition": "towards",
        "faceOnLeft": false,
        "impliedDirection": 180,
        "testDirection": 0,
        "avgFps": 61,
        "minFps": 60,
        "maxFps": 216,
        "totalFrames": 49,
        "frameRates": 61
      },
      {
        "trial_number": 65,
        "trial_index": 485,
        "rt": 662,
        "correct": true,
        "response": "ArrowLeft",
        "congruent": true,
        "gazeTowards": true,
        "gazeCondition": "towards",
        "faceOnLeft": false,
        "impliedDirection": 180,
        "testDirection": 180,
        "avgFps": 61,
        "minFps": 60,
        "maxFps": 217,
        "totalFrames": 40,
        "frameRates": 61
      },
      {
        "trial_number": 66,
        "trial_index": 490,
        "rt": 767,
        "correct": true,
        "response": "ArrowLeft",
        "congruent": false,
        "gazeTowards": true,
        "gazeCondition": "towards",
        "faceOnLeft": true,
        "impliedDirection": 0,
        "testDirection": 180,
        "avgFps": 61,
        "minFps": 60,
        "maxFps": 943,
        "totalFrames": 46,
        "frameRates": 61
      },
      {
        "trial_number": 67,
        "trial_index": 495,
        "rt": 713,
        "correct": true,
        "response": "ArrowRight",
        "congruent": false,
        "gazeTowards": true,
        "gazeCondition": "towards",
        "faceOnLeft": false,
        "impliedDirection": 180,
        "testDirection": 0,
        "avgFps": 60,
        "minFps": 60,
        "maxFps": 88,
        "totalFrames": 43,
        "frameRates": 60
      },
      {
        "trial_number": 68,
        "trial_index": 500,
        "rt": 881,
        "correct": true,
        "response": "ArrowRight",
        "congruent": false,
        "gazeTowards": false,
        "gazeCondition": "away",
        "faceOnLeft": false,
        "impliedDirection": 180,
        "testDirection": 0,
        "avgFps": 60,
        "minFps": 60,
        "maxFps": 70,
        "totalFrames": 52,
        "frameRates": 60
      },
      {
        "trial_number": 69,
        "trial_index": 505,
        "rt": 865,
        "correct": true,
        "response": "ArrowRight",
        "congruent": false,
        "gazeTowards": false,
        "gazeCondition": "away",
        "faceOnLeft": false,
        "impliedDirection": 180,
        "testDirection": 0,
        "avgFps": 61,
        "minFps": 60,
        "maxFps": 134,
        "totalFrames": 52,
        "frameRates": 61
      },
      {
        "trial_number": 70,
        "trial_index": 510,
        "rt": 669,
        "correct": true,
        "response": "ArrowLeft",
        "congruent": false,
        "gazeTowards": true,
        "gazeCondition": "towards",
        "faceOnLeft": true,
        "impliedDirection": 0,
        "testDirection": 180,
        "avgFps": 61,
        "minFps": 60,
        "maxFps": 223,
        "totalFrames": 40,
        "frameRates": 61
      },
      {
        "trial_number": 71,
        "trial_index": 515,
        "rt": 743,
        "correct": true,
        "response": "ArrowRight",
        "congruent": false,
        "gazeTowards": true,
        "gazeCondition": "towards",
        "faceOnLeft": false,
        "impliedDirection": 180,
        "testDirection": 0,
        "avgFps": 60,
        "minFps": 60,
        "maxFps": 92,
        "totalFrames": 45,
        "frameRates": 60
      },
      {
        "trial_number": 72,
        "trial_index": 520,
        "rt": 783,
        "correct": true,
        "response": "ArrowRight",
        "congruent": false,
        "gazeTowards": false,
        "gazeCondition": "away",
        "faceOnLeft": false,
        "impliedDirection": 180,
        "testDirection": 0,
        "avgFps": 60,
        "minFps": 60,
        "maxFps": 71,
        "totalFrames": 47,
        "frameRates": 60
      },
      {
        "trial_number": 73,
        "trial_index": 525,
        "rt": 707,
        "correct": true,
        "response": "ArrowRight",
        "congruent": true,
        "gazeTowards": false,
        "gazeCondition": "away",
        "faceOnLeft": true,
        "impliedDirection": 0,
        "testDirection": 0,
        "avgFps": 61,
        "minFps": 60,
        "maxFps": 95,
        "totalFrames": 42,
        "frameRates": 61
      },
      {
        "trial_number": 74,
        "trial_index": 530,
        "rt": 787,
        "correct": true,
        "response": "ArrowRight",
        "congruent": true,
        "gazeTowards": true,
        "gazeCondition": "towards",
        "faceOnLeft": true,
        "impliedDirection": 0,
        "testDirection": 0,
        "avgFps": 61,
        "minFps": 60,
        "maxFps": 137,
        "totalFrames": 47,
        "frameRates": 61
      },
      {
        "trial_number": 75,
        "trial_index": 535,
        "rt": 797,
        "correct": true,
        "response": "ArrowRight",
        "congruent": true,
        "gazeTowards": false,
        "gazeCondition": "away",
        "faceOnLeft": true,
        "impliedDirection": 0,
        "testDirection": 0,
        "avgFps": 60,
        "minFps": 60,
        "maxFps": 92,
        "totalFrames": 48,
        "frameRates": 60
      },
      {
        "trial_number": 76,
        "trial_index": 540,
        "rt": 1019,
        "correct": true,
        "response": "ArrowRight",
        "congruent": true,
        "gazeTowards": false,
        "gazeCondition": "away",
        "faceOnLeft": true,
        "impliedDirection": 0,
        "testDirection": 0,
        "avgFps": 61,
        "minFps": 60,
        "maxFps": 806,
        "totalFrames": 62,
        "frameRates": 61
      },
      {
        "trial_number": 77,
        "trial_index": 545,
        "rt": 613,
        "correct": true,
        "response": "ArrowLeft",
        "congruent": false,
        "gazeTowards": true,
        "gazeCondition": "towards",
        "faceOnLeft": true,
        "impliedDirection": 0,
        "testDirection": 180,
        "avgFps": 61,
        "minFps": 60,
        "maxFps": 312,
        "totalFrames": 37,
        "frameRates": 61
      },
      {
        "trial_number": 78,
        "trial_index": 550,
        "rt": 620,
        "correct": true,
        "response": "ArrowLeft",
        "congruent": false,
        "gazeTowards": true,
        "gazeCondition": "towards",
        "faceOnLeft": true,
        "impliedDirection": 0,
        "testDirection": 180,
        "avgFps": 61,
        "minFps": 60,
        "maxFps": 101,
        "totalFrames": 37,
        "frameRates": 61
      },
      {
        "trial_number": 79,
        "trial_index": 555,
        "rt": 659,
        "correct": true,
        "response": "ArrowRight",
        "congruent": false,
        "gazeTowards": false,
        "gazeCondition": "away",
        "faceOnLeft": false,
        "impliedDirection": 180,
        "testDirection": 0,
        "avgFps": 60,
        "minFps": 60,
        "maxFps": 70,
        "totalFrames": 39,
        "frameRates": 60
      },
      {
        "trial_number": 80,
        "trial_index": 560,
        "rt": 646,
        "correct": true,
        "response": "ArrowLeft",
        "congruent": true,
        "gazeTowards": true,
        "gazeCondition": "towards",
        "faceOnLeft": false,
        "impliedDirection": 180,
        "testDirection": 180,
        "avgFps": 61,
        "minFps": 60,
        "maxFps": 151,
        "totalFrames": 39,
        "frameRates": 61
      },
      {
        "trial_number": 81,
        "trial_index": 565,
        "rt": 765,
        "correct": true,
        "response": "ArrowLeft",
        "congruent": false,
        "gazeTowards": false,
        "gazeCondition": "away",
        "faceOnLeft": true,
        "impliedDirection": 0,
        "testDirection": 180,
        "avgFps": 61,
        "minFps": 60,
        "maxFps": 231,
        "totalFrames": 46,
        "frameRates": 61
      },
      {
        "trial_number": 82,
        "trial_index": 570,
        "rt": 607,
        "correct": true,
        "response": "ArrowRight",
        "congruent": false,
        "gazeTowards": true,
        "gazeCondition": "towards",
        "faceOnLeft": false,
        "impliedDirection": 180,
        "testDirection": 0,
        "avgFps": 61,
        "minFps": 60,
        "maxFps": 278,
        "totalFrames": 37,
        "frameRates": 61
      },
      {
        "trial_number": 83,
        "trial_index": 575,
        "rt": 643,
        "correct": true,
        "response": "ArrowRight",
        "congruent": false,
        "gazeTowards": true,
        "gazeCondition": "towards",
        "faceOnLeft": false,
        "impliedDirection": 180,
        "testDirection": 0,
        "avgFps": 61,
        "minFps": 60,
        "maxFps": 145,
        "totalFrames": 39,
        "frameRates": 61
      },
      {
        "trial_number": 84,
        "trial_index": 580,
        "rt": 503,
        "correct": true,
        "response": "ArrowLeft",
        "congruent": false,
        "gazeTowards": true,
        "gazeCondition": "towards",
        "faceOnLeft": true,
        "impliedDirection": 0,
        "testDirection": 180,
        "avgFps": 60,
        "minFps": 60,
        "maxFps": 60,
        "totalFrames": 30,
        "frameRates": 60
      },
      {
        "trial_number": 85,
        "trial_index": 585,
        "rt": 706,
        "correct": true,
        "response": "ArrowRight",
        "congruent": true,
        "gazeTowards": true,
        "gazeCondition": "towards",
        "faceOnLeft": true,
        "impliedDirection": 0,
        "testDirection": 0,
        "avgFps": 61,
        "minFps": 60,
        "maxFps": 99,
        "totalFrames": 42,
        "frameRates": 61
      },
      {
        "trial_number": 86,
        "trial_index": 590,
        "rt": 586,
        "correct": true,
        "response": "ArrowRight",
        "congruent": true,
        "gazeTowards": false,
        "gazeCondition": "away",
        "faceOnLeft": true,
        "impliedDirection": 0,
        "testDirection": 0,
        "avgFps": 60,
        "minFps": 60,
        "maxFps": 74,
        "totalFrames": 35,
        "frameRates": 60
      },
      {
        "trial_number": 87,
        "trial_index": 595,
        "rt": 700,
        "correct": true,
        "response": "ArrowRight",
        "congruent": false,
        "gazeTowards": false,
        "gazeCondition": "away",
        "faceOnLeft": false,
        "impliedDirection": 180,
        "testDirection": 0,
        "avgFps": 61,
        "minFps": 60,
        "maxFps": 103,
        "totalFrames": 42,
        "frameRates": 61
      },
      {
        "trial_number": 88,
        "trial_index": 600,
        "rt": 544,
        "correct": true,
        "response": "ArrowLeft",
        "congruent": true,
        "gazeTowards": true,
        "gazeCondition": "towards",
        "faceOnLeft": false,
        "impliedDirection": 180,
        "testDirection": 180,
        "avgFps": 61,
        "minFps": 60,
        "maxFps": 84,
        "totalFrames": 32,
        "frameRates": 61
      },
      {
        "trial_number": 89,
        "trial_index": 605,
        "rt": 614,
        "correct": true,
        "response": "ArrowLeft",
        "congruent": false,
        "gazeTowards": true,
        "gazeCondition": "towards",
        "faceOnLeft": true,
        "impliedDirection": 0,
        "testDirection": 180,
        "avgFps": 60,
        "minFps": 60,
        "maxFps": 64,
        "totalFrames": 36,
        "frameRates": 60
      },
      {
        "trial_number": 90,
        "trial_index": 611,
        "rt": 849,
        "correct": true,
        "response": "ArrowRight",
        "congruent": true,
        "gazeTowards": false,
        "gazeCondition": "away",
        "faceOnLeft": true,
        "impliedDirection": 0,
        "testDirection": 0,
        "avgFps": 61,
        "minFps": 60,
        "maxFps": 123,
        "totalFrames": 51,
        "frameRates": 61
      },
      {
        "trial_number": 91,
        "trial_index": 616,
        "rt": 841,
        "correct": true,
        "response": "ArrowLeft",
        "congruent": false,
        "gazeTowards": true,
        "gazeCondition": "towards",
        "faceOnLeft": true,
        "impliedDirection": 0,
        "testDirection": 180,
        "avgFps": 60,
        "minFps": 60,
        "maxFps": 89,
        "totalFrames": 50,
        "frameRates": 60
      },
      {
        "trial_number": 92,
        "trial_index": 621,
        "rt": 655,
        "correct": true,
        "response": "ArrowLeft",
        "congruent": true,
        "gazeTowards": true,
        "gazeCondition": "towards",
        "faceOnLeft": false,
        "impliedDirection": 180,
        "testDirection": 180,
        "avgFps": 61,
        "minFps": 60,
        "maxFps": 980,
        "totalFrames": 40,
        "frameRates": 61
      },
      {
        "trial_number": 93,
        "trial_index": 626,
        "rt": 677,
        "correct": true,
        "response": "ArrowRight",
        "congruent": true,
        "gazeTowards": true,
        "gazeCondition": "towards",
        "faceOnLeft": true,
        "impliedDirection": 0,
        "testDirection": 0,
        "avgFps": 60,
        "minFps": 60,
        "maxFps": 71,
        "totalFrames": 40,
        "frameRates": 60
      },
      {
        "trial_number": 94,
        "trial_index": 631,
        "rt": 729,
        "correct": true,
        "response": "ArrowRight",
        "congruent": true,
        "gazeTowards": false,
        "gazeCondition": "away",
        "faceOnLeft": true,
        "impliedDirection": 0,
        "testDirection": 0,
        "avgFps": 61,
        "minFps": 60,
        "maxFps": 107,
        "totalFrames": 44,
        "frameRates": 61
      },
      {
        "trial_number": 95,
        "trial_index": 636,
        "rt": 676,
        "correct": true,
        "response": "ArrowRight",
        "congruent": true,
        "gazeTowards": false,
        "gazeCondition": "away",
        "faceOnLeft": true,
        "impliedDirection": 0,
        "testDirection": 0,
        "avgFps": 61,
        "minFps": 60,
        "maxFps": 127,
        "totalFrames": 41,
        "frameRates": 61
      },
      {
        "trial_number": 96,
        "trial_index": 644,
        "rt": 732,
        "correct": true,
        "response": "ArrowLeft",
        "congruent": true,
        "gazeTowards": true,
        "gazeCondition": "towards",
        "faceOnLeft": false,
        "impliedDirection": 180,
        "testDirection": 180,
        "avgFps": 60,
        "minFps": 60,
        "maxFps": 78,
        "totalFrames": 44,
        "frameRates": 60
      },
      {
        "trial_number": 97,
        "trial_index": 649,
        "rt": 713,
        "correct": true,
        "response": "ArrowRight",
        "congruent": true,
        "gazeTowards": false,
        "gazeCondition": "away",
        "faceOnLeft": true,
        "impliedDirection": 0,
        "testDirection": 0,
        "avgFps": 61,
        "minFps": 60,
        "maxFps": 206,
        "totalFrames": 43,
        "frameRates": 61
      },
      {
        "trial_number": 98,
        "trial_index": 654,
        "rt": 846,
        "correct": true,
        "response": "ArrowLeft",
        "congruent": false,
        "gazeTowards": false,
        "gazeCondition": "away",
        "faceOnLeft": true,
        "impliedDirection": 0,
        "testDirection": 180,
        "avgFps": 61,
        "minFps": 60,
        "maxFps": 649,
        "totalFrames": 51,
        "frameRates": 61
      },
      {
        "trial_number": 99,
        "trial_index": 659,
        "rt": 783,
        "correct": true,
        "response": "ArrowLeft",
        "congruent": false,
        "gazeTowards": true,
        "gazeCondition": "towards",
        "faceOnLeft": true,
        "impliedDirection": 0,
        "testDirection": 180,
        "avgFps": 60,
        "minFps": 60,
        "maxFps": 88,
        "totalFrames": 47,
        "frameRates": 60
      },
      {
        "trial_number": 100,
        "trial_index": 664,
        "rt": 820,
        "correct": true,
        "response": "ArrowLeft",
        "congruent": false,
        "gazeTowards": true,
        "gazeCondition": "towards",
        "faceOnLeft": true,
        "impliedDirection": 0,
        "testDirection": 180,
        "avgFps": 61,
        "minFps": 60,
        "maxFps": 210,
        "totalFrames": 49,
        "frameRates": 61
      },
      {
        "trial_number": 101,
        "trial_index": 669,
        "rt": 819,
        "correct": true,
        "response": "ArrowLeft",
        "congruent": false,
        "gazeTowards": true,
        "gazeCondition": "towards",
        "faceOnLeft": true,
        "impliedDirection": 0,
        "testDirection": 180,
        "avgFps": 60,
        "minFps": 60,
        "maxFps": 72,
        "totalFrames": 49,
        "frameRates": 60
      },
      {
        "trial_number": 102,
        "trial_index": 674,
        "rt": 957,
        "correct": false,
        "response": "ArrowRight",
        "congruent": false,
        "gazeTowards": true,
        "gazeCondition": "towards",
        "faceOnLeft": true,
        "impliedDirection": 0,
        "testDirection": 180,
        "avgFps": 61,
        "minFps": 60,
        "maxFps": 263,
        "totalFrames": 58,
        "frameRates": 61
      },
      {
        "trial_number": 103,
        "trial_index": 679,
        "rt": 730,
        "correct": true,
        "response": "ArrowLeft",
        "congruent": true,
        "gazeTowards": false,
        "gazeCondition": "away",
        "faceOnLeft": false,
        "impliedDirection": 180,
        "testDirection": 180,
        "avgFps": 60,
        "minFps": 60,
        "maxFps": 65,
        "totalFrames": 43,
        "frameRates": 60
      },
      {
        "trial_number": 104,
        "trial_index": 684,
        "rt": 693,
        "correct": true,
        "response": "ArrowLeft",
        "congruent": false,
        "gazeTowards": false,
        "gazeCondition": "away",
        "faceOnLeft": true,
        "impliedDirection": 0,
        "testDirection": 180,
        "avgFps": 60,
        "minFps": 60,
        "maxFps": 89,
        "totalFrames": 41,
        "frameRates": 60
      },
      {
        "trial_number": 105,
        "trial_index": 689,
        "rt": 610,
        "correct": true,
        "response": "ArrowRight",
        "congruent": false,
        "gazeTowards": true,
        "gazeCondition": "towards",
        "faceOnLeft": false,
        "impliedDirection": 180,
        "testDirection": 0,
        "avgFps": 61,
        "minFps": 60,
        "maxFps": 208,
        "totalFrames": 37,
        "frameRates": 61
      },
      {
        "trial_number": 106,
        "trial_index": 694,
        "rt": 681,
        "correct": true,
        "response": "ArrowRight",
        "congruent": true,
        "gazeTowards": false,
        "gazeCondition": "away",
        "faceOnLeft": true,
        "impliedDirection": 0,
        "testDirection": 0,
        "avgFps": 61,
        "minFps": 60,
        "maxFps": 251,
        "totalFrames": 41,
        "frameRates": 61
      },
      {
        "trial_number": 107,
        "trial_index": 702,
        "rt": 813,
        "correct": true,
        "response": "ArrowRight",
        "congruent": true,
        "gazeTowards": false,
        "gazeCondition": "away",
        "faceOnLeft": true,
        "impliedDirection": 0,
        "testDirection": 0,
        "avgFps": 60,
        "minFps": 60,
        "maxFps": 73,
        "totalFrames": 48,
        "frameRates": 60
      },
      {
        "trial_number": 108,
        "trial_index": 707,
        "rt": 591,
        "correct": true,
        "response": "ArrowLeft",
        "congruent": true,
        "gazeTowards": true,
        "gazeCondition": "towards",
        "faceOnLeft": false,
        "impliedDirection": 180,
        "testDirection": 180,
        "avgFps": 61,
        "minFps": 60,
        "maxFps": 143,
        "totalFrames": 36,
        "frameRates": 61
      },
      {
        "trial_number": 109,
        "trial_index": 712,
        "rt": 711,
        "correct": true,
        "response": "ArrowRight",
        "congruent": true,
        "gazeTowards": true,
        "gazeCondition": "towards",
        "faceOnLeft": true,
        "impliedDirection": 0,
        "testDirection": 0,
        "avgFps": 60,
        "minFps": 60,
        "maxFps": 88,
        "totalFrames": 42,
        "frameRates": 60
      },
      {
        "trial_number": 110,
        "trial_index": 717,
        "rt": 602,
        "correct": true,
        "response": "ArrowLeft",
        "congruent": true,
        "gazeTowards": true,
        "gazeCondition": "towards",
        "faceOnLeft": false,
        "impliedDirection": 180,
        "testDirection": 180,
        "avgFps": 60,
        "minFps": 60,
        "maxFps": 84,
        "totalFrames": 36,
        "frameRates": 60
      },
      {
        "trial_number": 111,
        "trial_index": 722,
        "rt": 688,
        "correct": true,
        "response": "ArrowLeft",
        "congruent": false,
        "gazeTowards": false,
        "gazeCondition": "away",
        "faceOnLeft": true,
        "impliedDirection": 0,
        "testDirection": 180,
        "avgFps": 60,
        "minFps": 60,
        "maxFps": 90,
        "totalFrames": 41,
        "frameRates": 60
      },
      {
        "trial_number": 112,
        "trial_index": 727,
        "rt": 659,
        "correct": true,
        "response": "ArrowRight",
        "congruent": false,
        "gazeTowards": true,
        "gazeCondition": "towards",
        "faceOnLeft": false,
        "impliedDirection": 180,
        "testDirection": 0,
        "avgFps": 62,
        "minFps": 60,
        "maxFps": 3333,
        "totalFrames": 40,
        "frameRates": 62
      },
      {
        "trial_number": 113,
        "trial_index": 732,
        "rt": 900,
        "correct": true,
        "response": "ArrowRight",
        "congruent": false,
        "gazeTowards": false,
        "gazeCondition": "away",
        "faceOnLeft": false,
        "impliedDirection": 180,
        "testDirection": 0,
        "avgFps": 60,
        "minFps": 60,
        "maxFps": 105,
        "totalFrames": 54,
        "frameRates": 60
      },
      {
        "trial_number": 114,
        "trial_index": 737,
        "rt": 512,
        "correct": true,
        "response": "ArrowLeft",
        "congruent": true,
        "gazeTowards": false,
        "gazeCondition": "away",
        "faceOnLeft": false,
        "impliedDirection": 180,
        "testDirection": 180,
        "avgFps": 61,
        "minFps": 60,
        "maxFps": 107,
        "totalFrames": 31,
        "frameRates": 61
      },
      {
        "trial_number": 115,
        "trial_index": 742,
        "rt": 609,
        "correct": true,
        "response": "ArrowLeft",
        "congruent": false,
        "gazeTowards": true,
        "gazeCondition": "towards",
        "faceOnLeft": true,
        "impliedDirection": 0,
        "testDirection": 180,
        "avgFps": 61,
        "minFps": 60,
        "maxFps": 370,
        "totalFrames": 37,
        "frameRates": 61
      },
      {
        "trial_number": 116,
        "trial_index": 747,
        "rt": 680,
        "correct": true,
        "response": "ArrowLeft",
        "congruent": false,
        "gazeTowards": false,
        "gazeCondition": "away",
        "faceOnLeft": true,
        "impliedDirection": 0,
        "testDirection": 180,
        "avgFps": 61,
        "minFps": 60,
        "maxFps": 350,
        "totalFrames": 41,
        "frameRates": 61
      },
      {
        "trial_number": 117,
        "trial_index": 752,
        "rt": 702,
        "correct": true,
        "response": "ArrowRight",
        "congruent": true,
        "gazeTowards": false,
        "gazeCondition": "away",
        "faceOnLeft": true,
        "impliedDirection": 0,
        "testDirection": 0,
        "avgFps": 61,
        "minFps": 60,
        "maxFps": 338,
        "totalFrames": 42,
        "frameRates": 61
      },
      {
        "trial_number": 118,
        "trial_index": 760,
        "rt": 672,
        "correct": true,
        "response": "ArrowLeft",
        "congruent": true,
        "gazeTowards": false,
        "gazeCondition": "away",
        "faceOnLeft": false,
        "impliedDirection": 180,
        "testDirection": 180,
        "avgFps": 60,
        "minFps": 60,
        "maxFps": 62,
        "totalFrames": 40,
        "frameRates": 60
      },
      {
        "trial_number": 119,
        "trial_index": 765,
        "rt": 892,
        "correct": true,
        "response": "ArrowLeft",
        "congruent": true,
        "gazeTowards": false,
        "gazeCondition": "away",
        "faceOnLeft": false,
        "impliedDirection": 180,
        "testDirection": 180,
        "avgFps": 61,
        "minFps": 60,
        "maxFps": 272,
        "totalFrames": 54,
        "frameRates": 61
      }
    ],
    "catch": {
      "total": 12,
      "correct": 12,
      "accuracy": 100,
      "meanRT": 632,
      "trials": [
        {
          "trial_number": 0,
          "trial_index": 145,
          "rt": 741,
          "correct": true,
          "colorTarget": "tree",
          "gazeTowards": true,
          "gazeCondition": "towards",
          "faceOnLeft": false
        },
        {
          "trial_number": 1,
          "trial_index": 148,
          "rt": 671,
          "correct": true,
          "colorTarget": "face",
          "gazeTowards": false,
          "gazeCondition": "away",
          "faceOnLeft": false
        },
        {
          "trial_number": 2,
          "trial_index": 186,
          "rt": 568,
          "correct": true,
          "colorTarget": "tree",
          "gazeTowards": true,
          "gazeCondition": "towards",
          "faceOnLeft": true
        },
        {
          "trial_number": 3,
          "trial_index": 199,
          "rt": 670,
          "correct": true,
          "colorTarget": "face",
          "gazeTowards": false,
          "gazeCondition": "away",
          "faceOnLeft": true
        },
        {
          "trial_number": 4,
          "trial_index": 293,
          "rt": 457,
          "correct": true,
          "colorTarget": "face",
          "gazeTowards": true,
          "gazeCondition": "towards",
          "faceOnLeft": true
        },
        {
          "trial_number": 5,
          "trial_index": 296,
          "rt": 614,
          "correct": true,
          "colorTarget": "tree",
          "gazeTowards": true,
          "gazeCondition": "towards",
          "faceOnLeft": false
        },
        {
          "trial_number": 6,
          "trial_index": 309,
          "rt": 544,
          "correct": true,
          "colorTarget": "tree",
          "gazeTowards": false,
          "gazeCondition": "away",
          "faceOnLeft": false
        },
        {
          "trial_number": 7,
          "trial_index": 322,
          "rt": 627,
          "correct": true,
          "colorTarget": "face",
          "gazeTowards": false,
          "gazeCondition": "away",
          "faceOnLeft": true
        },
        {
          "trial_number": 8,
          "trial_index": 456,
          "rt": 708,
          "correct": true,
          "colorTarget": "tree",
          "gazeTowards": true,
          "gazeCondition": "towards",
          "faceOnLeft": true
        },
        {
          "trial_number": 9,
          "trial_index": 640,
          "rt": 667,
          "correct": true,
          "colorTarget": "face",
          "gazeTowards": true,
          "gazeCondition": "towards",
          "faceOnLeft": true
        },
        {
          "trial_number": 10,
          "trial_index": 698,
          "rt": 639,
          "correct": true,
          "colorTarget": "face",
          "gazeTowards": true,
          "gazeCondition": "towards",
          "faceOnLeft": false
        },
        {
          "trial_number": 11,
          "trial_index": 756,
          "rt": 675,
          "correct": true,
          "colorTarget": "tree",
          "gazeTowards": false,
          "gazeCondition": "away",
          "faceOnLeft": true
        }
      ]
    },
    "practice": {
      "trials": [
        {
          "trial_number": 0,
          "rt": null,
          "correct": false,
          "direction": 0
        },
        {
          "trial_number": 1,
          "rt": 1051,
          "correct": false,
          "direction": 0
        },
        {
          "trial_number": 2,
          "rt": 1231,
          "correct": false,
          "direction": 180
        },
        {
          "trial_number": 3,
          "rt": 1380,
          "correct": false,
          "direction": 180
        },
        {
          "trial_number": 4,
          "rt": 1624,
          "correct": true,
          "direction": 180
        },
        {
          "trial_number": 5,
          "rt": 1789,
          "correct": true,
          "direction": 180
        },
        {
          "trial_number": 6,
          "rt": 1998,
          "correct": true,
          "direction": 180
        },
        {
          "trial_number": 7,
          "rt": 1599,
          "correct": true,
          "direction": 0
        },
        {
          "trial_number": 8,
          "rt": null,
          "correct": false,
          "direction": 0
        },
        {
          "trial_number": 9,
          "rt": 1573,
          "correct": false,
          "direction": 0
        },
        {
          "trial_number": 10,
          "rt": 1422,
          "correct": false,
          "direction": 0
        },
        {
          "trial_number": 11,
          "rt": null,
          "correct": false,
          "direction": 0
        },
        {
          "trial_number": 12,
          "rt": 1029,
          "correct": true,
          "direction": 180
        },
        {
          "trial_number": 13,
          "rt": 1553,
          "correct": true,
          "direction": 180
        },
        {
          "trial_number": 14,
          "rt": 1496,
          "correct": false,
          "direction": 180
        },
        {
          "trial_number": 15,
          "rt": 1025,
          "correct": true,
          "direction": 180
        },
        {
          "trial_number": 16,
          "rt": 1206,
          "correct": true,
          "direction": 180
        },
        {
          "trial_number": 17,
          "rt": 826,
          "correct": true,
          "direction": 0
        },
        {
          "trial_number": 18,
          "rt": 918,
          "correct": true,
          "direction": 0
        },
        {
          "trial_number": 19,
          "rt": 792,
          "correct": true,
          "direction": 0
        },
        {
          "trial_number": 20,
          "rt": 749,
          "correct": true,
          "direction": 0
        },
        {
          "trial_number": 21,
          "rt": 620,
          "correct": true,
          "direction": 0
        },
        {
          "trial_number": 22,
          "rt": 607,
          "correct": true,
          "direction": 180
        },
        {
          "trial_number": 23,
          "rt": 831,
          "correct": false,
          "direction": 180
        },
        {
          "trial_number": 24,
          "rt": 848,
          "correct": true,
          "direction": 180
        },
        {
          "trial_number": 25,
          "rt": 839,
          "correct": true,
          "direction": 180
        },
        {
          "trial_number": 26,
          "rt": 708,
          "correct": true,
          "direction": 180
        },
        {
          "trial_number": 27,
          "rt": 637,
          "correct": true,
          "direction": 0
        },
        {
          "trial_number": 28,
          "rt": 750,
          "correct": true,
          "direction": 0
        },
        {
          "trial_number": 29,
          "rt": 666,
          "correct": true,
          "direction": 0
        }
      ],
      "meanRT": 1102,
      "accuracy": 67
    }
  }
}