{
  "experiment": "rdk-face-1",
  "UUID": "b153ed75-80f5-458f-ad64-b656fc7a7e8e",
  "data": {
    "session": {
      "experiment_version": "1.8.6",
      "treatment": "faces_towards_away_catch",
      "file_version": "1.8.6",
      "totalTrials": 120,
      "totalTrialsIncludingCatch": 132,
      "conditions": {
        "gazeTowardsCount": 60,
        "gazeAwayCount": 60,
        "gazeTowardsAccuracy": 82,
        "gazeAwayAccuracy": 77
      },
      "session_group": "default",
      "browserData": {
        "os": "Windows",
        "browser": "Firefox",
        "screenResolution": "1920x1080",
        "browserViewport": "1920x1080",
        "devicePixelRatio": 1,
        "colorDepth": 24,
        "hardwareConcurrency": 8,
        "deviceMemory": "Unknown",
        "gpuRenderer": "ANGLE (Intel, Intel(R) HD Graphics 400 Direct3D11 vs_5_0 ps_5_0), or similar",
        "measuredRefreshRateHz": 53
      },
      "attention": {
        "visibilityEvents": [
          {
            "event": "focus",
            "state": "focused",
            "timestamp": 1772770076902
          }
        ]
      },
      "calibration": {
        "monitorWidthCm": 38,
        "viewingDistanceCm": 54,
        "pixelsPerDegree": 50
      },
      "parameters": {
        "coherence": 0.4,
        "apertureDeg": 5,
        "densityDotsPerDeg2": 40,
        "dotDiameterDeg": 0.035,
        "dotSpeedDegPerSec": 3,
        "lifetimeMs": 200,
        "fixationDurationMs": 1500,
        "faceDurationMs": 1500,
        "testDurationMs": 2000,
        "catchResponseMs": 3000
      },
      "prolific": {
        "prolificPid": "5b9b1de4d2599000010fb247",
        "studyId": "",
        "sessionId": ""
      },
      "timing": {
        "startTime": "2026-03-06T04:07:56.867Z",
        "endTime": "2026-03-06T04:24:10.684Z",
        "totalElapsedTimeMs": 973817
      }
    },
    "trials": [
      {
        "trial_number": 0,
        "trial_index": 90,
        "rt": 1406,
        "correct": true,
        "response": "ArrowLeft",
        "congruent": true,
        "gazeTowards": true,
        "gazeCondition": "towards",
        "faceOnLeft": false,
        "impliedDirection": 180,
        "testDirection": 180,
        "avgFps": 60,
        "minFps": 29,
        "maxFps": 1250,
        "totalFrames": 84,
        "frameRates": 60
      },
      {
        "trial_number": 1,
        "trial_index": 95,
        "rt": 1745,
        "correct": true,
        "response": "ArrowRight",
        "congruent": true,
        "gazeTowards": true,
        "gazeCondition": "towards",
        "faceOnLeft": true,
        "impliedDirection": 0,
        "testDirection": 0,
        "avgFps": 61,
        "minFps": 37,
        "maxFps": 1282,
        "totalFrames": 105,
        "frameRates": 61
      },
      {
        "trial_number": 2,
        "trial_index": 100,
        "rt": 1415,
        "correct": false,
        "response": "ArrowLeft",
        "congruent": false,
        "gazeTowards": false,
        "gazeCondition": "away",
        "faceOnLeft": false,
        "impliedDirection": 180,
        "testDirection": 0,
        "avgFps": 61,
        "minFps": 36,
        "maxFps": 1250,
        "totalFrames": 85,
        "frameRates": 61
      },
      {
        "trial_number": 3,
        "trial_index": 105,
        "rt": 1129,
        "correct": true,
        "response": "ArrowLeft",
        "congruent": true,
        "gazeTowards": true,
        "gazeCondition": "towards",
        "faceOnLeft": false,
        "impliedDirection": 180,
        "testDirection": 180,
        "avgFps": 61,
        "minFps": 46,
        "maxFps": 1515,
        "totalFrames": 68,
        "frameRates": 61
      },
      {
        "trial_number": 4,
        "trial_index": 110,
        "rt": 1468,
        "correct": false,
        "response": "ArrowLeft",
        "congruent": true,
        "gazeTowards": true,
        "gazeCondition": "towards",
        "faceOnLeft": true,
        "impliedDirection": 0,
        "testDirection": 0,
        "avgFps": 61,
        "minFps": 60,
        "maxFps": 1389,
        "totalFrames": 89,
        "frameRates": 61
      },
      {
        "trial_number": 5,
        "trial_index": 115,
        "rt": 1447,
        "correct": true,
        "response": "ArrowLeft",
        "congruent": true,
        "gazeTowards": true,
        "gazeCondition": "towards",
        "faceOnLeft": false,
        "impliedDirection": 180,
        "testDirection": 180,
        "avgFps": 61,
        "minFps": 51,
        "maxFps": 1429,
        "totalFrames": 87,
        "frameRates": 61
      },
      {
        "trial_number": 6,
        "trial_index": 120,
        "rt": 1061,
        "correct": true,
        "response": "ArrowRight",
        "congruent": true,
        "gazeTowards": false,
        "gazeCondition": "away",
        "faceOnLeft": true,
        "impliedDirection": 0,
        "testDirection": 0,
        "avgFps": 61,
        "minFps": 47,
        "maxFps": 926,
        "totalFrames": 64,
        "frameRates": 61
      },
      {
        "trial_number": 7,
        "trial_index": 125,
        "rt": 1336,
        "correct": true,
        "response": "ArrowLeft",
        "congruent": false,
        "gazeTowards": true,
        "gazeCondition": "towards",
        "faceOnLeft": true,
        "impliedDirection": 0,
        "testDirection": 180,
        "avgFps": 61,
        "minFps": 60,
        "maxFps": 1852,
        "totalFrames": 81,
        "frameRates": 61
      },
      {
        "trial_number": 8,
        "trial_index": 130,
        "rt": 1476,
        "correct": true,
        "response": "ArrowRight",
        "congruent": false,
        "gazeTowards": false,
        "gazeCondition": "away",
        "faceOnLeft": false,
        "impliedDirection": 180,
        "testDirection": 0,
        "avgFps": 60,
        "minFps": 40,
        "maxFps": 1389,
        "totalFrames": 89,
        "frameRates": 60
      },
      {
        "trial_number": 9,
        "trial_index": 135,
        "rt": 1799,
        "correct": true,
        "response": "ArrowLeft",
        "congruent": true,
        "gazeTowards": false,
        "gazeCondition": "away",
        "faceOnLeft": false,
        "impliedDirection": 180,
        "testDirection": 180,
        "avgFps": 60,
        "minFps": 39,
        "maxFps": 2273,
        "totalFrames": 108,
        "frameRates": 60
      },
      {
        "trial_number": 10,
        "trial_index": 140,
        "rt": null,
        "correct": false,
        "response": null,
        "congruent": false,
        "gazeTowards": false,
        "gazeCondition": "away",
        "faceOnLeft": false,
        "impliedDirection": 180,
        "testDirection": 0,
        "avgFps": 61,
        "minFps": 60,
        "maxFps": 1667,
        "totalFrames": 121,
        "frameRates": 61
      },
      {
        "trial_number": 11,
        "trial_index": 145,
        "rt": 1343,
        "correct": false,
        "response": "ArrowLeft",
        "congruent": false,
        "gazeTowards": true,
        "gazeCondition": "towards",
        "faceOnLeft": false,
        "impliedDirection": 180,
        "testDirection": 0,
        "avgFps": 61,
        "minFps": 60,
        "maxFps": 403,
        "totalFrames": 81,
        "frameRates": 61
      },
      {
        "trial_number": 12,
        "trial_index": 150,
        "rt": 1239,
        "correct": true,
        "response": "ArrowLeft",
        "congruent": false,
        "gazeTowards": false,
        "gazeCondition": "away",
        "faceOnLeft": true,
        "impliedDirection": 0,
        "testDirection": 180,
        "avgFps": 60,
        "minFps": 24,
        "maxFps": 1515,
        "totalFrames": 73,
        "frameRates": 60
      },
      {
        "trial_number": 13,
        "trial_index": 155,
        "rt": 1422,
        "correct": true,
        "response": "ArrowLeft",
        "congruent": false,
        "gazeTowards": true,
        "gazeCondition": "towards",
        "faceOnLeft": true,
        "impliedDirection": 0,
        "testDirection": 180,
        "avgFps": 61,
        "minFps": 60,
        "maxFps": 446,
        "totalFrames": 86,
        "frameRates": 61
      },
      {
        "trial_number": 14,
        "trial_index": 160,
        "rt": 1577,
        "correct": true,
        "response": "ArrowLeft",
        "congruent": true,
        "gazeTowards": false,
        "gazeCondition": "away",
        "faceOnLeft": false,
        "impliedDirection": 180,
        "testDirection": 180,
        "avgFps": 61,
        "minFps": 39,
        "maxFps": 1389,
        "totalFrames": 95,
        "frameRates": 61
      },
      {
        "trial_number": 15,
        "trial_index": 165,
        "rt": 1015,
        "correct": true,
        "response": "ArrowRight",
        "congruent": false,
        "gazeTowards": true,
        "gazeCondition": "towards",
        "faceOnLeft": false,
        "impliedDirection": 180,
        "testDirection": 0,
        "avgFps": 61,
        "minFps": 60,
        "maxFps": 417,
        "totalFrames": 61,
        "frameRates": 61
      },
      {
        "trial_number": 16,
        "trial_index": 170,
        "rt": null,
        "correct": false,
        "response": null,
        "congruent": false,
        "gazeTowards": false,
        "gazeCondition": "away",
        "faceOnLeft": false,
        "impliedDirection": 180,
        "testDirection": 0,
        "avgFps": 61,
        "minFps": 60,
        "maxFps": 1282,
        "totalFrames": 122,
        "frameRates": 61
      },
      {
        "trial_number": 17,
        "trial_index": 175,
        "rt": 921,
        "correct": true,
        "response": "ArrowLeft",
        "congruent": false,
        "gazeTowards": true,
        "gazeCondition": "towards",
        "faceOnLeft": true,
        "impliedDirection": 0,
        "testDirection": 180,
        "avgFps": 61,
        "minFps": 60,
        "maxFps": 298,
        "totalFrames": 56,
        "frameRates": 61
      },
      {
        "trial_number": 18,
        "trial_index": 180,
        "rt": 1167,
        "correct": true,
        "response": "ArrowRight",
        "congruent": true,
        "gazeTowards": false,
        "gazeCondition": "away",
        "faceOnLeft": true,
        "impliedDirection": 0,
        "testDirection": 0,
        "avgFps": 61,
        "minFps": 60,
        "maxFps": 1042,
        "totalFrames": 71,
        "frameRates": 61
      },
      {
        "trial_number": 19,
        "trial_index": 185,
        "rt": 1226,
        "correct": true,
        "response": "ArrowLeft",
        "congruent": false,
        "gazeTowards": true,
        "gazeCondition": "towards",
        "faceOnLeft": true,
        "impliedDirection": 0,
        "testDirection": 180,
        "avgFps": 60,
        "minFps": 43,
        "maxFps": 1667,
        "totalFrames": 74,
        "frameRates": 60
      },
      {
        "trial_number": 20,
        "trial_index": 190,
        "rt": 1395,
        "correct": true,
        "response": "ArrowLeft",
        "congruent": false,
        "gazeTowards": true,
        "gazeCondition": "towards",
        "faceOnLeft": true,
        "impliedDirection": 0,
        "testDirection": 180,
        "avgFps": 60,
        "minFps": 45,
        "maxFps": 1667,
        "totalFrames": 84,
        "frameRates": 60
      },
      {
        "trial_number": 21,
        "trial_index": 195,
        "rt": 1393,
        "correct": true,
        "response": "ArrowLeft",
        "congruent": true,
        "gazeTowards": false,
        "gazeCondition": "away",
        "faceOnLeft": false,
        "impliedDirection": 180,
        "testDirection": 180,
        "avgFps": 61,
        "minFps": 60,
        "maxFps": 1316,
        "totalFrames": 84,
        "frameRates": 61
      },
      {
        "trial_number": 22,
        "trial_index": 200,
        "rt": 1463,
        "correct": true,
        "response": "ArrowLeft",
        "congruent": true,
        "gazeTowards": true,
        "gazeCondition": "towards",
        "faceOnLeft": false,
        "impliedDirection": 180,
        "testDirection": 180,
        "avgFps": 60,
        "minFps": 30,
        "maxFps": 278,
        "totalFrames": 87,
        "frameRates": 60
      },
      {
        "trial_number": 23,
        "trial_index": 205,
        "rt": 1295,
        "correct": true,
        "response": "ArrowRight",
        "congruent": true,
        "gazeTowards": false,
        "gazeCondition": "away",
        "faceOnLeft": true,
        "impliedDirection": 0,
        "testDirection": 0,
        "avgFps": 61,
        "minFps": 60,
        "maxFps": 1190,
        "totalFrames": 78,
        "frameRates": 61
      },
      {
        "trial_number": 24,
        "trial_index": 210,
        "rt": 1608,
        "correct": false,
        "response": "ArrowLeft",
        "congruent": false,
        "gazeTowards": false,
        "gazeCondition": "away",
        "faceOnLeft": false,
        "impliedDirection": 180,
        "testDirection": 0,
        "avgFps": 61,
        "minFps": 60,
        "maxFps": 287,
        "totalFrames": 97,
        "frameRates": 61
      },
      {
        "trial_number": 25,
        "trial_index": 215,
        "rt": 1173,
        "correct": true,
        "response": "ArrowLeft",
        "congruent": false,
        "gazeTowards": false,
        "gazeCondition": "away",
        "faceOnLeft": true,
        "impliedDirection": 0,
        "testDirection": 180,
        "avgFps": 61,
        "minFps": 60,
        "maxFps": 1471,
        "totalFrames": 71,
        "frameRates": 61
      },
      {
        "trial_number": 26,
        "trial_index": 220,
        "rt": 1335,
        "correct": true,
        "response": "ArrowRight",
        "congruent": false,
        "gazeTowards": false,
        "gazeCondition": "away",
        "faceOnLeft": false,
        "impliedDirection": 180,
        "testDirection": 0,
        "avgFps": 61,
        "minFps": 60,
        "maxFps": 1351,
        "totalFrames": 81,
        "frameRates": 61
      },
      {
        "trial_number": 27,
        "trial_index": 225,
        "rt": 1091,
        "correct": false,
        "response": "ArrowLeft",
        "congruent": false,
        "gazeTowards": true,
        "gazeCondition": "towards",
        "faceOnLeft": false,
        "impliedDirection": 180,
        "testDirection": 0,
        "avgFps": 61,
        "minFps": 36,
        "maxFps": 1429,
        "totalFrames": 66,
        "frameRates": 61
      },
      {
        "trial_number": 28,
        "trial_index": 233,
        "rt": 1047,
        "correct": true,
        "response": "ArrowLeft",
        "congruent": true,
        "gazeTowards": true,
        "gazeCondition": "towards",
        "faceOnLeft": false,
        "impliedDirection": 180,
        "testDirection": 180,
        "avgFps": 61,
        "minFps": 45,
        "maxFps": 1190,
        "totalFrames": 63,
        "frameRates": 61
      },
      {
        "trial_number": 29,
        "trial_index": 238,
        "rt": 1114,
        "correct": true,
        "response": "ArrowRight",
        "congruent": true,
        "gazeTowards": false,
        "gazeCondition": "away",
        "faceOnLeft": true,
        "impliedDirection": 0,
        "testDirection": 0,
        "avgFps": 61,
        "minFps": 60,
        "maxFps": 467,
        "totalFrames": 67,
        "frameRates": 61
      },
      {
        "trial_number": 30,
        "trial_index": 246,
        "rt": 1444,
        "correct": true,
        "response": "ArrowRight",
        "congruent": true,
        "gazeTowards": true,
        "gazeCondition": "towards",
        "faceOnLeft": true,
        "impliedDirection": 0,
        "testDirection": 0,
        "avgFps": 61,
        "minFps": 60,
        "maxFps": 2000,
        "totalFrames": 87,
        "frameRates": 61
      },
      {
        "trial_number": 31,
        "trial_index": 252,
        "rt": 1277,
        "correct": true,
        "response": "ArrowRight",
        "congruent": false,
        "gazeTowards": false,
        "gazeCondition": "away",
        "faceOnLeft": false,
        "impliedDirection": 180,
        "testDirection": 0,
        "avgFps": 61,
        "minFps": 60,
        "maxFps": 1515,
        "totalFrames": 77,
        "frameRates": 61
      },
      {
        "trial_number": 32,
        "trial_index": 257,
        "rt": 1073,
        "correct": true,
        "response": "ArrowLeft",
        "congruent": true,
        "gazeTowards": true,
        "gazeCondition": "towards",
        "faceOnLeft": false,
        "impliedDirection": 180,
        "testDirection": 180,
        "avgFps": 59,
        "minFps": 23,
        "maxFps": 1136,
        "totalFrames": 63,
        "frameRates": 59
      },
      {
        "trial_number": 33,
        "trial_index": 262,
        "rt": 1259,
        "correct": true,
        "response": "ArrowLeft",
        "congruent": false,
        "gazeTowards": true,
        "gazeCondition": "towards",
        "faceOnLeft": true,
        "impliedDirection": 0,
        "testDirection": 180,
        "avgFps": 60,
        "minFps": 43,
        "maxFps": 1351,
        "totalFrames": 76,
        "frameRates": 60
      },
      {
        "trial_number": 34,
        "trial_index": 267,
        "rt": 1448,
        "correct": false,
        "response": "ArrowLeft",
        "congruent": false,
        "gazeTowards": false,
        "gazeCondition": "away",
        "faceOnLeft": false,
        "impliedDirection": 180,
        "testDirection": 0,
        "avgFps": 60,
        "minFps": 30,
        "maxFps": 189,
        "totalFrames": 86,
        "frameRates": 60
      },
      {
        "trial_number": 35,
        "trial_index": 272,
        "rt": 1549,
        "correct": false,
        "response": "ArrowLeft",
        "congruent": true,
        "gazeTowards": false,
        "gazeCondition": "away",
        "faceOnLeft": true,
        "impliedDirection": 0,
        "testDirection": 0,
        "avgFps": 61,
        "minFps": 60,
        "maxFps": 1163,
        "totalFrames": 93,
        "frameRates": 61
      },
      {
        "trial_number": 36,
        "trial_index": 277,
        "rt": 941,
        "correct": false,
        "response": "ArrowRight",
        "congruent": true,
        "gazeTowards": true,
        "gazeCondition": "towards",
        "faceOnLeft": false,
        "impliedDirection": 180,
        "testDirection": 180,
        "avgFps": 61,
        "minFps": 60,
        "maxFps": 298,
        "totalFrames": 57,
        "frameRates": 61
      },
      {
        "trial_number": 37,
        "trial_index": 282,
        "rt": 1802,
        "correct": false,
        "response": "ArrowLeft",
        "congruent": true,
        "gazeTowards": false,
        "gazeCondition": "away",
        "faceOnLeft": true,
        "impliedDirection": 0,
        "testDirection": 0,
        "avgFps": 60,
        "minFps": 42,
        "maxFps": 1316,
        "totalFrames": 108,
        "frameRates": 60
      },
      {
        "trial_number": 38,
        "trial_index": 287,
        "rt": 1161,
        "correct": true,
        "response": "ArrowRight",
        "congruent": false,
        "gazeTowards": true,
        "gazeCondition": "towards",
        "faceOnLeft": false,
        "impliedDirection": 180,
        "testDirection": 0,
        "avgFps": 61,
        "minFps": 45,
        "maxFps": 1220,
        "totalFrames": 70,
        "frameRates": 61
      },
      {
        "trial_number": 39,
        "trial_index": 292,
        "rt": 1793,
        "correct": true,
        "response": "ArrowRight",
        "congruent": true,
        "gazeTowards": false,
        "gazeCondition": "away",
        "faceOnLeft": true,
        "impliedDirection": 0,
        "testDirection": 0,
        "avgFps": 61,
        "minFps": 60,
        "maxFps": 417,
        "totalFrames": 108,
        "frameRates": 61
      },
      {
        "trial_number": 40,
        "trial_index": 297,
        "rt": 1158,
        "correct": true,
        "response": "ArrowLeft",
        "congruent": false,
        "gazeTowards": true,
        "gazeCondition": "towards",
        "faceOnLeft": true,
        "impliedDirection": 0,
        "testDirection": 180,
        "avgFps": 61,
        "minFps": 47,
        "maxFps": 1563,
        "totalFrames": 70,
        "frameRates": 61
      },
      {
        "trial_number": 41,
        "trial_index": 302,
        "rt": 1628,
        "correct": true,
        "response": "ArrowLeft",
        "congruent": true,
        "gazeTowards": true,
        "gazeCondition": "towards",
        "faceOnLeft": false,
        "impliedDirection": 180,
        "testDirection": 180,
        "avgFps": 61,
        "minFps": 60,
        "maxFps": 1136,
        "totalFrames": 99,
        "frameRates": 61
      },
      {
        "trial_number": 42,
        "trial_index": 307,
        "rt": 1356,
        "correct": true,
        "response": "ArrowLeft",
        "congruent": true,
        "gazeTowards": true,
        "gazeCondition": "towards",
        "faceOnLeft": false,
        "impliedDirection": 180,
        "testDirection": 180,
        "avgFps": 61,
        "minFps": 60,
        "maxFps": 413,
        "totalFrames": 82,
        "frameRates": 61
      },
      {
        "trial_number": 43,
        "trial_index": 312,
        "rt": 1459,
        "correct": true,
        "response": "ArrowLeft",
        "congruent": false,
        "gazeTowards": false,
        "gazeCondition": "away",
        "faceOnLeft": true,
        "impliedDirection": 0,
        "testDirection": 180,
        "avgFps": 61,
        "minFps": 60,
        "maxFps": 216,
        "totalFrames": 88,
        "frameRates": 61
      },
      {
        "trial_number": 44,
        "trial_index": 317,
        "rt": 1055,
        "correct": false,
        "response": "ArrowRight",
        "congruent": false,
        "gazeTowards": true,
        "gazeCondition": "towards",
        "faceOnLeft": true,
        "impliedDirection": 0,
        "testDirection": 180,
        "avgFps": 61,
        "minFps": 60,
        "maxFps": 294,
        "totalFrames": 64,
        "frameRates": 61
      },
      {
        "trial_number": 45,
        "trial_index": 322,
        "rt": 1275,
        "correct": true,
        "response": "ArrowRight",
        "congruent": false,
        "gazeTowards": false,
        "gazeCondition": "away",
        "faceOnLeft": false,
        "impliedDirection": 180,
        "testDirection": 0,
        "avgFps": 61,
        "minFps": 60,
        "maxFps": 1220,
        "totalFrames": 77,
        "frameRates": 61
      },
      {
        "trial_number": 46,
        "trial_index": 327,
        "rt": 956,
        "correct": true,
        "response": "ArrowLeft",
        "congruent": true,
        "gazeTowards": false,
        "gazeCondition": "away",
        "faceOnLeft": false,
        "impliedDirection": 180,
        "testDirection": 180,
        "avgFps": 61,
        "minFps": 43,
        "maxFps": 1136,
        "totalFrames": 57,
        "frameRates": 61
      },
      {
        "trial_number": 47,
        "trial_index": 332,
        "rt": 1221,
        "correct": true,
        "response": "ArrowRight",
        "congruent": false,
        "gazeTowards": false,
        "gazeCondition": "away",
        "faceOnLeft": false,
        "impliedDirection": 180,
        "testDirection": 0,
        "avgFps": 61,
        "minFps": 60,
        "maxFps": 1351,
        "totalFrames": 74,
        "frameRates": 61
      },
      {
        "trial_number": 48,
        "trial_index": 340,
        "rt": 1481,
        "correct": true,
        "response": "ArrowLeft",
        "congruent": true,
        "gazeTowards": false,
        "gazeCondition": "away",
        "faceOnLeft": false,
        "impliedDirection": 180,
        "testDirection": 180,
        "avgFps": 61,
        "minFps": 60,
        "maxFps": 485,
        "totalFrames": 89,
        "frameRates": 61
      },
      {
        "trial_number": 49,
        "trial_index": 345,
        "rt": 1433,
        "correct": true,
        "response": "ArrowRight",
        "congruent": false,
        "gazeTowards": true,
        "gazeCondition": "towards",
        "faceOnLeft": false,
        "impliedDirection": 180,
        "testDirection": 0,
        "avgFps": 61,
        "minFps": 60,
        "maxFps": 1562,
        "totalFrames": 87,
        "frameRates": 61
      },
      {
        "trial_number": 50,
        "trial_index": 350,
        "rt": null,
        "correct": false,
        "response": null,
        "congruent": false,
        "gazeTowards": false,
        "gazeCondition": "away",
        "faceOnLeft": true,
        "impliedDirection": 0,
        "testDirection": 180,
        "avgFps": 60,
        "minFps": 50,
        "maxFps": 1190,
        "totalFrames": 120,
        "frameRates": 60
      },
      {
        "trial_number": 51,
        "trial_index": 355,
        "rt": 1185,
        "correct": true,
        "response": "ArrowLeft",
        "congruent": false,
        "gazeTowards": false,
        "gazeCondition": "away",
        "faceOnLeft": true,
        "impliedDirection": 0,
        "testDirection": 180,
        "avgFps": 61,
        "minFps": 60,
        "maxFps": 2174,
        "totalFrames": 72,
        "frameRates": 61
      },
      {
        "trial_number": 52,
        "trial_index": 360,
        "rt": 1389,
        "correct": true,
        "response": "ArrowRight",
        "congruent": false,
        "gazeTowards": false,
        "gazeCondition": "away",
        "faceOnLeft": false,
        "impliedDirection": 180,
        "testDirection": 0,
        "avgFps": 59,
        "minFps": 15,
        "maxFps": 1250,
        "totalFrames": 81,
        "frameRates": 59
      },
      {
        "trial_number": 53,
        "trial_index": 365,
        "rt": 1213,
        "correct": true,
        "response": "ArrowLeft",
        "congruent": false,
        "gazeTowards": true,
        "gazeCondition": "towards",
        "faceOnLeft": true,
        "impliedDirection": 0,
        "testDirection": 180,
        "avgFps": 61,
        "minFps": 60,
        "maxFps": 1562,
        "totalFrames": 73,
        "frameRates": 61
      },
      {
        "trial_number": 54,
        "trial_index": 370,
        "rt": null,
        "correct": false,
        "response": null,
        "congruent": true,
        "gazeTowards": false,
        "gazeCondition": "away",
        "faceOnLeft": true,
        "impliedDirection": 0,
        "testDirection": 0,
        "avgFps": 61,
        "minFps": 60,
        "maxFps": 1282,
        "totalFrames": 122,
        "frameRates": 61
      },
      {
        "trial_number": 55,
        "trial_index": 375,
        "rt": 1434,
        "correct": false,
        "response": "ArrowLeft",
        "congruent": true,
        "gazeTowards": true,
        "gazeCondition": "towards",
        "faceOnLeft": true,
        "impliedDirection": 0,
        "testDirection": 0,
        "avgFps": 61,
        "minFps": 60,
        "maxFps": 1087,
        "totalFrames": 87,
        "frameRates": 61
      },
      {
        "trial_number": 56,
        "trial_index": 380,
        "rt": 1254,
        "correct": true,
        "response": "ArrowLeft",
        "congruent": false,
        "gazeTowards": false,
        "gazeCondition": "away",
        "faceOnLeft": true,
        "impliedDirection": 0,
        "testDirection": 180,
        "avgFps": 61,
        "minFps": 60,
        "maxFps": 1351,
        "totalFrames": 76,
        "frameRates": 61
      },
      {
        "trial_number": 57,
        "trial_index": 385,
        "rt": 1067,
        "correct": true,
        "response": "ArrowLeft",
        "congruent": false,
        "gazeTowards": true,
        "gazeCondition": "towards",
        "faceOnLeft": true,
        "impliedDirection": 0,
        "testDirection": 180,
        "avgFps": 62,
        "minFps": 60,
        "maxFps": 1220,
        "totalFrames": 65,
        "frameRates": 62
      },
      {
        "trial_number": 58,
        "trial_index": 390,
        "rt": 1232,
        "correct": true,
        "response": "ArrowLeft",
        "congruent": true,
        "gazeTowards": false,
        "gazeCondition": "away",
        "faceOnLeft": false,
        "impliedDirection": 180,
        "testDirection": 180,
        "avgFps": 60,
        "minFps": 37,
        "maxFps": 1351,
        "totalFrames": 74,
        "frameRates": 60
      },
      {
        "trial_number": 59,
        "trial_index": 395,
        "rt": 1087,
        "correct": true,
        "response": "ArrowLeft",
        "congruent": false,
        "gazeTowards": true,
        "gazeCondition": "towards",
        "faceOnLeft": true,
        "impliedDirection": 0,
        "testDirection": 180,
        "avgFps": 61,
        "minFps": 60,
        "maxFps": 230,
        "totalFrames": 65,
        "frameRates": 61
      },
      {
        "trial_number": 60,
        "trial_index": 400,
        "rt": 1297,
        "correct": true,
        "response": "ArrowLeft",
        "congruent": true,
        "gazeTowards": false,
        "gazeCondition": "away",
        "faceOnLeft": false,
        "impliedDirection": 180,
        "testDirection": 180,
        "avgFps": 61,
        "minFps": 60,
        "maxFps": 235,
        "totalFrames": 78,
        "frameRates": 61
      },
      {
        "trial_number": 61,
        "trial_index": 408,
        "rt": 940,
        "correct": true,
        "response": "ArrowRight",
        "congruent": false,
        "gazeTowards": false,
        "gazeCondition": "away",
        "faceOnLeft": false,
        "impliedDirection": 180,
        "testDirection": 0,
        "avgFps": 61,
        "minFps": 50,
        "maxFps": 746,
        "totalFrames": 57,
        "frameRates": 61
      },
      {
        "trial_number": 62,
        "trial_index": 414,
        "rt": 1222,
        "correct": true,
        "response": "ArrowRight",
        "congruent": false,
        "gazeTowards": true,
        "gazeCondition": "towards",
        "faceOnLeft": false,
        "impliedDirection": 180,
        "testDirection": 0,
        "avgFps": 61,
        "minFps": 60,
        "maxFps": 1163,
        "totalFrames": 74,
        "frameRates": 61
      },
      {
        "trial_number": 63,
        "trial_index": 422,
        "rt": 1233,
        "correct": true,
        "response": "ArrowRight",
        "congruent": true,
        "gazeTowards": true,
        "gazeCondition": "towards",
        "faceOnLeft": true,
        "impliedDirection": 0,
        "testDirection": 0,
        "avgFps": 61,
        "minFps": 60,
        "maxFps": 1389,
        "totalFrames": 75,
        "frameRates": 61
      },
      {
        "trial_number": 64,
        "trial_index": 427,
        "rt": 1397,
        "correct": false,
        "response": "ArrowLeft",
        "congruent": false,
        "gazeTowards": true,
        "gazeCondition": "towards",
        "faceOnLeft": false,
        "impliedDirection": 180,
        "testDirection": 0,
        "avgFps": 61,
        "minFps": 60,
        "maxFps": 1163,
        "totalFrames": 84,
        "frameRates": 61
      },
      {
        "trial_number": 65,
        "trial_index": 432,
        "rt": 1526,
        "correct": true,
        "response": "ArrowRight",
        "congruent": false,
        "gazeTowards": false,
        "gazeCondition": "away",
        "faceOnLeft": false,
        "impliedDirection": 180,
        "testDirection": 0,
        "avgFps": 61,
        "minFps": 60,
        "maxFps": 1087,
        "totalFrames": 92,
        "frameRates": 61
      },
      {
        "trial_number": 66,
        "trial_index": 437,
        "rt": null,
        "correct": false,
        "response": null,
        "congruent": false,
        "gazeTowards": false,
        "gazeCondition": "away",
        "faceOnLeft": true,
        "impliedDirection": 0,
        "testDirection": 180,
        "avgFps": 60,
        "minFps": 42,
        "maxFps": 1163,
        "totalFrames": 121,
        "frameRates": 60
      },
      {
        "trial_number": 67,
        "trial_index": 442,
        "rt": 1036,
        "correct": true,
        "response": "ArrowLeft",
        "congruent": false,
        "gazeTowards": true,
        "gazeCondition": "towards",
        "faceOnLeft": true,
        "impliedDirection": 0,
        "testDirection": 180,
        "avgFps": 61,
        "minFps": 51,
        "maxFps": 704,
        "totalFrames": 62,
        "frameRates": 61
      },
      {
        "trial_number": 68,
        "trial_index": 447,
        "rt": 1716,
        "correct": false,
        "response": "ArrowLeft",
        "congruent": true,
        "gazeTowards": true,
        "gazeCondition": "towards",
        "faceOnLeft": true,
        "impliedDirection": 0,
        "testDirection": 0,
        "avgFps": 61,
        "minFps": 60,
        "maxFps": 1282,
        "totalFrames": 104,
        "frameRates": 61
      },
      {
        "trial_number": 69,
        "trial_index": 452,
        "rt": 1264,
        "correct": true,
        "response": "ArrowRight",
        "congruent": false,
        "gazeTowards": true,
        "gazeCondition": "towards",
        "faceOnLeft": false,
        "impliedDirection": 180,
        "testDirection": 0,
        "avgFps": 60,
        "minFps": 24,
        "maxFps": 1136,
        "totalFrames": 75,
        "frameRates": 60
      },
      {
        "trial_number": 70,
        "trial_index": 457,
        "rt": 1412,
        "correct": true,
        "response": "ArrowLeft",
        "congruent": false,
        "gazeTowards": false,
        "gazeCondition": "away",
        "faceOnLeft": true,
        "impliedDirection": 0,
        "testDirection": 180,
        "avgFps": 61,
        "minFps": 47,
        "maxFps": 1389,
        "totalFrames": 85,
        "frameRates": 61
      },
      {
        "trial_number": 71,
        "trial_index": 462,
        "rt": null,
        "correct": false,
        "response": null,
        "congruent": true,
        "gazeTowards": false,
        "gazeCondition": "away",
        "faceOnLeft": false,
        "impliedDirection": 180,
        "testDirection": 180,
        "avgFps": 61,
        "minFps": 60,
        "maxFps": 1389,
        "totalFrames": 121,
        "frameRates": 61
      },
      {
        "trial_number": 72,
        "trial_index": 467,
        "rt": 1226,
        "correct": true,
        "response": "ArrowLeft",
        "congruent": false,
        "gazeTowards": false,
        "gazeCondition": "away",
        "faceOnLeft": true,
        "impliedDirection": 0,
        "testDirection": 180,
        "avgFps": 60,
        "minFps": 24,
        "maxFps": 1282,
        "totalFrames": 73,
        "frameRates": 60
      },
      {
        "trial_number": 73,
        "trial_index": 472,
        "rt": 1431,
        "correct": true,
        "response": "ArrowLeft",
        "congruent": false,
        "gazeTowards": false,
        "gazeCondition": "away",
        "faceOnLeft": true,
        "impliedDirection": 0,
        "testDirection": 180,
        "avgFps": 61,
        "minFps": 60,
        "maxFps": 303,
        "totalFrames": 86,
        "frameRates": 61
      },
      {
        "trial_number": 74,
        "trial_index": 480,
        "rt": 1638,
        "correct": true,
        "response": "ArrowRight",
        "congruent": false,
        "gazeTowards": false,
        "gazeCondition": "away",
        "faceOnLeft": false,
        "impliedDirection": 180,
        "testDirection": 0,
        "avgFps": 61,
        "minFps": 45,
        "maxFps": 1282,
        "totalFrames": 99,
        "frameRates": 61
      },
      {
        "trial_number": 75,
        "trial_index": 485,
        "rt": null,
        "correct": false,
        "response": null,
        "congruent": false,
        "gazeTowards": false,
        "gazeCondition": "away",
        "faceOnLeft": true,
        "impliedDirection": 0,
        "testDirection": 180,
        "avgFps": 61,
        "minFps": 60,
        "maxFps": 1220,
        "totalFrames": 121,
        "frameRates": 61
      },
      {
        "trial_number": 76,
        "trial_index": 490,
        "rt": 1447,
        "correct": true,
        "response": "ArrowLeft",
        "congruent": true,
        "gazeTowards": true,
        "gazeCondition": "towards",
        "faceOnLeft": false,
        "impliedDirection": 180,
        "testDirection": 180,
        "avgFps": 61,
        "minFps": 60,
        "maxFps": 1220,
        "totalFrames": 88,
        "frameRates": 61
      },
      {
        "trial_number": 77,
        "trial_index": 495,
        "rt": 1158,
        "correct": true,
        "response": "ArrowLeft",
        "congruent": true,
        "gazeTowards": true,
        "gazeCondition": "towards",
        "faceOnLeft": false,
        "impliedDirection": 180,
        "testDirection": 180,
        "avgFps": 61,
        "minFps": 60,
        "maxFps": 588,
        "totalFrames": 70,
        "frameRates": 61
      },
      {
        "trial_number": 78,
        "trial_index": 500,
        "rt": 1681,
        "correct": true,
        "response": "ArrowRight",
        "congruent": true,
        "gazeTowards": false,
        "gazeCondition": "away",
        "faceOnLeft": true,
        "impliedDirection": 0,
        "testDirection": 0,
        "avgFps": 61,
        "minFps": 60,
        "maxFps": 1389,
        "totalFrames": 102,
        "frameRates": 61
      },
      {
        "trial_number": 79,
        "trial_index": 505,
        "rt": 1587,
        "correct": true,
        "response": "ArrowRight",
        "congruent": true,
        "gazeTowards": false,
        "gazeCondition": "away",
        "faceOnLeft": true,
        "impliedDirection": 0,
        "testDirection": 0,
        "avgFps": 61,
        "minFps": 60,
        "maxFps": 1429,
        "totalFrames": 96,
        "frameRates": 61
      },
      {
        "trial_number": 80,
        "trial_index": 510,
        "rt": 1576,
        "correct": true,
        "response": "ArrowRight",
        "congruent": true,
        "gazeTowards": false,
        "gazeCondition": "away",
        "faceOnLeft": true,
        "impliedDirection": 0,
        "testDirection": 0,
        "avgFps": 61,
        "minFps": 60,
        "maxFps": 314,
        "totalFrames": 95,
        "frameRates": 61
      },
      {
        "trial_number": 81,
        "trial_index": 515,
        "rt": 1523,
        "correct": false,
        "response": "ArrowLeft",
        "congruent": false,
        "gazeTowards": false,
        "gazeCondition": "away",
        "faceOnLeft": false,
        "impliedDirection": 180,
        "testDirection": 0,
        "avgFps": 59,
        "minFps": 15,
        "maxFps": 1220,
        "totalFrames": 89,
        "frameRates": 59
      },
      {
        "trial_number": 82,
        "trial_index": 520,
        "rt": null,
        "correct": false,
        "response": null,
        "congruent": true,
        "gazeTowards": true,
        "gazeCondition": "towards",
        "faceOnLeft": false,
        "impliedDirection": 180,
        "testDirection": 180,
        "avgFps": 60,
        "minFps": 43,
        "maxFps": 1163,
        "totalFrames": 121,
        "frameRates": 60
      },
      {
        "trial_number": 83,
        "trial_index": 525,
        "rt": null,
        "correct": false,
        "response": null,
        "congruent": true,
        "gazeTowards": false,
        "gazeCondition": "away",
        "faceOnLeft": true,
        "impliedDirection": 0,
        "testDirection": 0,
        "avgFps": 60,
        "minFps": 60,
        "maxFps": 400,
        "totalFrames": 120,
        "frameRates": 60
      },
      {
        "trial_number": 84,
        "trial_index": 530,
        "rt": 935,
        "correct": true,
        "response": "ArrowLeft",
        "congruent": true,
        "gazeTowards": false,
        "gazeCondition": "away",
        "faceOnLeft": false,
        "impliedDirection": 180,
        "testDirection": 180,
        "avgFps": 62,
        "minFps": 60,
        "maxFps": 1250,
        "totalFrames": 57,
        "frameRates": 62
      },
      {
        "trial_number": 85,
        "trial_index": 535,
        "rt": 1008,
        "correct": true,
        "response": "ArrowLeft",
        "congruent": false,
        "gazeTowards": true,
        "gazeCondition": "towards",
        "faceOnLeft": true,
        "impliedDirection": 0,
        "testDirection": 180,
        "avgFps": 61,
        "minFps": 60,
        "maxFps": 230,
        "totalFrames": 61,
        "frameRates": 61
      },
      {
        "trial_number": 86,
        "trial_index": 540,
        "rt": 665,
        "correct": true,
        "response": "ArrowLeft",
        "congruent": true,
        "gazeTowards": true,
        "gazeCondition": "towards",
        "faceOnLeft": false,
        "impliedDirection": 180,
        "testDirection": 180,
        "avgFps": 62,
        "minFps": 60,
        "maxFps": 1282,
        "totalFrames": 41,
        "frameRates": 62
      },
      {
        "trial_number": 87,
        "trial_index": 545,
        "rt": 1115,
        "correct": true,
        "response": "ArrowLeft",
        "congruent": true,
        "gazeTowards": false,
        "gazeCondition": "away",
        "faceOnLeft": false,
        "impliedDirection": 180,
        "testDirection": 180,
        "avgFps": 61,
        "minFps": 60,
        "maxFps": 1220,
        "totalFrames": 67,
        "frameRates": 61
      },
      {
        "trial_number": 88,
        "trial_index": 550,
        "rt": 851,
        "correct": true,
        "response": "ArrowLeft",
        "congruent": true,
        "gazeTowards": true,
        "gazeCondition": "towards",
        "faceOnLeft": false,
        "impliedDirection": 180,
        "testDirection": 180,
        "avgFps": 58,
        "minFps": 18,
        "maxFps": 1316,
        "totalFrames": 49,
        "frameRates": 58
      },
      {
        "trial_number": 89,
        "trial_index": 555,
        "rt": 888,
        "correct": true,
        "response": "ArrowRight",
        "congruent": false,
        "gazeTowards": false,
        "gazeCondition": "away",
        "faceOnLeft": false,
        "impliedDirection": 180,
        "testDirection": 0,
        "avgFps": 60,
        "minFps": 39,
        "maxFps": 1190,
        "totalFrames": 53,
        "frameRates": 60
      },
      {
        "trial_number": 90,
        "trial_index": 560,
        "rt": 1360,
        "correct": true,
        "response": "ArrowRight",
        "congruent": true,
        "gazeTowards": false,
        "gazeCondition": "away",
        "faceOnLeft": true,
        "impliedDirection": 0,
        "testDirection": 0,
        "avgFps": 61,
        "minFps": 50,
        "maxFps": 1389,
        "totalFrames": 82,
        "frameRates": 61
      },
      {
        "trial_number": 91,
        "trial_index": 568,
        "rt": 1055,
        "correct": true,
        "response": "ArrowLeft",
        "congruent": true,
        "gazeTowards": true,
        "gazeCondition": "towards",
        "faceOnLeft": false,
        "impliedDirection": 180,
        "testDirection": 180,
        "avgFps": 59,
        "minFps": 20,
        "maxFps": 1282,
        "totalFrames": 62,
        "frameRates": 59
      },
      {
        "trial_number": 92,
        "trial_index": 574,
        "rt": 945,
        "correct": true,
        "response": "ArrowLeft",
        "congruent": true,
        "gazeTowards": true,
        "gazeCondition": "towards",
        "faceOnLeft": false,
        "impliedDirection": 180,
        "testDirection": 180,
        "avgFps": 61,
        "minFps": 42,
        "maxFps": 1389,
        "totalFrames": 57,
        "frameRates": 61
      },
      {
        "trial_number": 93,
        "trial_index": 582,
        "rt": 1166,
        "correct": true,
        "response": "ArrowRight",
        "congruent": true,
        "gazeTowards": true,
        "gazeCondition": "towards",
        "faceOnLeft": true,
        "impliedDirection": 0,
        "testDirection": 0,
        "avgFps": 61,
        "minFps": 60,
        "maxFps": 226,
        "totalFrames": 70,
        "frameRates": 61
      },
      {
        "trial_number": 94,
        "trial_index": 587,
        "rt": 1197,
        "correct": true,
        "response": "ArrowLeft",
        "congruent": true,
        "gazeTowards": false,
        "gazeCondition": "away",
        "faceOnLeft": false,
        "impliedDirection": 180,
        "testDirection": 180,
        "avgFps": 61,
        "minFps": 49,
        "maxFps": 1282,
        "totalFrames": 72,
        "frameRates": 61
      },
      {
        "trial_number": 95,
        "trial_index": 592,
        "rt": 1116,
        "correct": true,
        "response": "ArrowLeft",
        "congruent": true,
        "gazeTowards": false,
        "gazeCondition": "away",
        "faceOnLeft": false,
        "impliedDirection": 180,
        "testDirection": 180,
        "avgFps": 61,
        "minFps": 48,
        "maxFps": 1220,
        "totalFrames": 67,
        "frameRates": 61
      },
      {
        "trial_number": 96,
        "trial_index": 597,
        "rt": 1383,
        "correct": true,
        "response": "ArrowRight",
        "congruent": false,
        "gazeTowards": true,
        "gazeCondition": "towards",
        "faceOnLeft": false,
        "impliedDirection": 180,
        "testDirection": 0,
        "avgFps": 61,
        "minFps": 60,
        "maxFps": 245,
        "totalFrames": 83,
        "frameRates": 61
      },
      {
        "trial_number": 97,
        "trial_index": 602,
        "rt": 1277,
        "correct": true,
        "response": "ArrowLeft",
        "congruent": true,
        "gazeTowards": false,
        "gazeCondition": "away",
        "faceOnLeft": false,
        "impliedDirection": 180,
        "testDirection": 180,
        "avgFps": 61,
        "minFps": 60,
        "maxFps": 1163,
        "totalFrames": 77,
        "frameRates": 61
      },
      {
        "trial_number": 98,
        "trial_index": 610,
        "rt": 1422,
        "correct": true,
        "response": "ArrowRight",
        "congruent": false,
        "gazeTowards": false,
        "gazeCondition": "away",
        "faceOnLeft": false,
        "impliedDirection": 180,
        "testDirection": 0,
        "avgFps": 61,
        "minFps": 49,
        "maxFps": 1163,
        "totalFrames": 86,
        "frameRates": 61
      },
      {
        "trial_number": 99,
        "trial_index": 615,
        "rt": 1528,
        "correct": true,
        "response": "ArrowRight",
        "congruent": true,
        "gazeTowards": false,
        "gazeCondition": "away",
        "faceOnLeft": true,
        "impliedDirection": 0,
        "testDirection": 0,
        "avgFps": 61,
        "minFps": 49,
        "maxFps": 1190,
        "totalFrames": 92,
        "frameRates": 61
      },
      {
        "trial_number": 100,
        "trial_index": 620,
        "rt": 1001,
        "correct": true,
        "response": "ArrowLeft",
        "congruent": true,
        "gazeTowards": false,
        "gazeCondition": "away",
        "faceOnLeft": false,
        "impliedDirection": 180,
        "testDirection": 180,
        "avgFps": 61,
        "minFps": 60,
        "maxFps": 1316,
        "totalFrames": 61,
        "frameRates": 61
      },
      {
        "trial_number": 101,
        "trial_index": 628,
        "rt": 1176,
        "correct": true,
        "response": "ArrowRight",
        "congruent": false,
        "gazeTowards": true,
        "gazeCondition": "towards",
        "faceOnLeft": false,
        "impliedDirection": 180,
        "testDirection": 0,
        "avgFps": 61,
        "minFps": 60,
        "maxFps": 238,
        "totalFrames": 71,
        "frameRates": 61
      },
      {
        "trial_number": 102,
        "trial_index": 633,
        "rt": 1093,
        "correct": true,
        "response": "ArrowLeft",
        "congruent": false,
        "gazeTowards": true,
        "gazeCondition": "towards",
        "faceOnLeft": true,
        "impliedDirection": 0,
        "testDirection": 180,
        "avgFps": 61,
        "minFps": 47,
        "maxFps": 1282,
        "totalFrames": 66,
        "frameRates": 61
      },
      {
        "trial_number": 103,
        "trial_index": 638,
        "rt": 1495,
        "correct": true,
        "response": "ArrowLeft",
        "congruent": true,
        "gazeTowards": true,
        "gazeCondition": "towards",
        "faceOnLeft": false,
        "impliedDirection": 180,
        "testDirection": 180,
        "avgFps": 60,
        "minFps": 40,
        "maxFps": 1220,
        "totalFrames": 90,
        "frameRates": 60
      },
      {
        "trial_number": 104,
        "trial_index": 643,
        "rt": 802,
        "correct": true,
        "response": "ArrowRight",
        "congruent": true,
        "gazeTowards": true,
        "gazeCondition": "towards",
        "faceOnLeft": true,
        "impliedDirection": 0,
        "testDirection": 0,
        "avgFps": 61,
        "minFps": 40,
        "maxFps": 1087,
        "totalFrames": 48,
        "frameRates": 61
      },
      {
        "trial_number": 105,
        "trial_index": 651,
        "rt": 1168,
        "correct": true,
        "response": "ArrowLeft",
        "congruent": true,
        "gazeTowards": true,
        "gazeCondition": "towards",
        "faceOnLeft": false,
        "impliedDirection": 180,
        "testDirection": 180,
        "avgFps": 61,
        "minFps": 49,
        "maxFps": 1316,
        "totalFrames": 70,
        "frameRates": 61
      },
      {
        "trial_number": 106,
        "trial_index": 656,
        "rt": 1043,
        "correct": true,
        "response": "ArrowLeft",
        "congruent": false,
        "gazeTowards": true,
        "gazeCondition": "towards",
        "faceOnLeft": true,
        "impliedDirection": 0,
        "testDirection": 180,
        "avgFps": 61,
        "minFps": 60,
        "maxFps": 1429,
        "totalFrames": 63,
        "frameRates": 61
      },
      {
        "trial_number": 107,
        "trial_index": 661,
        "rt": 1104,
        "correct": true,
        "response": "ArrowRight",
        "congruent": false,
        "gazeTowards": true,
        "gazeCondition": "towards",
        "faceOnLeft": false,
        "impliedDirection": 180,
        "testDirection": 0,
        "avgFps": 61,
        "minFps": 50,
        "maxFps": 1613,
        "totalFrames": 67,
        "frameRates": 61
      },
      {
        "trial_number": 108,
        "trial_index": 666,
        "rt": 1097,
        "correct": true,
        "response": "ArrowLeft",
        "congruent": true,
        "gazeTowards": true,
        "gazeCondition": "towards",
        "faceOnLeft": false,
        "impliedDirection": 180,
        "testDirection": 180,
        "avgFps": 61,
        "minFps": 60,
        "maxFps": 231,
        "totalFrames": 66,
        "frameRates": 61
      },
      {
        "trial_number": 109,
        "trial_index": 671,
        "rt": 1596,
        "correct": false,
        "response": "ArrowRight",
        "congruent": true,
        "gazeTowards": true,
        "gazeCondition": "towards",
        "faceOnLeft": false,
        "impliedDirection": 180,
        "testDirection": 180,
        "avgFps": 60,
        "minFps": 50,
        "maxFps": 1250,
        "totalFrames": 96,
        "frameRates": 60
      },
      {
        "trial_number": 110,
        "trial_index": 676,
        "rt": 1376,
        "correct": true,
        "response": "ArrowRight",
        "congruent": true,
        "gazeTowards": false,
        "gazeCondition": "away",
        "faceOnLeft": true,
        "impliedDirection": 0,
        "testDirection": 0,
        "avgFps": 59,
        "minFps": 20,
        "maxFps": 242,
        "totalFrames": 81,
        "frameRates": 59
      },
      {
        "trial_number": 111,
        "trial_index": 681,
        "rt": 874,
        "correct": true,
        "response": "ArrowLeft",
        "congruent": true,
        "gazeTowards": true,
        "gazeCondition": "towards",
        "faceOnLeft": false,
        "impliedDirection": 180,
        "testDirection": 180,
        "avgFps": 61,
        "minFps": 60,
        "maxFps": 239,
        "totalFrames": 53,
        "frameRates": 61
      },
      {
        "trial_number": 112,
        "trial_index": 686,
        "rt": 980,
        "correct": true,
        "response": "ArrowRight",
        "congruent": false,
        "gazeTowards": false,
        "gazeCondition": "away",
        "faceOnLeft": false,
        "impliedDirection": 180,
        "testDirection": 0,
        "avgFps": 61,
        "minFps": 60,
        "maxFps": 1316,
        "totalFrames": 59,
        "frameRates": 61
      },
      {
        "trial_number": 113,
        "trial_index": 691,
        "rt": 1441,
        "correct": true,
        "response": "ArrowRight",
        "congruent": true,
        "gazeTowards": true,
        "gazeCondition": "towards",
        "faceOnLeft": true,
        "impliedDirection": 0,
        "testDirection": 0,
        "avgFps": 61,
        "minFps": 60,
        "maxFps": 417,
        "totalFrames": 87,
        "frameRates": 61
      },
      {
        "trial_number": 114,
        "trial_index": 696,
        "rt": null,
        "correct": false,
        "response": null,
        "congruent": false,
        "gazeTowards": true,
        "gazeCondition": "towards",
        "faceOnLeft": true,
        "impliedDirection": 0,
        "testDirection": 180,
        "avgFps": 60,
        "minFps": 58,
        "maxFps": 1282,
        "totalFrames": 121,
        "frameRates": 60
      },
      {
        "trial_number": 115,
        "trial_index": 701,
        "rt": 1391,
        "correct": true,
        "response": "ArrowRight",
        "congruent": false,
        "gazeTowards": false,
        "gazeCondition": "away",
        "faceOnLeft": false,
        "impliedDirection": 180,
        "testDirection": 0,
        "avgFps": 61,
        "minFps": 60,
        "maxFps": 1220,
        "totalFrames": 85,
        "frameRates": 61
      },
      {
        "trial_number": 116,
        "trial_index": 706,
        "rt": 1459,
        "correct": true,
        "response": "ArrowLeft",
        "congruent": false,
        "gazeTowards": true,
        "gazeCondition": "towards",
        "faceOnLeft": true,
        "impliedDirection": 0,
        "testDirection": 180,
        "avgFps": 61,
        "minFps": 60,
        "maxFps": 467,
        "totalFrames": 88,
        "frameRates": 61
      },
      {
        "trial_number": 117,
        "trial_index": 711,
        "rt": 1296,
        "correct": true,
        "response": "ArrowLeft",
        "congruent": false,
        "gazeTowards": true,
        "gazeCondition": "towards",
        "faceOnLeft": true,
        "impliedDirection": 0,
        "testDirection": 180,
        "avgFps": 61,
        "minFps": 48,
        "maxFps": 1613,
        "totalFrames": 78,
        "frameRates": 61
      },
      {
        "trial_number": 118,
        "trial_index": 716,
        "rt": 1585,
        "correct": true,
        "response": "ArrowLeft",
        "congruent": false,
        "gazeTowards": true,
        "gazeCondition": "towards",
        "faceOnLeft": true,
        "impliedDirection": 0,
        "testDirection": 180,
        "avgFps": 61,
        "minFps": 60,
        "maxFps": 1190,
        "totalFrames": 96,
        "frameRates": 61
      },
      {
        "trial_number": 119,
        "trial_index": 724,
        "rt": 1555,
        "correct": true,
        "response": "ArrowRight",
        "congruent": true,
        "gazeTowards": false,
        "gazeCondition": "away",
        "faceOnLeft": true,
        "impliedDirection": 0,
        "testDirection": 0,
        "avgFps": 59,
        "minFps": 20,
        "maxFps": 246,
        "totalFrames": 92,
        "frameRates": 59
      }
    ],
    "catch": {
      "total": 12,
      "correct": 12,
      "accuracy": 100,
      "meanRT": 1096,
      "trials": [
        {
          "trial_number": 0,
          "trial_index": 229,
          "rt": 967,
          "correct": true,
          "colorTarget": "face",
          "gazeTowards": false,
          "gazeCondition": "away",
          "faceOnLeft": false
        },
        {
          "trial_number": 1,
          "trial_index": 242,
          "rt": 828,
          "correct": true,
          "colorTarget": "tree",
          "gazeTowards": true,
          "gazeCondition": "towards",
          "faceOnLeft": true
        },
        {
          "trial_number": 2,
          "trial_index": 336,
          "rt": 844,
          "correct": true,
          "colorTarget": "face",
          "gazeTowards": true,
          "gazeCondition": "towards",
          "faceOnLeft": true
        },
        {
          "trial_number": 3,
          "trial_index": 404,
          "rt": 906,
          "correct": true,
          "colorTarget": "tree",
          "gazeTowards": false,
          "gazeCondition": "away",
          "faceOnLeft": true
        },
        {
          "trial_number": 4,
          "trial_index": 418,
          "rt": 881,
          "correct": true,
          "colorTarget": "tree",
          "gazeTowards": false,
          "gazeCondition": "away",
          "faceOnLeft": true
        },
        {
          "trial_number": 5,
          "trial_index": 476,
          "rt": 1028,
          "correct": true,
          "colorTarget": "face",
          "gazeTowards": false,
          "gazeCondition": "away",
          "faceOnLeft": false
        },
        {
          "trial_number": 6,
          "trial_index": 564,
          "rt": 1255,
          "correct": true,
          "colorTarget": "face",
          "gazeTowards": true,
          "gazeCondition": "towards",
          "faceOnLeft": false
        },
        {
          "trial_number": 7,
          "trial_index": 578,
          "rt": 1325,
          "correct": true,
          "colorTarget": "tree",
          "gazeTowards": false,
          "gazeCondition": "away",
          "faceOnLeft": true
        },
        {
          "trial_number": 8,
          "trial_index": 606,
          "rt": 910,
          "correct": true,
          "colorTarget": "face",
          "gazeTowards": false,
          "gazeCondition": "away",
          "faceOnLeft": true
        },
        {
          "trial_number": 9,
          "trial_index": 624,
          "rt": 823,
          "correct": true,
          "colorTarget": "tree",
          "gazeTowards": true,
          "gazeCondition": "towards",
          "faceOnLeft": true
        },
        {
          "trial_number": 10,
          "trial_index": 647,
          "rt": 2430,
          "correct": true,
          "colorTarget": "face",
          "gazeTowards": true,
          "gazeCondition": "towards",
          "faceOnLeft": true
        },
        {
          "trial_number": 11,
          "trial_index": 720,
          "rt": 960,
          "correct": true,
          "colorTarget": "tree",
          "gazeTowards": false,
          "gazeCondition": "away",
          "faceOnLeft": false
        }
      ]
    },
    "practice": {
      "trials": [
        {
          "trial_number": 0,
          "rt": 1626,
          "correct": false,
          "direction": 0
        },
        {
          "trial_number": 1,
          "rt": 1483,
          "correct": true,
          "direction": 180
        },
        {
          "trial_number": 2,
          "rt": 1379,
          "correct": true,
          "direction": 180
        },
        {
          "trial_number": 3,
          "rt": 1094,
          "correct": false,
          "direction": 180
        },
        {
          "trial_number": 4,
          "rt": 1623,
          "correct": true,
          "direction": 180
        },
        {
          "trial_number": 5,
          "rt": 1055,
          "correct": true,
          "direction": 180
        },
        {
          "trial_number": 6,
          "rt": 1166,
          "correct": true,
          "direction": 0
        },
        {
          "trial_number": 7,
          "rt": 1936,
          "correct": false,
          "direction": 0
        },
        {
          "trial_number": 8,
          "rt": 1141,
          "correct": true,
          "direction": 180
        },
        {
          "trial_number": 9,
          "rt": 1245,
          "correct": true,
          "direction": 180
        },
        {
          "trial_number": 10,
          "rt": 1802,
          "correct": true,
          "direction": 0
        },
        {
          "trial_number": 11,
          "rt": 1544,
          "correct": true,
          "direction": 180
        },
        {
          "trial_number": 12,
          "rt": 1033,
          "correct": true,
          "direction": 180
        },
        {
          "trial_number": 13,
          "rt": null,
          "correct": false,
          "direction": 180
        },
        {
          "trial_number": 14,
          "rt": 809,
          "correct": true,
          "direction": 180
        },
        {
          "trial_number": 15,
          "rt": 1298,
          "correct": true,
          "direction": 180
        },
        {
          "trial_number": 16,
          "rt": 1212,
          "correct": true,
          "direction": 0
        },
        {
          "trial_number": 17,
          "rt": 1554,
          "correct": true,
          "direction": 0
        },
        {
          "trial_number": 18,
          "rt": 1237,
          "correct": true,
          "direction": 180
        },
        {
          "trial_number": 19,
          "rt": 1051,
          "correct": true,
          "direction": 180
        }
      ],
      "meanRT": 1331,
      "accuracy": 80
    }
  }
}