{
  "experiment": "rdk-face-1",
  "UUID": "1c6284bc-c341-4f55-8ef4-2d3e5c13cf05",
  "data": {
    "session": {
      "experiment_version": "1.8.6",
      "treatment": "faces_towards_away_catch",
      "file_version": "1.8.6",
      "totalTrials": 120,
      "totalTrialsIncludingCatch": 132,
      "conditions": {
        "gazeTowardsCount": 60,
        "gazeAwayCount": 60,
        "gazeTowardsAccuracy": 73,
        "gazeAwayAccuracy": 68
      },
      "session_group": "default",
      "browserData": {
        "os": "Windows",
        "browser": "Edge",
        "screenResolution": "1280x720",
        "browserViewport": "1280x720",
        "devicePixelRatio": 1.5,
        "colorDepth": 32,
        "hardwareConcurrency": 8,
        "deviceMemory": 8,
        "gpuRenderer": "ANGLE (Intel, Intel(R) Iris(R) Xe Graphics (0x00009A49) Direct3D11 vs_5_0 ps_5_0, D3D11)",
        "measuredRefreshRateHz": 48
      },
      "attention": {
        "visibilityEvents": []
      },
      "calibration": {
        "monitorWidthCm": 38,
        "viewingDistanceCm": 54,
        "pixelsPerDegree": 50
      },
      "parameters": {
        "coherence": 0.4,
        "apertureDeg": 5,
        "densityDotsPerDeg2": 40,
        "dotDiameterDeg": 0.035,
        "dotSpeedDegPerSec": 3,
        "lifetimeMs": 200,
        "fixationDurationMs": 1500,
        "faceDurationMs": 1500,
        "testDurationMs": 2000,
        "catchResponseMs": 3000
      },
      "prolific": {
        "prolificPid": "671a528fe9658f0a32bd55ce",
        "studyId": "",
        "sessionId": ""
      },
      "timing": {
        "startTime": "2026-03-06T07:02:34.907Z",
        "endTime": "2026-03-06T07:18:31.830Z",
        "totalElapsedTimeMs": 956923
      }
    },
    "trials": [
      {
        "trial_number": 0,
        "trial_index": 90,
        "rt": 898,
        "correct": true,
        "response": "ArrowRight",
        "congruent": true,
        "gazeTowards": false,
        "gazeCondition": "away",
        "faceOnLeft": true,
        "impliedDirection": 0,
        "testDirection": 0,
        "avgFps": 59,
        "minFps": 26,
        "maxFps": 61,
        "totalFrames": 53,
        "frameRates": 59
      },
      {
        "trial_number": 1,
        "trial_index": 95,
        "rt": 1151,
        "correct": false,
        "response": "ArrowLeft",
        "congruent": true,
        "gazeTowards": true,
        "gazeCondition": "towards",
        "faceOnLeft": true,
        "impliedDirection": 0,
        "testDirection": 0,
        "avgFps": 60,
        "minFps": 41,
        "maxFps": 61,
        "totalFrames": 68,
        "frameRates": 60
      },
      {
        "trial_number": 2,
        "trial_index": 100,
        "rt": 1436,
        "correct": true,
        "response": "ArrowRight",
        "congruent": true,
        "gazeTowards": false,
        "gazeCondition": "away",
        "faceOnLeft": true,
        "impliedDirection": 0,
        "testDirection": 0,
        "avgFps": 59,
        "minFps": 22,
        "maxFps": 61,
        "totalFrames": 85,
        "frameRates": 59
      },
      {
        "trial_number": 3,
        "trial_index": 105,
        "rt": 943,
        "correct": true,
        "response": "ArrowLeft",
        "congruent": false,
        "gazeTowards": false,
        "gazeCondition": "away",
        "faceOnLeft": true,
        "impliedDirection": 0,
        "testDirection": 180,
        "avgFps": 59,
        "minFps": 30,
        "maxFps": 61,
        "totalFrames": 56,
        "frameRates": 59
      },
      {
        "trial_number": 4,
        "trial_index": 113,
        "rt": 1135,
        "correct": true,
        "response": "ArrowLeft",
        "congruent": true,
        "gazeTowards": true,
        "gazeCondition": "towards",
        "faceOnLeft": false,
        "impliedDirection": 180,
        "testDirection": 180,
        "avgFps": 59,
        "minFps": 26,
        "maxFps": 61,
        "totalFrames": 67,
        "frameRates": 59
      },
      {
        "trial_number": 5,
        "trial_index": 118,
        "rt": 1460,
        "correct": false,
        "response": "ArrowRight",
        "congruent": false,
        "gazeTowards": true,
        "gazeCondition": "towards",
        "faceOnLeft": true,
        "impliedDirection": 0,
        "testDirection": 180,
        "avgFps": 59,
        "minFps": 30,
        "maxFps": 61,
        "totalFrames": 87,
        "frameRates": 59
      },
      {
        "trial_number": 6,
        "trial_index": 123,
        "rt": 1017,
        "correct": true,
        "response": "ArrowRight",
        "congruent": true,
        "gazeTowards": true,
        "gazeCondition": "towards",
        "faceOnLeft": true,
        "impliedDirection": 0,
        "testDirection": 0,
        "avgFps": 59,
        "minFps": 27,
        "maxFps": 61,
        "totalFrames": 60,
        "frameRates": 59
      },
      {
        "trial_number": 7,
        "trial_index": 128,
        "rt": 1034,
        "correct": false,
        "response": "ArrowRight",
        "congruent": false,
        "gazeTowards": true,
        "gazeCondition": "towards",
        "faceOnLeft": true,
        "impliedDirection": 0,
        "testDirection": 180,
        "avgFps": 59,
        "minFps": 38,
        "maxFps": 61,
        "totalFrames": 61,
        "frameRates": 59
      },
      {
        "trial_number": 8,
        "trial_index": 133,
        "rt": 1187,
        "correct": true,
        "response": "ArrowRight",
        "congruent": false,
        "gazeTowards": false,
        "gazeCondition": "away",
        "faceOnLeft": false,
        "impliedDirection": 180,
        "testDirection": 0,
        "avgFps": 59,
        "minFps": 26,
        "maxFps": 61,
        "totalFrames": 70,
        "frameRates": 59
      },
      {
        "trial_number": 9,
        "trial_index": 138,
        "rt": 1162,
        "correct": true,
        "response": "ArrowRight",
        "congruent": false,
        "gazeTowards": true,
        "gazeCondition": "towards",
        "faceOnLeft": false,
        "impliedDirection": 180,
        "testDirection": 0,
        "avgFps": 59,
        "minFps": 26,
        "maxFps": 61,
        "totalFrames": 69,
        "frameRates": 59
      },
      {
        "trial_number": 10,
        "trial_index": 143,
        "rt": 1197,
        "correct": false,
        "response": "ArrowRight",
        "congruent": false,
        "gazeTowards": true,
        "gazeCondition": "towards",
        "faceOnLeft": true,
        "impliedDirection": 0,
        "testDirection": 180,
        "avgFps": 59,
        "minFps": 26,
        "maxFps": 61,
        "totalFrames": 71,
        "frameRates": 59
      },
      {
        "trial_number": 11,
        "trial_index": 148,
        "rt": 1460,
        "correct": true,
        "response": "ArrowLeft",
        "congruent": true,
        "gazeTowards": false,
        "gazeCondition": "away",
        "faceOnLeft": false,
        "impliedDirection": 180,
        "testDirection": 180,
        "avgFps": 59,
        "minFps": 28,
        "maxFps": 61,
        "totalFrames": 87,
        "frameRates": 59
      },
      {
        "trial_number": 12,
        "trial_index": 153,
        "rt": 1080,
        "correct": true,
        "response": "ArrowRight",
        "congruent": true,
        "gazeTowards": false,
        "gazeCondition": "away",
        "faceOnLeft": true,
        "impliedDirection": 0,
        "testDirection": 0,
        "avgFps": 59,
        "minFps": 31,
        "maxFps": 61,
        "totalFrames": 64,
        "frameRates": 59
      },
      {
        "trial_number": 13,
        "trial_index": 158,
        "rt": 1308,
        "correct": true,
        "response": "ArrowRight",
        "congruent": true,
        "gazeTowards": false,
        "gazeCondition": "away",
        "faceOnLeft": true,
        "impliedDirection": 0,
        "testDirection": 0,
        "avgFps": 60,
        "minFps": 42,
        "maxFps": 61,
        "totalFrames": 78,
        "frameRates": 60
      },
      {
        "trial_number": 14,
        "trial_index": 163,
        "rt": 1483,
        "correct": true,
        "response": "ArrowRight",
        "congruent": false,
        "gazeTowards": false,
        "gazeCondition": "away",
        "faceOnLeft": false,
        "impliedDirection": 180,
        "testDirection": 0,
        "avgFps": 60,
        "minFps": 40,
        "maxFps": 61,
        "totalFrames": 88,
        "frameRates": 60
      },
      {
        "trial_number": 15,
        "trial_index": 168,
        "rt": 1263,
        "correct": true,
        "response": "ArrowRight",
        "congruent": true,
        "gazeTowards": false,
        "gazeCondition": "away",
        "faceOnLeft": true,
        "impliedDirection": 0,
        "testDirection": 0,
        "avgFps": 59,
        "minFps": 33,
        "maxFps": 61,
        "totalFrames": 75,
        "frameRates": 59
      },
      {
        "trial_number": 16,
        "trial_index": 173,
        "rt": 1834,
        "correct": true,
        "response": "ArrowRight",
        "congruent": false,
        "gazeTowards": true,
        "gazeCondition": "towards",
        "faceOnLeft": false,
        "impliedDirection": 180,
        "testDirection": 0,
        "avgFps": 59,
        "minFps": 26,
        "maxFps": 61,
        "totalFrames": 109,
        "frameRates": 59
      },
      {
        "trial_number": 17,
        "trial_index": 178,
        "rt": 1752,
        "correct": true,
        "response": "ArrowRight",
        "congruent": true,
        "gazeTowards": true,
        "gazeCondition": "towards",
        "faceOnLeft": true,
        "impliedDirection": 0,
        "testDirection": 0,
        "avgFps": 59,
        "minFps": 29,
        "maxFps": 61,
        "totalFrames": 104,
        "frameRates": 59
      },
      {
        "trial_number": 18,
        "trial_index": 183,
        "rt": null,
        "correct": false,
        "response": null,
        "congruent": true,
        "gazeTowards": true,
        "gazeCondition": "towards",
        "faceOnLeft": true,
        "impliedDirection": 0,
        "testDirection": 0,
        "avgFps": 60,
        "minFps": 29,
        "maxFps": 61,
        "totalFrames": 120,
        "frameRates": 60
      },
      {
        "trial_number": 19,
        "trial_index": 188,
        "rt": 1306,
        "correct": false,
        "response": "ArrowLeft",
        "congruent": false,
        "gazeTowards": true,
        "gazeCondition": "towards",
        "faceOnLeft": false,
        "impliedDirection": 180,
        "testDirection": 0,
        "avgFps": 59,
        "minFps": 30,
        "maxFps": 61,
        "totalFrames": 77,
        "frameRates": 59
      },
      {
        "trial_number": 20,
        "trial_index": 193,
        "rt": 1432,
        "correct": true,
        "response": "ArrowLeft",
        "congruent": true,
        "gazeTowards": true,
        "gazeCondition": "towards",
        "faceOnLeft": false,
        "impliedDirection": 180,
        "testDirection": 180,
        "avgFps": 59,
        "minFps": 33,
        "maxFps": 61,
        "totalFrames": 85,
        "frameRates": 59
      },
      {
        "trial_number": 21,
        "trial_index": 201,
        "rt": 991,
        "correct": true,
        "response": "ArrowRight",
        "congruent": true,
        "gazeTowards": false,
        "gazeCondition": "away",
        "faceOnLeft": true,
        "impliedDirection": 0,
        "testDirection": 0,
        "avgFps": 59,
        "minFps": 31,
        "maxFps": 61,
        "totalFrames": 59,
        "frameRates": 59
      },
      {
        "trial_number": 22,
        "trial_index": 206,
        "rt": 1596,
        "correct": true,
        "response": "ArrowRight",
        "congruent": false,
        "gazeTowards": false,
        "gazeCondition": "away",
        "faceOnLeft": false,
        "impliedDirection": 180,
        "testDirection": 0,
        "avgFps": 60,
        "minFps": 38,
        "maxFps": 61,
        "totalFrames": 95,
        "frameRates": 60
      },
      {
        "trial_number": 23,
        "trial_index": 211,
        "rt": 1363,
        "correct": true,
        "response": "ArrowRight",
        "congruent": true,
        "gazeTowards": true,
        "gazeCondition": "towards",
        "faceOnLeft": true,
        "impliedDirection": 0,
        "testDirection": 0,
        "avgFps": 59,
        "minFps": 31,
        "maxFps": 61,
        "totalFrames": 81,
        "frameRates": 59
      },
      {
        "trial_number": 24,
        "trial_index": 216,
        "rt": 1398,
        "correct": true,
        "response": "ArrowRight",
        "congruent": true,
        "gazeTowards": true,
        "gazeCondition": "towards",
        "faceOnLeft": true,
        "impliedDirection": 0,
        "testDirection": 0,
        "avgFps": 59,
        "minFps": 29,
        "maxFps": 61,
        "totalFrames": 83,
        "frameRates": 59
      },
      {
        "trial_number": 25,
        "trial_index": 221,
        "rt": 1417,
        "correct": true,
        "response": "ArrowRight",
        "congruent": false,
        "gazeTowards": false,
        "gazeCondition": "away",
        "faceOnLeft": false,
        "impliedDirection": 180,
        "testDirection": 0,
        "avgFps": 59,
        "minFps": 27,
        "maxFps": 61,
        "totalFrames": 84,
        "frameRates": 59
      },
      {
        "trial_number": 26,
        "trial_index": 226,
        "rt": 1284,
        "correct": true,
        "response": "ArrowLeft",
        "congruent": true,
        "gazeTowards": true,
        "gazeCondition": "towards",
        "faceOnLeft": false,
        "impliedDirection": 180,
        "testDirection": 180,
        "avgFps": 59,
        "minFps": 27,
        "maxFps": 61,
        "totalFrames": 76,
        "frameRates": 59
      },
      {
        "trial_number": 27,
        "trial_index": 231,
        "rt": 1839,
        "correct": true,
        "response": "ArrowLeft",
        "congruent": true,
        "gazeTowards": false,
        "gazeCondition": "away",
        "faceOnLeft": false,
        "impliedDirection": 180,
        "testDirection": 180,
        "avgFps": 60,
        "minFps": 32,
        "maxFps": 61,
        "totalFrames": 109,
        "frameRates": 60
      },
      {
        "trial_number": 28,
        "trial_index": 236,
        "rt": 1409,
        "correct": true,
        "response": "ArrowRight",
        "congruent": true,
        "gazeTowards": true,
        "gazeCondition": "towards",
        "faceOnLeft": true,
        "impliedDirection": 0,
        "testDirection": 0,
        "avgFps": 59,
        "minFps": 27,
        "maxFps": 61,
        "totalFrames": 84,
        "frameRates": 59
      },
      {
        "trial_number": 29,
        "trial_index": 241,
        "rt": 1237,
        "correct": true,
        "response": "ArrowLeft",
        "congruent": false,
        "gazeTowards": true,
        "gazeCondition": "towards",
        "faceOnLeft": true,
        "impliedDirection": 0,
        "testDirection": 180,
        "avgFps": 59,
        "minFps": 32,
        "maxFps": 61,
        "totalFrames": 73,
        "frameRates": 59
      },
      {
        "trial_number": 30,
        "trial_index": 246,
        "rt": 1881,
        "correct": true,
        "response": "ArrowLeft",
        "congruent": true,
        "gazeTowards": true,
        "gazeCondition": "towards",
        "faceOnLeft": false,
        "impliedDirection": 180,
        "testDirection": 180,
        "avgFps": 60,
        "minFps": 41,
        "maxFps": 61,
        "totalFrames": 112,
        "frameRates": 60
      },
      {
        "trial_number": 31,
        "trial_index": 252,
        "rt": 1439,
        "correct": false,
        "response": "ArrowLeft",
        "congruent": false,
        "gazeTowards": false,
        "gazeCondition": "away",
        "faceOnLeft": false,
        "impliedDirection": 180,
        "testDirection": 0,
        "avgFps": 60,
        "minFps": 42,
        "maxFps": 61,
        "totalFrames": 85,
        "frameRates": 60
      },
      {
        "trial_number": 32,
        "trial_index": 257,
        "rt": 1434,
        "correct": true,
        "response": "ArrowRight",
        "congruent": false,
        "gazeTowards": true,
        "gazeCondition": "towards",
        "faceOnLeft": false,
        "impliedDirection": 180,
        "testDirection": 0,
        "avgFps": 59,
        "minFps": 27,
        "maxFps": 61,
        "totalFrames": 85,
        "frameRates": 59
      },
      {
        "trial_number": 33,
        "trial_index": 262,
        "rt": 1172,
        "correct": true,
        "response": "ArrowRight",
        "congruent": false,
        "gazeTowards": false,
        "gazeCondition": "away",
        "faceOnLeft": false,
        "impliedDirection": 180,
        "testDirection": 0,
        "avgFps": 59,
        "minFps": 31,
        "maxFps": 61,
        "totalFrames": 69,
        "frameRates": 59
      },
      {
        "trial_number": 34,
        "trial_index": 267,
        "rt": 867,
        "correct": true,
        "response": "ArrowLeft",
        "congruent": false,
        "gazeTowards": true,
        "gazeCondition": "towards",
        "faceOnLeft": true,
        "impliedDirection": 0,
        "testDirection": 180,
        "avgFps": 59,
        "minFps": 27,
        "maxFps": 61,
        "totalFrames": 51,
        "frameRates": 59
      },
      {
        "trial_number": 35,
        "trial_index": 272,
        "rt": 1341,
        "correct": false,
        "response": "ArrowLeft",
        "congruent": false,
        "gazeTowards": false,
        "gazeCondition": "away",
        "faceOnLeft": false,
        "impliedDirection": 180,
        "testDirection": 0,
        "avgFps": 59,
        "minFps": 27,
        "maxFps": 61,
        "totalFrames": 80,
        "frameRates": 59
      },
      {
        "trial_number": 36,
        "trial_index": 277,
        "rt": 1121,
        "correct": true,
        "response": "ArrowLeft",
        "congruent": false,
        "gazeTowards": true,
        "gazeCondition": "towards",
        "faceOnLeft": true,
        "impliedDirection": 0,
        "testDirection": 180,
        "avgFps": 60,
        "minFps": 41,
        "maxFps": 61,
        "totalFrames": 66,
        "frameRates": 60
      },
      {
        "trial_number": 37,
        "trial_index": 285,
        "rt": 1213,
        "correct": false,
        "response": "ArrowLeft",
        "congruent": false,
        "gazeTowards": false,
        "gazeCondition": "away",
        "faceOnLeft": false,
        "impliedDirection": 180,
        "testDirection": 0,
        "avgFps": 59,
        "minFps": 27,
        "maxFps": 61,
        "totalFrames": 72,
        "frameRates": 59
      },
      {
        "trial_number": 38,
        "trial_index": 290,
        "rt": 1405,
        "correct": true,
        "response": "ArrowRight",
        "congruent": true,
        "gazeTowards": false,
        "gazeCondition": "away",
        "faceOnLeft": true,
        "impliedDirection": 0,
        "testDirection": 0,
        "avgFps": 59,
        "minFps": 27,
        "maxFps": 61,
        "totalFrames": 83,
        "frameRates": 59
      },
      {
        "trial_number": 39,
        "trial_index": 295,
        "rt": 1963,
        "correct": false,
        "response": "ArrowLeft",
        "congruent": false,
        "gazeTowards": false,
        "gazeCondition": "away",
        "faceOnLeft": false,
        "impliedDirection": 180,
        "testDirection": 0,
        "avgFps": 59,
        "minFps": 29,
        "maxFps": 61,
        "totalFrames": 117,
        "frameRates": 59
      },
      {
        "trial_number": 40,
        "trial_index": 300,
        "rt": 1831,
        "correct": false,
        "response": "ArrowRight",
        "congruent": false,
        "gazeTowards": false,
        "gazeCondition": "away",
        "faceOnLeft": true,
        "impliedDirection": 0,
        "testDirection": 180,
        "avgFps": 60,
        "minFps": 30,
        "maxFps": 61,
        "totalFrames": 109,
        "frameRates": 60
      },
      {
        "trial_number": 41,
        "trial_index": 305,
        "rt": 1835,
        "correct": true,
        "response": "ArrowRight",
        "congruent": true,
        "gazeTowards": true,
        "gazeCondition": "towards",
        "faceOnLeft": true,
        "impliedDirection": 0,
        "testDirection": 0,
        "avgFps": 60,
        "minFps": 30,
        "maxFps": 61,
        "totalFrames": 109,
        "frameRates": 60
      },
      {
        "trial_number": 42,
        "trial_index": 310,
        "rt": 1920,
        "correct": false,
        "response": "ArrowLeft",
        "congruent": true,
        "gazeTowards": false,
        "gazeCondition": "away",
        "faceOnLeft": true,
        "impliedDirection": 0,
        "testDirection": 0,
        "avgFps": 59,
        "minFps": 28,
        "maxFps": 61,
        "totalFrames": 114,
        "frameRates": 59
      },
      {
        "trial_number": 43,
        "trial_index": 315,
        "rt": null,
        "correct": false,
        "response": null,
        "congruent": true,
        "gazeTowards": false,
        "gazeCondition": "away",
        "faceOnLeft": false,
        "impliedDirection": 180,
        "testDirection": 180,
        "avgFps": 59,
        "minFps": 28,
        "maxFps": 61,
        "totalFrames": 119,
        "frameRates": 59
      },
      {
        "trial_number": 44,
        "trial_index": 320,
        "rt": null,
        "correct": false,
        "response": null,
        "congruent": false,
        "gazeTowards": false,
        "gazeCondition": "away",
        "faceOnLeft": true,
        "impliedDirection": 0,
        "testDirection": 180,
        "avgFps": 59,
        "minFps": 28,
        "maxFps": 61,
        "totalFrames": 119,
        "frameRates": 59
      },
      {
        "trial_number": 45,
        "trial_index": 325,
        "rt": 1354,
        "correct": true,
        "response": "ArrowLeft",
        "congruent": false,
        "gazeTowards": false,
        "gazeCondition": "away",
        "faceOnLeft": true,
        "impliedDirection": 0,
        "testDirection": 180,
        "avgFps": 59,
        "minFps": 28,
        "maxFps": 61,
        "totalFrames": 80,
        "frameRates": 59
      },
      {
        "trial_number": 46,
        "trial_index": 330,
        "rt": 1315,
        "correct": false,
        "response": "ArrowRight",
        "congruent": true,
        "gazeTowards": false,
        "gazeCondition": "away",
        "faceOnLeft": false,
        "impliedDirection": 180,
        "testDirection": 180,
        "avgFps": 59,
        "minFps": 27,
        "maxFps": 61,
        "totalFrames": 78,
        "frameRates": 59
      },
      {
        "trial_number": 47,
        "trial_index": 335,
        "rt": 984,
        "correct": true,
        "response": "ArrowRight",
        "congruent": true,
        "gazeTowards": true,
        "gazeCondition": "towards",
        "faceOnLeft": true,
        "impliedDirection": 0,
        "testDirection": 0,
        "avgFps": 59,
        "minFps": 31,
        "maxFps": 61,
        "totalFrames": 58,
        "frameRates": 59
      },
      {
        "trial_number": 48,
        "trial_index": 340,
        "rt": 970,
        "correct": true,
        "response": "ArrowLeft",
        "congruent": false,
        "gazeTowards": true,
        "gazeCondition": "towards",
        "faceOnLeft": true,
        "impliedDirection": 0,
        "testDirection": 180,
        "avgFps": 59,
        "minFps": 28,
        "maxFps": 61,
        "totalFrames": 57,
        "frameRates": 59
      },
      {
        "trial_number": 49,
        "trial_index": 345,
        "rt": 1600,
        "correct": true,
        "response": "ArrowRight",
        "congruent": false,
        "gazeTowards": true,
        "gazeCondition": "towards",
        "faceOnLeft": false,
        "impliedDirection": 180,
        "testDirection": 0,
        "avgFps": 60,
        "minFps": 34,
        "maxFps": 61,
        "totalFrames": 95,
        "frameRates": 60
      },
      {
        "trial_number": 50,
        "trial_index": 350,
        "rt": 1221,
        "correct": true,
        "response": "ArrowLeft",
        "congruent": false,
        "gazeTowards": true,
        "gazeCondition": "towards",
        "faceOnLeft": true,
        "impliedDirection": 0,
        "testDirection": 180,
        "avgFps": 59,
        "minFps": 27,
        "maxFps": 61,
        "totalFrames": 72,
        "frameRates": 59
      },
      {
        "trial_number": 51,
        "trial_index": 355,
        "rt": 1158,
        "correct": true,
        "response": "ArrowRight",
        "congruent": false,
        "gazeTowards": false,
        "gazeCondition": "away",
        "faceOnLeft": false,
        "impliedDirection": 180,
        "testDirection": 0,
        "avgFps": 59,
        "minFps": 34,
        "maxFps": 61,
        "totalFrames": 69,
        "frameRates": 59
      },
      {
        "trial_number": 52,
        "trial_index": 360,
        "rt": 1337,
        "correct": false,
        "response": "ArrowLeft",
        "congruent": true,
        "gazeTowards": true,
        "gazeCondition": "towards",
        "faceOnLeft": true,
        "impliedDirection": 0,
        "testDirection": 0,
        "avgFps": 59,
        "minFps": 27,
        "maxFps": 61,
        "totalFrames": 79,
        "frameRates": 59
      },
      {
        "trial_number": 53,
        "trial_index": 365,
        "rt": 1394,
        "correct": true,
        "response": "ArrowRight",
        "congruent": true,
        "gazeTowards": true,
        "gazeCondition": "towards",
        "faceOnLeft": true,
        "impliedDirection": 0,
        "testDirection": 0,
        "avgFps": 59,
        "minFps": 31,
        "maxFps": 61,
        "totalFrames": 83,
        "frameRates": 59
      },
      {
        "trial_number": 54,
        "trial_index": 370,
        "rt": 839,
        "correct": true,
        "response": "ArrowRight",
        "congruent": false,
        "gazeTowards": false,
        "gazeCondition": "away",
        "faceOnLeft": false,
        "impliedDirection": 180,
        "testDirection": 0,
        "avgFps": 59,
        "minFps": 30,
        "maxFps": 61,
        "totalFrames": 49,
        "frameRates": 59
      },
      {
        "trial_number": 55,
        "trial_index": 375,
        "rt": 1355,
        "correct": true,
        "response": "ArrowRight",
        "congruent": false,
        "gazeTowards": false,
        "gazeCondition": "away",
        "faceOnLeft": false,
        "impliedDirection": 180,
        "testDirection": 0,
        "avgFps": 59,
        "minFps": 29,
        "maxFps": 61,
        "totalFrames": 80,
        "frameRates": 59
      },
      {
        "trial_number": 56,
        "trial_index": 380,
        "rt": 1485,
        "correct": false,
        "response": "ArrowLeft",
        "congruent": true,
        "gazeTowards": false,
        "gazeCondition": "away",
        "faceOnLeft": true,
        "impliedDirection": 0,
        "testDirection": 0,
        "avgFps": 59,
        "minFps": 26,
        "maxFps": 61,
        "totalFrames": 88,
        "frameRates": 59
      },
      {
        "trial_number": 57,
        "trial_index": 385,
        "rt": 1733,
        "correct": false,
        "response": "ArrowLeft",
        "congruent": true,
        "gazeTowards": true,
        "gazeCondition": "towards",
        "faceOnLeft": true,
        "impliedDirection": 0,
        "testDirection": 0,
        "avgFps": 59,
        "minFps": 28,
        "maxFps": 61,
        "totalFrames": 103,
        "frameRates": 59
      },
      {
        "trial_number": 58,
        "trial_index": 390,
        "rt": 1267,
        "correct": true,
        "response": "ArrowRight",
        "congruent": false,
        "gazeTowards": true,
        "gazeCondition": "towards",
        "faceOnLeft": false,
        "impliedDirection": 180,
        "testDirection": 0,
        "avgFps": 59,
        "minFps": 27,
        "maxFps": 61,
        "totalFrames": 75,
        "frameRates": 59
      },
      {
        "trial_number": 59,
        "trial_index": 395,
        "rt": 1220,
        "correct": true,
        "response": "ArrowRight",
        "congruent": true,
        "gazeTowards": false,
        "gazeCondition": "away",
        "faceOnLeft": true,
        "impliedDirection": 0,
        "testDirection": 0,
        "avgFps": 59,
        "minFps": 33,
        "maxFps": 61,
        "totalFrames": 72,
        "frameRates": 59
      },
      {
        "trial_number": 60,
        "trial_index": 406,
        "rt": 1628,
        "correct": true,
        "response": "ArrowRight",
        "congruent": true,
        "gazeTowards": true,
        "gazeCondition": "towards",
        "faceOnLeft": true,
        "impliedDirection": 0,
        "testDirection": 0,
        "avgFps": 59,
        "minFps": 27,
        "maxFps": 61,
        "totalFrames": 97,
        "frameRates": 59
      },
      {
        "trial_number": 61,
        "trial_index": 412,
        "rt": 1581,
        "correct": true,
        "response": "ArrowLeft",
        "congruent": true,
        "gazeTowards": true,
        "gazeCondition": "towards",
        "faceOnLeft": false,
        "impliedDirection": 180,
        "testDirection": 180,
        "avgFps": 59,
        "minFps": 28,
        "maxFps": 61,
        "totalFrames": 94,
        "frameRates": 59
      },
      {
        "trial_number": 62,
        "trial_index": 417,
        "rt": 1568,
        "correct": true,
        "response": "ArrowLeft",
        "congruent": false,
        "gazeTowards": true,
        "gazeCondition": "towards",
        "faceOnLeft": true,
        "impliedDirection": 0,
        "testDirection": 180,
        "avgFps": 59,
        "minFps": 27,
        "maxFps": 61,
        "totalFrames": 93,
        "frameRates": 59
      },
      {
        "trial_number": 63,
        "trial_index": 422,
        "rt": 1262,
        "correct": true,
        "response": "ArrowLeft",
        "congruent": false,
        "gazeTowards": true,
        "gazeCondition": "towards",
        "faceOnLeft": true,
        "impliedDirection": 0,
        "testDirection": 180,
        "avgFps": 59,
        "minFps": 28,
        "maxFps": 61,
        "totalFrames": 75,
        "frameRates": 59
      },
      {
        "trial_number": 64,
        "trial_index": 427,
        "rt": 1381,
        "correct": true,
        "response": "ArrowRight",
        "congruent": false,
        "gazeTowards": false,
        "gazeCondition": "away",
        "faceOnLeft": false,
        "impliedDirection": 180,
        "testDirection": 0,
        "avgFps": 59,
        "minFps": 31,
        "maxFps": 61,
        "totalFrames": 82,
        "frameRates": 59
      },
      {
        "trial_number": 65,
        "trial_index": 432,
        "rt": 1490,
        "correct": true,
        "response": "ArrowRight",
        "congruent": true,
        "gazeTowards": false,
        "gazeCondition": "away",
        "faceOnLeft": true,
        "impliedDirection": 0,
        "testDirection": 0,
        "avgFps": 59,
        "minFps": 31,
        "maxFps": 61,
        "totalFrames": 89,
        "frameRates": 59
      },
      {
        "trial_number": 66,
        "trial_index": 443,
        "rt": 1754,
        "correct": true,
        "response": "ArrowRight",
        "congruent": false,
        "gazeTowards": false,
        "gazeCondition": "away",
        "faceOnLeft": false,
        "impliedDirection": 180,
        "testDirection": 0,
        "avgFps": 59,
        "minFps": 28,
        "maxFps": 61,
        "totalFrames": 104,
        "frameRates": 59
      },
      {
        "trial_number": 67,
        "trial_index": 448,
        "rt": null,
        "correct": false,
        "response": null,
        "congruent": false,
        "gazeTowards": false,
        "gazeCondition": "away",
        "faceOnLeft": true,
        "impliedDirection": 0,
        "testDirection": 180,
        "avgFps": 59,
        "minFps": 28,
        "maxFps": 61,
        "totalFrames": 119,
        "frameRates": 59
      },
      {
        "trial_number": 68,
        "trial_index": 453,
        "rt": 1579,
        "correct": true,
        "response": "ArrowLeft",
        "congruent": false,
        "gazeTowards": false,
        "gazeCondition": "away",
        "faceOnLeft": true,
        "impliedDirection": 0,
        "testDirection": 180,
        "avgFps": 59,
        "minFps": 31,
        "maxFps": 61,
        "totalFrames": 94,
        "frameRates": 59
      },
      {
        "trial_number": 69,
        "trial_index": 458,
        "rt": 1275,
        "correct": true,
        "response": "ArrowLeft",
        "congruent": true,
        "gazeTowards": false,
        "gazeCondition": "away",
        "faceOnLeft": false,
        "impliedDirection": 180,
        "testDirection": 180,
        "avgFps": 60,
        "minFps": 40,
        "maxFps": 61,
        "totalFrames": 76,
        "frameRates": 60
      },
      {
        "trial_number": 70,
        "trial_index": 463,
        "rt": 1195,
        "correct": true,
        "response": "ArrowRight",
        "congruent": false,
        "gazeTowards": true,
        "gazeCondition": "towards",
        "faceOnLeft": false,
        "impliedDirection": 180,
        "testDirection": 0,
        "avgFps": 59,
        "minFps": 31,
        "maxFps": 61,
        "totalFrames": 71,
        "frameRates": 59
      },
      {
        "trial_number": 71,
        "trial_index": 468,
        "rt": 1031,
        "correct": true,
        "response": "ArrowLeft",
        "congruent": true,
        "gazeTowards": true,
        "gazeCondition": "towards",
        "faceOnLeft": false,
        "impliedDirection": 180,
        "testDirection": 180,
        "avgFps": 59,
        "minFps": 29,
        "maxFps": 61,
        "totalFrames": 61,
        "frameRates": 59
      },
      {
        "trial_number": 72,
        "trial_index": 476,
        "rt": null,
        "correct": false,
        "response": null,
        "congruent": true,
        "gazeTowards": false,
        "gazeCondition": "away",
        "faceOnLeft": false,
        "impliedDirection": 180,
        "testDirection": 180,
        "avgFps": 59,
        "minFps": 26,
        "maxFps": 61,
        "totalFrames": 119,
        "frameRates": 59
      },
      {
        "trial_number": 73,
        "trial_index": 481,
        "rt": 1415,
        "correct": true,
        "response": "ArrowLeft",
        "congruent": true,
        "gazeTowards": false,
        "gazeCondition": "away",
        "faceOnLeft": false,
        "impliedDirection": 180,
        "testDirection": 180,
        "avgFps": 59,
        "minFps": 28,
        "maxFps": 61,
        "totalFrames": 84,
        "frameRates": 59
      },
      {
        "trial_number": 74,
        "trial_index": 486,
        "rt": 1868,
        "correct": true,
        "response": "ArrowLeft",
        "congruent": true,
        "gazeTowards": false,
        "gazeCondition": "away",
        "faceOnLeft": false,
        "impliedDirection": 180,
        "testDirection": 180,
        "avgFps": 60,
        "minFps": 39,
        "maxFps": 61,
        "totalFrames": 111,
        "frameRates": 60
      },
      {
        "trial_number": 75,
        "trial_index": 491,
        "rt": 1271,
        "correct": true,
        "response": "ArrowLeft",
        "congruent": true,
        "gazeTowards": false,
        "gazeCondition": "away",
        "faceOnLeft": false,
        "impliedDirection": 180,
        "testDirection": 180,
        "avgFps": 59,
        "minFps": 28,
        "maxFps": 61,
        "totalFrames": 75,
        "frameRates": 59
      },
      {
        "trial_number": 76,
        "trial_index": 496,
        "rt": 1086,
        "correct": true,
        "response": "ArrowRight",
        "congruent": false,
        "gazeTowards": true,
        "gazeCondition": "towards",
        "faceOnLeft": false,
        "impliedDirection": 180,
        "testDirection": 0,
        "avgFps": 59,
        "minFps": 26,
        "maxFps": 61,
        "totalFrames": 64,
        "frameRates": 59
      },
      {
        "trial_number": 77,
        "trial_index": 501,
        "rt": 1391,
        "correct": false,
        "response": "ArrowLeft",
        "congruent": true,
        "gazeTowards": true,
        "gazeCondition": "towards",
        "faceOnLeft": true,
        "impliedDirection": 0,
        "testDirection": 0,
        "avgFps": 60,
        "minFps": 39,
        "maxFps": 61,
        "totalFrames": 83,
        "frameRates": 60
      },
      {
        "trial_number": 78,
        "trial_index": 506,
        "rt": 1921,
        "correct": true,
        "response": "ArrowRight",
        "congruent": true,
        "gazeTowards": false,
        "gazeCondition": "away",
        "faceOnLeft": true,
        "impliedDirection": 0,
        "testDirection": 0,
        "avgFps": 60,
        "minFps": 34,
        "maxFps": 61,
        "totalFrames": 114,
        "frameRates": 60
      },
      {
        "trial_number": 79,
        "trial_index": 511,
        "rt": 1101,
        "correct": true,
        "response": "ArrowLeft",
        "congruent": true,
        "gazeTowards": false,
        "gazeCondition": "away",
        "faceOnLeft": false,
        "impliedDirection": 180,
        "testDirection": 180,
        "avgFps": 59,
        "minFps": 28,
        "maxFps": 61,
        "totalFrames": 65,
        "frameRates": 59
      },
      {
        "trial_number": 80,
        "trial_index": 516,
        "rt": 1271,
        "correct": false,
        "response": "ArrowRight",
        "congruent": true,
        "gazeTowards": true,
        "gazeCondition": "towards",
        "faceOnLeft": false,
        "impliedDirection": 180,
        "testDirection": 180,
        "avgFps": 59,
        "minFps": 32,
        "maxFps": 61,
        "totalFrames": 75,
        "frameRates": 59
      },
      {
        "trial_number": 81,
        "trial_index": 521,
        "rt": 1138,
        "correct": true,
        "response": "ArrowRight",
        "congruent": false,
        "gazeTowards": false,
        "gazeCondition": "away",
        "faceOnLeft": false,
        "impliedDirection": 180,
        "testDirection": 0,
        "avgFps": 59,
        "minFps": 30,
        "maxFps": 61,
        "totalFrames": 67,
        "frameRates": 59
      },
      {
        "trial_number": 82,
        "trial_index": 526,
        "rt": 1287,
        "correct": true,
        "response": "ArrowLeft",
        "congruent": true,
        "gazeTowards": true,
        "gazeCondition": "towards",
        "faceOnLeft": false,
        "impliedDirection": 180,
        "testDirection": 180,
        "avgFps": 59,
        "minFps": 28,
        "maxFps": 61,
        "totalFrames": 76,
        "frameRates": 59
      },
      {
        "trial_number": 83,
        "trial_index": 531,
        "rt": null,
        "correct": false,
        "response": null,
        "congruent": false,
        "gazeTowards": false,
        "gazeCondition": "away",
        "faceOnLeft": true,
        "impliedDirection": 0,
        "testDirection": 180,
        "avgFps": 59,
        "minFps": 26,
        "maxFps": 61,
        "totalFrames": 119,
        "frameRates": 59
      },
      {
        "trial_number": 84,
        "trial_index": 536,
        "rt": 816,
        "correct": true,
        "response": "ArrowRight",
        "congruent": false,
        "gazeTowards": true,
        "gazeCondition": "towards",
        "faceOnLeft": false,
        "impliedDirection": 180,
        "testDirection": 0,
        "avgFps": 59,
        "minFps": 33,
        "maxFps": 61,
        "totalFrames": 48,
        "frameRates": 59
      },
      {
        "trial_number": 85,
        "trial_index": 541,
        "rt": 1249,
        "correct": false,
        "response": "ArrowRight",
        "congruent": true,
        "gazeTowards": false,
        "gazeCondition": "away",
        "faceOnLeft": false,
        "impliedDirection": 180,
        "testDirection": 180,
        "avgFps": 60,
        "minFps": 42,
        "maxFps": 61,
        "totalFrames": 74,
        "frameRates": 60
      },
      {
        "trial_number": 86,
        "trial_index": 546,
        "rt": 1497,
        "correct": false,
        "response": "ArrowLeft",
        "congruent": true,
        "gazeTowards": false,
        "gazeCondition": "away",
        "faceOnLeft": true,
        "impliedDirection": 0,
        "testDirection": 0,
        "avgFps": 59,
        "minFps": 29,
        "maxFps": 61,
        "totalFrames": 89,
        "frameRates": 59
      },
      {
        "trial_number": 87,
        "trial_index": 551,
        "rt": 1192,
        "correct": true,
        "response": "ArrowRight",
        "congruent": false,
        "gazeTowards": true,
        "gazeCondition": "towards",
        "faceOnLeft": false,
        "impliedDirection": 180,
        "testDirection": 0,
        "avgFps": 59,
        "minFps": 30,
        "maxFps": 61,
        "totalFrames": 71,
        "frameRates": 59
      },
      {
        "trial_number": 88,
        "trial_index": 556,
        "rt": 1236,
        "correct": true,
        "response": "ArrowRight",
        "congruent": true,
        "gazeTowards": false,
        "gazeCondition": "away",
        "faceOnLeft": true,
        "impliedDirection": 0,
        "testDirection": 0,
        "avgFps": 59,
        "minFps": 27,
        "maxFps": 61,
        "totalFrames": 73,
        "frameRates": 59
      },
      {
        "trial_number": 89,
        "trial_index": 564,
        "rt": 891,
        "correct": true,
        "response": "ArrowRight",
        "congruent": false,
        "gazeTowards": true,
        "gazeCondition": "towards",
        "faceOnLeft": false,
        "impliedDirection": 180,
        "testDirection": 0,
        "avgFps": 59,
        "minFps": 31,
        "maxFps": 61,
        "totalFrames": 53,
        "frameRates": 59
      },
      {
        "trial_number": 90,
        "trial_index": 570,
        "rt": 1019,
        "correct": true,
        "response": "ArrowLeft",
        "congruent": true,
        "gazeTowards": true,
        "gazeCondition": "towards",
        "faceOnLeft": false,
        "impliedDirection": 180,
        "testDirection": 180,
        "avgFps": 59,
        "minFps": 30,
        "maxFps": 61,
        "totalFrames": 60,
        "frameRates": 59
      },
      {
        "trial_number": 91,
        "trial_index": 575,
        "rt": 1077,
        "correct": true,
        "response": "ArrowRight",
        "congruent": true,
        "gazeTowards": true,
        "gazeCondition": "towards",
        "faceOnLeft": true,
        "impliedDirection": 0,
        "testDirection": 0,
        "avgFps": 59,
        "minFps": 27,
        "maxFps": 61,
        "totalFrames": 64,
        "frameRates": 59
      },
      {
        "trial_number": 92,
        "trial_index": 580,
        "rt": 1498,
        "correct": false,
        "response": "ArrowLeft",
        "congruent": false,
        "gazeTowards": true,
        "gazeCondition": "towards",
        "faceOnLeft": false,
        "impliedDirection": 180,
        "testDirection": 0,
        "avgFps": 59,
        "minFps": 28,
        "maxFps": 61,
        "totalFrames": 89,
        "frameRates": 59
      },
      {
        "trial_number": 93,
        "trial_index": 585,
        "rt": 892,
        "correct": true,
        "response": "ArrowRight",
        "congruent": false,
        "gazeTowards": false,
        "gazeCondition": "away",
        "faceOnLeft": false,
        "impliedDirection": 180,
        "testDirection": 0,
        "avgFps": 59,
        "minFps": 28,
        "maxFps": 61,
        "totalFrames": 53,
        "frameRates": 59
      },
      {
        "trial_number": 94,
        "trial_index": 593,
        "rt": 1372,
        "correct": true,
        "response": "ArrowLeft",
        "congruent": true,
        "gazeTowards": true,
        "gazeCondition": "towards",
        "faceOnLeft": false,
        "impliedDirection": 180,
        "testDirection": 180,
        "avgFps": 59,
        "minFps": 28,
        "maxFps": 61,
        "totalFrames": 81,
        "frameRates": 59
      },
      {
        "trial_number": 95,
        "trial_index": 598,
        "rt": 1012,
        "correct": true,
        "response": "ArrowRight",
        "congruent": false,
        "gazeTowards": true,
        "gazeCondition": "towards",
        "faceOnLeft": false,
        "impliedDirection": 180,
        "testDirection": 0,
        "avgFps": 59,
        "minFps": 30,
        "maxFps": 61,
        "totalFrames": 60,
        "frameRates": 59
      },
      {
        "trial_number": 96,
        "trial_index": 603,
        "rt": 1925,
        "correct": false,
        "response": "ArrowLeft",
        "congruent": false,
        "gazeTowards": true,
        "gazeCondition": "towards",
        "faceOnLeft": false,
        "impliedDirection": 180,
        "testDirection": 0,
        "avgFps": 59,
        "minFps": 29,
        "maxFps": 61,
        "totalFrames": 115,
        "frameRates": 59
      },
      {
        "trial_number": 97,
        "trial_index": 608,
        "rt": null,
        "correct": false,
        "response": null,
        "congruent": false,
        "gazeTowards": true,
        "gazeCondition": "towards",
        "faceOnLeft": true,
        "impliedDirection": 0,
        "testDirection": 180,
        "avgFps": 60,
        "minFps": 30,
        "maxFps": 61,
        "totalFrames": 120,
        "frameRates": 60
      },
      {
        "trial_number": 98,
        "trial_index": 613,
        "rt": 1007,
        "correct": true,
        "response": "ArrowRight",
        "congruent": false,
        "gazeTowards": false,
        "gazeCondition": "away",
        "faceOnLeft": false,
        "impliedDirection": 180,
        "testDirection": 0,
        "avgFps": 59,
        "minFps": 30,
        "maxFps": 61,
        "totalFrames": 60,
        "frameRates": 59
      },
      {
        "trial_number": 99,
        "trial_index": 618,
        "rt": 1294,
        "correct": false,
        "response": "ArrowLeft",
        "congruent": false,
        "gazeTowards": true,
        "gazeCondition": "towards",
        "faceOnLeft": false,
        "impliedDirection": 180,
        "testDirection": 0,
        "avgFps": 59,
        "minFps": 29,
        "maxFps": 61,
        "totalFrames": 77,
        "frameRates": 59
      },
      {
        "trial_number": 100,
        "trial_index": 623,
        "rt": 1845,
        "correct": true,
        "response": "ArrowRight",
        "congruent": false,
        "gazeTowards": true,
        "gazeCondition": "towards",
        "faceOnLeft": false,
        "impliedDirection": 180,
        "testDirection": 0,
        "avgFps": 59,
        "minFps": 26,
        "maxFps": 62,
        "totalFrames": 110,
        "frameRates": 59
      },
      {
        "trial_number": 101,
        "trial_index": 628,
        "rt": 1662,
        "correct": true,
        "response": "ArrowLeft",
        "congruent": true,
        "gazeTowards": false,
        "gazeCondition": "away",
        "faceOnLeft": false,
        "impliedDirection": 180,
        "testDirection": 180,
        "avgFps": 59,
        "minFps": 30,
        "maxFps": 61,
        "totalFrames": 99,
        "frameRates": 59
      },
      {
        "trial_number": 102,
        "trial_index": 636,
        "rt": null,
        "correct": false,
        "response": null,
        "congruent": false,
        "gazeTowards": false,
        "gazeCondition": "away",
        "faceOnLeft": false,
        "impliedDirection": 180,
        "testDirection": 0,
        "avgFps": 59,
        "minFps": 27,
        "maxFps": 61,
        "totalFrames": 119,
        "frameRates": 59
      },
      {
        "trial_number": 103,
        "trial_index": 641,
        "rt": 1382,
        "correct": true,
        "response": "ArrowLeft",
        "congruent": false,
        "gazeTowards": true,
        "gazeCondition": "towards",
        "faceOnLeft": true,
        "impliedDirection": 0,
        "testDirection": 180,
        "avgFps": 59,
        "minFps": 27,
        "maxFps": 61,
        "totalFrames": 82,
        "frameRates": 59
      },
      {
        "trial_number": 104,
        "trial_index": 646,
        "rt": 1044,
        "correct": true,
        "response": "ArrowRight",
        "congruent": true,
        "gazeTowards": true,
        "gazeCondition": "towards",
        "faceOnLeft": true,
        "impliedDirection": 0,
        "testDirection": 0,
        "avgFps": 59,
        "minFps": 30,
        "maxFps": 61,
        "totalFrames": 62,
        "frameRates": 59
      },
      {
        "trial_number": 105,
        "trial_index": 651,
        "rt": 1716,
        "correct": false,
        "response": "ArrowLeft",
        "congruent": false,
        "gazeTowards": false,
        "gazeCondition": "away",
        "faceOnLeft": false,
        "impliedDirection": 180,
        "testDirection": 0,
        "avgFps": 59,
        "minFps": 30,
        "maxFps": 61,
        "totalFrames": 102,
        "frameRates": 59
      },
      {
        "trial_number": 106,
        "trial_index": 656,
        "rt": 1251,
        "correct": true,
        "response": "ArrowRight",
        "congruent": true,
        "gazeTowards": false,
        "gazeCondition": "away",
        "faceOnLeft": true,
        "impliedDirection": 0,
        "testDirection": 0,
        "avgFps": 59,
        "minFps": 30,
        "maxFps": 61,
        "totalFrames": 74,
        "frameRates": 59
      },
      {
        "trial_number": 107,
        "trial_index": 661,
        "rt": 1116,
        "correct": true,
        "response": "ArrowLeft",
        "congruent": false,
        "gazeTowards": false,
        "gazeCondition": "away",
        "faceOnLeft": true,
        "impliedDirection": 0,
        "testDirection": 180,
        "avgFps": 59,
        "minFps": 29,
        "maxFps": 61,
        "totalFrames": 66,
        "frameRates": 59
      },
      {
        "trial_number": 108,
        "trial_index": 666,
        "rt": 1036,
        "correct": true,
        "response": "ArrowRight",
        "congruent": false,
        "gazeTowards": false,
        "gazeCondition": "away",
        "faceOnLeft": false,
        "impliedDirection": 180,
        "testDirection": 0,
        "avgFps": 59,
        "minFps": 28,
        "maxFps": 61,
        "totalFrames": 61,
        "frameRates": 59
      },
      {
        "trial_number": 109,
        "trial_index": 671,
        "rt": 1153,
        "correct": true,
        "response": "ArrowLeft",
        "congruent": false,
        "gazeTowards": true,
        "gazeCondition": "towards",
        "faceOnLeft": true,
        "impliedDirection": 0,
        "testDirection": 180,
        "avgFps": 59,
        "minFps": 27,
        "maxFps": 61,
        "totalFrames": 68,
        "frameRates": 59
      },
      {
        "trial_number": 110,
        "trial_index": 676,
        "rt": null,
        "correct": false,
        "response": null,
        "congruent": true,
        "gazeTowards": true,
        "gazeCondition": "towards",
        "faceOnLeft": true,
        "impliedDirection": 0,
        "testDirection": 0,
        "avgFps": 60,
        "minFps": 30,
        "maxFps": 61,
        "totalFrames": 120,
        "frameRates": 60
      },
      {
        "trial_number": 111,
        "trial_index": 681,
        "rt": 750,
        "correct": false,
        "response": "ArrowLeft",
        "congruent": true,
        "gazeTowards": true,
        "gazeCondition": "towards",
        "faceOnLeft": true,
        "impliedDirection": 0,
        "testDirection": 0,
        "avgFps": 58,
        "minFps": 27,
        "maxFps": 61,
        "totalFrames": 44,
        "frameRates": 58
      },
      {
        "trial_number": 112,
        "trial_index": 686,
        "rt": 1612,
        "correct": true,
        "response": "ArrowLeft",
        "congruent": false,
        "gazeTowards": true,
        "gazeCondition": "towards",
        "faceOnLeft": true,
        "impliedDirection": 0,
        "testDirection": 180,
        "avgFps": 59,
        "minFps": 29,
        "maxFps": 61,
        "totalFrames": 96,
        "frameRates": 59
      },
      {
        "trial_number": 113,
        "trial_index": 691,
        "rt": 1168,
        "correct": true,
        "response": "ArrowRight",
        "congruent": false,
        "gazeTowards": false,
        "gazeCondition": "away",
        "faceOnLeft": false,
        "impliedDirection": 180,
        "testDirection": 0,
        "avgFps": 60,
        "minFps": 42,
        "maxFps": 61,
        "totalFrames": 69,
        "frameRates": 60
      },
      {
        "trial_number": 114,
        "trial_index": 696,
        "rt": 1148,
        "correct": true,
        "response": "ArrowLeft",
        "congruent": true,
        "gazeTowards": true,
        "gazeCondition": "towards",
        "faceOnLeft": false,
        "impliedDirection": 180,
        "testDirection": 180,
        "avgFps": 59,
        "minFps": 34,
        "maxFps": 61,
        "totalFrames": 68,
        "frameRates": 59
      },
      {
        "trial_number": 115,
        "trial_index": 704,
        "rt": 1138,
        "correct": true,
        "response": "ArrowRight",
        "congruent": true,
        "gazeTowards": false,
        "gazeCondition": "away",
        "faceOnLeft": true,
        "impliedDirection": 0,
        "testDirection": 0,
        "avgFps": 59,
        "minFps": 30,
        "maxFps": 61,
        "totalFrames": 67,
        "frameRates": 59
      },
      {
        "trial_number": 116,
        "trial_index": 709,
        "rt": 1045,
        "correct": false,
        "response": "ArrowLeft",
        "congruent": true,
        "gazeTowards": false,
        "gazeCondition": "away",
        "faceOnLeft": true,
        "impliedDirection": 0,
        "testDirection": 0,
        "avgFps": 59,
        "minFps": 30,
        "maxFps": 61,
        "totalFrames": 62,
        "frameRates": 59
      },
      {
        "trial_number": 117,
        "trial_index": 714,
        "rt": 1325,
        "correct": true,
        "response": "ArrowLeft",
        "congruent": true,
        "gazeTowards": true,
        "gazeCondition": "towards",
        "faceOnLeft": false,
        "impliedDirection": 180,
        "testDirection": 180,
        "avgFps": 60,
        "minFps": 41,
        "maxFps": 61,
        "totalFrames": 79,
        "frameRates": 60
      },
      {
        "trial_number": 118,
        "trial_index": 719,
        "rt": 984,
        "correct": true,
        "response": "ArrowLeft",
        "congruent": false,
        "gazeTowards": false,
        "gazeCondition": "away",
        "faceOnLeft": true,
        "impliedDirection": 0,
        "testDirection": 180,
        "avgFps": 59,
        "minFps": 36,
        "maxFps": 61,
        "totalFrames": 58,
        "frameRates": 59
      },
      {
        "trial_number": 119,
        "trial_index": 724,
        "rt": 1151,
        "correct": false,
        "response": "ArrowLeft",
        "congruent": true,
        "gazeTowards": false,
        "gazeCondition": "away",
        "faceOnLeft": true,
        "impliedDirection": 0,
        "testDirection": 0,
        "avgFps": 60,
        "minFps": 41,
        "maxFps": 61,
        "totalFrames": 68,
        "frameRates": 60
      }
    ],
    "catch": {
      "total": 12,
      "correct": 12,
      "accuracy": 100,
      "meanRT": 883,
      "trials": [
        {
          "trial_number": 0,
          "trial_index": 109,
          "rt": 1138,
          "correct": true,
          "colorTarget": "tree",
          "gazeTowards": false,
          "gazeCondition": "away",
          "faceOnLeft": true
        },
        {
          "trial_number": 1,
          "trial_index": 197,
          "rt": 857,
          "correct": true,
          "colorTarget": "face",
          "gazeTowards": true,
          "gazeCondition": "towards",
          "faceOnLeft": false
        },
        {
          "trial_number": 2,
          "trial_index": 281,
          "rt": 698,
          "correct": true,
          "colorTarget": "tree",
          "gazeTowards": false,
          "gazeCondition": "away",
          "faceOnLeft": false
        },
        {
          "trial_number": 3,
          "trial_index": 399,
          "rt": 1445,
          "correct": true,
          "colorTarget": "face",
          "gazeTowards": true,
          "gazeCondition": "towards",
          "faceOnLeft": false
        },
        {
          "trial_number": 4,
          "trial_index": 402,
          "rt": 752,
          "correct": true,
          "colorTarget": "tree",
          "gazeTowards": true,
          "gazeCondition": "towards",
          "faceOnLeft": false
        },
        {
          "trial_number": 5,
          "trial_index": 436,
          "rt": 661,
          "correct": true,
          "colorTarget": "face",
          "gazeTowards": false,
          "gazeCondition": "away",
          "faceOnLeft": true
        },
        {
          "trial_number": 6,
          "trial_index": 439,
          "rt": 1145,
          "correct": true,
          "colorTarget": "tree",
          "gazeTowards": false,
          "gazeCondition": "away",
          "faceOnLeft": true
        },
        {
          "trial_number": 7,
          "trial_index": 472,
          "rt": 1090,
          "correct": true,
          "colorTarget": "face",
          "gazeTowards": true,
          "gazeCondition": "towards",
          "faceOnLeft": true
        },
        {
          "trial_number": 8,
          "trial_index": 560,
          "rt": 729,
          "correct": true,
          "colorTarget": "tree",
          "gazeTowards": false,
          "gazeCondition": "away",
          "faceOnLeft": true
        },
        {
          "trial_number": 9,
          "trial_index": 589,
          "rt": 627,
          "correct": true,
          "colorTarget": "tree",
          "gazeTowards": false,
          "gazeCondition": "away",
          "faceOnLeft": true
        },
        {
          "trial_number": 10,
          "trial_index": 632,
          "rt": 770,
          "correct": true,
          "colorTarget": "face",
          "gazeTowards": false,
          "gazeCondition": "away",
          "faceOnLeft": false
        },
        {
          "trial_number": 11,
          "trial_index": 700,
          "rt": 682,
          "correct": true,
          "colorTarget": "face",
          "gazeTowards": false,
          "gazeCondition": "away",
          "faceOnLeft": false
        }
      ]
    },
    "practice": {
      "trials": [
        {
          "trial_number": 0,
          "rt": null,
          "correct": false,
          "direction": 0
        },
        {
          "trial_number": 1,
          "rt": 1139,
          "correct": true,
          "direction": 180
        },
        {
          "trial_number": 2,
          "rt": 1612,
          "correct": true,
          "direction": 0
        },
        {
          "trial_number": 3,
          "rt": 1444,
          "correct": true,
          "direction": 180
        },
        {
          "trial_number": 4,
          "rt": 1268,
          "correct": true,
          "direction": 0
        },
        {
          "trial_number": 5,
          "rt": 1547,
          "correct": true,
          "direction": 180
        },
        {
          "trial_number": 6,
          "rt": null,
          "correct": false,
          "direction": 0
        },
        {
          "trial_number": 7,
          "rt": 930,
          "correct": true,
          "direction": 180
        },
        {
          "trial_number": 8,
          "rt": 762,
          "correct": true,
          "direction": 0
        },
        {
          "trial_number": 9,
          "rt": 1242,
          "correct": false,
          "direction": 180
        },
        {
          "trial_number": 10,
          "rt": 733,
          "correct": true,
          "direction": 0
        },
        {
          "trial_number": 11,
          "rt": 945,
          "correct": false,
          "direction": 180
        },
        {
          "trial_number": 12,
          "rt": 763,
          "correct": false,
          "direction": 0
        },
        {
          "trial_number": 13,
          "rt": 914,
          "correct": true,
          "direction": 180
        },
        {
          "trial_number": 14,
          "rt": 551,
          "correct": true,
          "direction": 0
        },
        {
          "trial_number": 15,
          "rt": 629,
          "correct": true,
          "direction": 180
        },
        {
          "trial_number": 16,
          "rt": 688,
          "correct": true,
          "direction": 0
        },
        {
          "trial_number": 17,
          "rt": 1057,
          "correct": true,
          "direction": 180
        },
        {
          "trial_number": 18,
          "rt": 1233,
          "correct": true,
          "direction": 0
        },
        {
          "trial_number": 19,
          "rt": 1205,
          "correct": true,
          "direction": 180
        }
      ],
      "meanRT": 1037,
      "accuracy": 75
    }
  }
}