{
  "experiment": "rdk-face-1",
  "UUID": "1a8fdfcf-cbd1-4ba5-91eb-5a41ab7140a6",
  "data": {
    "session": {
      "experiment_version": "1.8.6",
      "treatment": "faces_towards_away_catch",
      "file_version": "1.8.6",
      "totalTrials": 120,
      "totalTrialsIncludingCatch": 132,
      "conditions": {
        "gazeTowardsCount": 60,
        "gazeAwayCount": 60,
        "gazeTowardsAccuracy": 88,
        "gazeAwayAccuracy": 90
      },
      "session_group": "default",
      "browserData": {
        "os": "Windows",
        "browser": "Chrome",
        "screenResolution": "1280x720",
        "browserViewport": "1280x720",
        "devicePixelRatio": 1.5,
        "colorDepth": 32,
        "hardwareConcurrency": 8,
        "deviceMemory": 4,
        "gpuRenderer": "ANGLE (AMD, AMD Radeon(TM) Vega 8 Graphics (0x000015D8) Direct3D11 vs_5_0 ps_5_0, D3D11)",
        "measuredRefreshRateHz": 50
      },
      "attention": {
        "visibilityEvents": []
      },
      "calibration": {
        "monitorWidthCm": 38,
        "viewingDistanceCm": 54,
        "pixelsPerDegree": 50
      },
      "parameters": {
        "coherence": 0.4,
        "apertureDeg": 5,
        "densityDotsPerDeg2": 40,
        "dotDiameterDeg": 0.035,
        "dotSpeedDegPerSec": 3,
        "lifetimeMs": 200,
        "fixationDurationMs": 1500,
        "faceDurationMs": 1500,
        "testDurationMs": 2000,
        "catchResponseMs": 3000
      },
      "prolific": {
        "prolificPid": "5ecfd28bb14b1c05751f178c",
        "studyId": "",
        "sessionId": ""
      },
      "timing": {
        "startTime": "2026-03-06T05:22:12.995Z",
        "endTime": "2026-03-06T05:36:50.436Z",
        "totalElapsedTimeMs": 877441
      }
    },
    "trials": [
      {
        "trial_number": 0,
        "trial_index": 49,
        "rt": 1699,
        "correct": true,
        "response": "ArrowLeft",
        "congruent": true,
        "gazeTowards": true,
        "gazeCondition": "towards",
        "faceOnLeft": false,
        "impliedDirection": 180,
        "testDirection": 180,
        "avgFps": 60,
        "minFps": 58,
        "maxFps": 61,
        "totalFrames": 102,
        "frameRates": 60
      },
      {
        "trial_number": 1,
        "trial_index": 54,
        "rt": 1821,
        "correct": true,
        "response": "ArrowLeft",
        "congruent": false,
        "gazeTowards": true,
        "gazeCondition": "towards",
        "faceOnLeft": true,
        "impliedDirection": 0,
        "testDirection": 180,
        "avgFps": 60,
        "minFps": 59,
        "maxFps": 62,
        "totalFrames": 109,
        "frameRates": 60
      },
      {
        "trial_number": 2,
        "trial_index": 59,
        "rt": 1131,
        "correct": false,
        "response": "ArrowRight",
        "congruent": true,
        "gazeTowards": false,
        "gazeCondition": "away",
        "faceOnLeft": false,
        "impliedDirection": 180,
        "testDirection": 180,
        "avgFps": 60,
        "minFps": 58,
        "maxFps": 62,
        "totalFrames": 67,
        "frameRates": 60
      },
      {
        "trial_number": 3,
        "trial_index": 64,
        "rt": 1426,
        "correct": false,
        "response": "ArrowRight",
        "congruent": true,
        "gazeTowards": false,
        "gazeCondition": "away",
        "faceOnLeft": false,
        "impliedDirection": 180,
        "testDirection": 180,
        "avgFps": 60,
        "minFps": 60,
        "maxFps": 62,
        "totalFrames": 85,
        "frameRates": 60
      },
      {
        "trial_number": 4,
        "trial_index": 69,
        "rt": 1391,
        "correct": true,
        "response": "ArrowLeft",
        "congruent": false,
        "gazeTowards": true,
        "gazeCondition": "towards",
        "faceOnLeft": true,
        "impliedDirection": 0,
        "testDirection": 180,
        "avgFps": 60,
        "minFps": 58,
        "maxFps": 62,
        "totalFrames": 83,
        "frameRates": 60
      },
      {
        "trial_number": 5,
        "trial_index": 74,
        "rt": 1003,
        "correct": true,
        "response": "ArrowRight",
        "congruent": false,
        "gazeTowards": false,
        "gazeCondition": "away",
        "faceOnLeft": false,
        "impliedDirection": 180,
        "testDirection": 0,
        "avgFps": 60,
        "minFps": 58,
        "maxFps": 66,
        "totalFrames": 60,
        "frameRates": 60
      },
      {
        "trial_number": 6,
        "trial_index": 79,
        "rt": 1029,
        "correct": true,
        "response": "ArrowRight",
        "congruent": false,
        "gazeTowards": false,
        "gazeCondition": "away",
        "faceOnLeft": false,
        "impliedDirection": 180,
        "testDirection": 0,
        "avgFps": 60,
        "minFps": 59,
        "maxFps": 62,
        "totalFrames": 61,
        "frameRates": 60
      },
      {
        "trial_number": 7,
        "trial_index": 84,
        "rt": 1050,
        "correct": true,
        "response": "ArrowLeft",
        "congruent": true,
        "gazeTowards": false,
        "gazeCondition": "away",
        "faceOnLeft": false,
        "impliedDirection": 180,
        "testDirection": 180,
        "avgFps": 60,
        "minFps": 58,
        "maxFps": 62,
        "totalFrames": 63,
        "frameRates": 60
      },
      {
        "trial_number": 8,
        "trial_index": 89,
        "rt": 714,
        "correct": false,
        "response": "ArrowRight",
        "congruent": true,
        "gazeTowards": false,
        "gazeCondition": "away",
        "faceOnLeft": false,
        "impliedDirection": 180,
        "testDirection": 180,
        "avgFps": 60,
        "minFps": 58,
        "maxFps": 62,
        "totalFrames": 42,
        "frameRates": 60
      },
      {
        "trial_number": 9,
        "trial_index": 94,
        "rt": 634,
        "correct": false,
        "response": "ArrowRight",
        "congruent": false,
        "gazeTowards": false,
        "gazeCondition": "away",
        "faceOnLeft": true,
        "impliedDirection": 0,
        "testDirection": 180,
        "avgFps": 60,
        "minFps": 58,
        "maxFps": 62,
        "totalFrames": 38,
        "frameRates": 60
      },
      {
        "trial_number": 10,
        "trial_index": 102,
        "rt": 1012,
        "correct": true,
        "response": "ArrowLeft",
        "congruent": false,
        "gazeTowards": true,
        "gazeCondition": "towards",
        "faceOnLeft": true,
        "impliedDirection": 0,
        "testDirection": 180,
        "avgFps": 60,
        "minFps": 59,
        "maxFps": 63,
        "totalFrames": 60,
        "frameRates": 60
      },
      {
        "trial_number": 11,
        "trial_index": 107,
        "rt": 1389,
        "correct": false,
        "response": "ArrowRight",
        "congruent": true,
        "gazeTowards": true,
        "gazeCondition": "towards",
        "faceOnLeft": false,
        "impliedDirection": 180,
        "testDirection": 180,
        "avgFps": 60,
        "minFps": 59,
        "maxFps": 61,
        "totalFrames": 83,
        "frameRates": 60
      },
      {
        "trial_number": 12,
        "trial_index": 112,
        "rt": 1335,
        "correct": false,
        "response": "ArrowRight",
        "congruent": true,
        "gazeTowards": true,
        "gazeCondition": "towards",
        "faceOnLeft": false,
        "impliedDirection": 180,
        "testDirection": 180,
        "avgFps": 60,
        "minFps": 59,
        "maxFps": 62,
        "totalFrames": 80,
        "frameRates": 60
      },
      {
        "trial_number": 13,
        "trial_index": 117,
        "rt": 1031,
        "correct": true,
        "response": "ArrowLeft",
        "congruent": false,
        "gazeTowards": true,
        "gazeCondition": "towards",
        "faceOnLeft": true,
        "impliedDirection": 0,
        "testDirection": 180,
        "avgFps": 60,
        "minFps": 60,
        "maxFps": 61,
        "totalFrames": 61,
        "frameRates": 60
      },
      {
        "trial_number": 14,
        "trial_index": 122,
        "rt": 885,
        "correct": true,
        "response": "ArrowRight",
        "congruent": true,
        "gazeTowards": true,
        "gazeCondition": "towards",
        "faceOnLeft": true,
        "impliedDirection": 0,
        "testDirection": 0,
        "avgFps": 60,
        "minFps": 58,
        "maxFps": 63,
        "totalFrames": 53,
        "frameRates": 60
      },
      {
        "trial_number": 15,
        "trial_index": 127,
        "rt": 1116,
        "correct": true,
        "response": "ArrowLeft",
        "congruent": true,
        "gazeTowards": true,
        "gazeCondition": "towards",
        "faceOnLeft": false,
        "impliedDirection": 180,
        "testDirection": 180,
        "avgFps": 60,
        "minFps": 60,
        "maxFps": 62,
        "totalFrames": 67,
        "frameRates": 60
      },
      {
        "trial_number": 16,
        "trial_index": 132,
        "rt": 1448,
        "correct": true,
        "response": "ArrowLeft",
        "congruent": true,
        "gazeTowards": false,
        "gazeCondition": "away",
        "faceOnLeft": false,
        "impliedDirection": 180,
        "testDirection": 180,
        "avgFps": 60,
        "minFps": 58,
        "maxFps": 62,
        "totalFrames": 86,
        "frameRates": 60
      },
      {
        "trial_number": 17,
        "trial_index": 137,
        "rt": 1176,
        "correct": true,
        "response": "ArrowLeft",
        "congruent": false,
        "gazeTowards": true,
        "gazeCondition": "towards",
        "faceOnLeft": true,
        "impliedDirection": 0,
        "testDirection": 180,
        "avgFps": 60,
        "minFps": 58,
        "maxFps": 62,
        "totalFrames": 71,
        "frameRates": 60
      },
      {
        "trial_number": 18,
        "trial_index": 142,
        "rt": 851,
        "correct": true,
        "response": "ArrowRight",
        "congruent": false,
        "gazeTowards": false,
        "gazeCondition": "away",
        "faceOnLeft": false,
        "impliedDirection": 180,
        "testDirection": 0,
        "avgFps": 60,
        "minFps": 59,
        "maxFps": 62,
        "totalFrames": 51,
        "frameRates": 60
      },
      {
        "trial_number": 19,
        "trial_index": 147,
        "rt": 1279,
        "correct": true,
        "response": "ArrowLeft",
        "congruent": false,
        "gazeTowards": true,
        "gazeCondition": "towards",
        "faceOnLeft": true,
        "impliedDirection": 0,
        "testDirection": 180,
        "avgFps": 60,
        "minFps": 60,
        "maxFps": 63,
        "totalFrames": 77,
        "frameRates": 60
      },
      {
        "trial_number": 20,
        "trial_index": 152,
        "rt": 805,
        "correct": true,
        "response": "ArrowRight",
        "congruent": true,
        "gazeTowards": false,
        "gazeCondition": "away",
        "faceOnLeft": true,
        "impliedDirection": 0,
        "testDirection": 0,
        "avgFps": 60,
        "minFps": 58,
        "maxFps": 67,
        "totalFrames": 48,
        "frameRates": 60
      },
      {
        "trial_number": 21,
        "trial_index": 157,
        "rt": 874,
        "correct": true,
        "response": "ArrowLeft",
        "congruent": true,
        "gazeTowards": true,
        "gazeCondition": "towards",
        "faceOnLeft": false,
        "impliedDirection": 180,
        "testDirection": 180,
        "avgFps": 60,
        "minFps": 60,
        "maxFps": 62,
        "totalFrames": 53,
        "frameRates": 60
      },
      {
        "trial_number": 22,
        "trial_index": 162,
        "rt": 1119,
        "correct": true,
        "response": "ArrowLeft",
        "congruent": false,
        "gazeTowards": true,
        "gazeCondition": "towards",
        "faceOnLeft": true,
        "impliedDirection": 0,
        "testDirection": 180,
        "avgFps": 60,
        "minFps": 59,
        "maxFps": 62,
        "totalFrames": 67,
        "frameRates": 60
      },
      {
        "trial_number": 23,
        "trial_index": 167,
        "rt": 891,
        "correct": true,
        "response": "ArrowRight",
        "congruent": true,
        "gazeTowards": true,
        "gazeCondition": "towards",
        "faceOnLeft": true,
        "impliedDirection": 0,
        "testDirection": 0,
        "avgFps": 59,
        "minFps": 31,
        "maxFps": 61,
        "totalFrames": 53,
        "frameRates": 59
      },
      {
        "trial_number": 24,
        "trial_index": 172,
        "rt": 974,
        "correct": true,
        "response": "ArrowLeft",
        "congruent": false,
        "gazeTowards": true,
        "gazeCondition": "towards",
        "faceOnLeft": true,
        "impliedDirection": 0,
        "testDirection": 180,
        "avgFps": 60,
        "minFps": 58,
        "maxFps": 62,
        "totalFrames": 58,
        "frameRates": 60
      },
      {
        "trial_number": 25,
        "trial_index": 177,
        "rt": 900,
        "correct": true,
        "response": "ArrowRight",
        "congruent": true,
        "gazeTowards": true,
        "gazeCondition": "towards",
        "faceOnLeft": true,
        "impliedDirection": 0,
        "testDirection": 0,
        "avgFps": 59,
        "minFps": 29,
        "maxFps": 64,
        "totalFrames": 53,
        "frameRates": 59
      },
      {
        "trial_number": 26,
        "trial_index": 182,
        "rt": 955,
        "correct": true,
        "response": "ArrowRight",
        "congruent": true,
        "gazeTowards": false,
        "gazeCondition": "away",
        "faceOnLeft": true,
        "impliedDirection": 0,
        "testDirection": 0,
        "avgFps": 60,
        "minFps": 58,
        "maxFps": 62,
        "totalFrames": 57,
        "frameRates": 60
      },
      {
        "trial_number": 27,
        "trial_index": 187,
        "rt": 900,
        "correct": true,
        "response": "ArrowRight",
        "congruent": true,
        "gazeTowards": false,
        "gazeCondition": "away",
        "faceOnLeft": true,
        "impliedDirection": 0,
        "testDirection": 0,
        "avgFps": 60,
        "minFps": 57,
        "maxFps": 63,
        "totalFrames": 54,
        "frameRates": 60
      },
      {
        "trial_number": 28,
        "trial_index": 192,
        "rt": 822,
        "correct": true,
        "response": "ArrowLeft",
        "congruent": true,
        "gazeTowards": false,
        "gazeCondition": "away",
        "faceOnLeft": false,
        "impliedDirection": 180,
        "testDirection": 180,
        "avgFps": 60,
        "minFps": 59,
        "maxFps": 65,
        "totalFrames": 49,
        "frameRates": 60
      },
      {
        "trial_number": 29,
        "trial_index": 197,
        "rt": 1240,
        "correct": false,
        "response": "ArrowRight",
        "congruent": true,
        "gazeTowards": true,
        "gazeCondition": "towards",
        "faceOnLeft": false,
        "impliedDirection": 180,
        "testDirection": 180,
        "avgFps": 60,
        "minFps": 58,
        "maxFps": 62,
        "totalFrames": 75,
        "frameRates": 60
      },
      {
        "trial_number": 30,
        "trial_index": 202,
        "rt": 949,
        "correct": true,
        "response": "ArrowLeft",
        "congruent": false,
        "gazeTowards": true,
        "gazeCondition": "towards",
        "faceOnLeft": true,
        "impliedDirection": 0,
        "testDirection": 180,
        "avgFps": 60,
        "minFps": 58,
        "maxFps": 63,
        "totalFrames": 57,
        "frameRates": 60
      },
      {
        "trial_number": 31,
        "trial_index": 207,
        "rt": 717,
        "correct": true,
        "response": "ArrowRight",
        "congruent": true,
        "gazeTowards": true,
        "gazeCondition": "towards",
        "faceOnLeft": true,
        "impliedDirection": 0,
        "testDirection": 0,
        "avgFps": 60,
        "minFps": 60,
        "maxFps": 62,
        "totalFrames": 43,
        "frameRates": 60
      },
      {
        "trial_number": 32,
        "trial_index": 213,
        "rt": 1016,
        "correct": true,
        "response": "ArrowLeft",
        "congruent": true,
        "gazeTowards": true,
        "gazeCondition": "towards",
        "faceOnLeft": false,
        "impliedDirection": 180,
        "testDirection": 180,
        "avgFps": 60,
        "minFps": 60,
        "maxFps": 61,
        "totalFrames": 61,
        "frameRates": 60
      },
      {
        "trial_number": 33,
        "trial_index": 218,
        "rt": 1083,
        "correct": true,
        "response": "ArrowLeft",
        "congruent": true,
        "gazeTowards": true,
        "gazeCondition": "towards",
        "faceOnLeft": false,
        "impliedDirection": 180,
        "testDirection": 180,
        "avgFps": 60,
        "minFps": 60,
        "maxFps": 63,
        "totalFrames": 65,
        "frameRates": 60
      },
      {
        "trial_number": 34,
        "trial_index": 223,
        "rt": 929,
        "correct": false,
        "response": "ArrowRight",
        "congruent": false,
        "gazeTowards": true,
        "gazeCondition": "towards",
        "faceOnLeft": true,
        "impliedDirection": 0,
        "testDirection": 180,
        "avgFps": 61,
        "minFps": 59,
        "maxFps": 7813,
        "totalFrames": 56,
        "frameRates": 61
      },
      {
        "trial_number": 35,
        "trial_index": 228,
        "rt": 897,
        "correct": true,
        "response": "ArrowRight",
        "congruent": true,
        "gazeTowards": false,
        "gazeCondition": "away",
        "faceOnLeft": true,
        "impliedDirection": 0,
        "testDirection": 0,
        "avgFps": 60,
        "minFps": 60,
        "maxFps": 61,
        "totalFrames": 54,
        "frameRates": 60
      },
      {
        "trial_number": 36,
        "trial_index": 233,
        "rt": 734,
        "correct": true,
        "response": "ArrowRight",
        "congruent": false,
        "gazeTowards": true,
        "gazeCondition": "towards",
        "faceOnLeft": false,
        "impliedDirection": 180,
        "testDirection": 0,
        "avgFps": 60,
        "minFps": 60,
        "maxFps": 60,
        "totalFrames": 44,
        "frameRates": 60
      },
      {
        "trial_number": 37,
        "trial_index": 238,
        "rt": 794,
        "correct": true,
        "response": "ArrowRight",
        "congruent": true,
        "gazeTowards": false,
        "gazeCondition": "away",
        "faceOnLeft": true,
        "impliedDirection": 0,
        "testDirection": 0,
        "avgFps": 60,
        "minFps": 60,
        "maxFps": 61,
        "totalFrames": 48,
        "frameRates": 60
      },
      {
        "trial_number": 38,
        "trial_index": 243,
        "rt": 1035,
        "correct": true,
        "response": "ArrowRight",
        "congruent": false,
        "gazeTowards": true,
        "gazeCondition": "towards",
        "faceOnLeft": false,
        "impliedDirection": 180,
        "testDirection": 0,
        "avgFps": 60,
        "minFps": 59,
        "maxFps": 61,
        "totalFrames": 62,
        "frameRates": 60
      },
      {
        "trial_number": 39,
        "trial_index": 248,
        "rt": 739,
        "correct": true,
        "response": "ArrowRight",
        "congruent": false,
        "gazeTowards": true,
        "gazeCondition": "towards",
        "faceOnLeft": false,
        "impliedDirection": 180,
        "testDirection": 0,
        "avgFps": 60,
        "minFps": 59,
        "maxFps": 61,
        "totalFrames": 44,
        "frameRates": 60
      },
      {
        "trial_number": 40,
        "trial_index": 253,
        "rt": 852,
        "correct": true,
        "response": "ArrowLeft",
        "congruent": true,
        "gazeTowards": false,
        "gazeCondition": "away",
        "faceOnLeft": false,
        "impliedDirection": 180,
        "testDirection": 180,
        "avgFps": 60,
        "minFps": 59,
        "maxFps": 61,
        "totalFrames": 51,
        "frameRates": 60
      },
      {
        "trial_number": 41,
        "trial_index": 258,
        "rt": 1811,
        "correct": true,
        "response": "ArrowLeft",
        "congruent": true,
        "gazeTowards": true,
        "gazeCondition": "towards",
        "faceOnLeft": false,
        "impliedDirection": 180,
        "testDirection": 180,
        "avgFps": 60,
        "minFps": 60,
        "maxFps": 61,
        "totalFrames": 109,
        "frameRates": 60
      },
      {
        "trial_number": 42,
        "trial_index": 263,
        "rt": 691,
        "correct": true,
        "response": "ArrowRight",
        "congruent": true,
        "gazeTowards": true,
        "gazeCondition": "towards",
        "faceOnLeft": true,
        "impliedDirection": 0,
        "testDirection": 0,
        "avgFps": 60,
        "minFps": 60,
        "maxFps": 61,
        "totalFrames": 41,
        "frameRates": 60
      },
      {
        "trial_number": 43,
        "trial_index": 271,
        "rt": 787,
        "correct": true,
        "response": "ArrowRight",
        "congruent": false,
        "gazeTowards": false,
        "gazeCondition": "away",
        "faceOnLeft": false,
        "impliedDirection": 180,
        "testDirection": 0,
        "avgFps": 60,
        "minFps": 60,
        "maxFps": 61,
        "totalFrames": 47,
        "frameRates": 60
      },
      {
        "trial_number": 44,
        "trial_index": 276,
        "rt": 944,
        "correct": true,
        "response": "ArrowLeft",
        "congruent": false,
        "gazeTowards": true,
        "gazeCondition": "towards",
        "faceOnLeft": true,
        "impliedDirection": 0,
        "testDirection": 180,
        "avgFps": 60,
        "minFps": 60,
        "maxFps": 61,
        "totalFrames": 56,
        "frameRates": 60
      },
      {
        "trial_number": 45,
        "trial_index": 281,
        "rt": 1056,
        "correct": true,
        "response": "ArrowLeft",
        "congruent": false,
        "gazeTowards": true,
        "gazeCondition": "towards",
        "faceOnLeft": true,
        "impliedDirection": 0,
        "testDirection": 180,
        "avgFps": 60,
        "minFps": 60,
        "maxFps": 61,
        "totalFrames": 64,
        "frameRates": 60
      },
      {
        "trial_number": 46,
        "trial_index": 286,
        "rt": 861,
        "correct": true,
        "response": "ArrowRight",
        "congruent": false,
        "gazeTowards": true,
        "gazeCondition": "towards",
        "faceOnLeft": false,
        "impliedDirection": 180,
        "testDirection": 0,
        "avgFps": 60,
        "minFps": 58,
        "maxFps": 62,
        "totalFrames": 52,
        "frameRates": 60
      },
      {
        "trial_number": 47,
        "trial_index": 291,
        "rt": 1139,
        "correct": true,
        "response": "ArrowRight",
        "congruent": true,
        "gazeTowards": false,
        "gazeCondition": "away",
        "faceOnLeft": true,
        "impliedDirection": 0,
        "testDirection": 0,
        "avgFps": 60,
        "minFps": 57,
        "maxFps": 63,
        "totalFrames": 68,
        "frameRates": 60
      },
      {
        "trial_number": 48,
        "trial_index": 296,
        "rt": 771,
        "correct": true,
        "response": "ArrowRight",
        "congruent": false,
        "gazeTowards": true,
        "gazeCondition": "towards",
        "faceOnLeft": false,
        "impliedDirection": 180,
        "testDirection": 0,
        "avgFps": 60,
        "minFps": 59,
        "maxFps": 61,
        "totalFrames": 46,
        "frameRates": 60
      },
      {
        "trial_number": 49,
        "trial_index": 301,
        "rt": 953,
        "correct": true,
        "response": "ArrowLeft",
        "congruent": true,
        "gazeTowards": true,
        "gazeCondition": "towards",
        "faceOnLeft": false,
        "impliedDirection": 180,
        "testDirection": 180,
        "avgFps": 60,
        "minFps": 58,
        "maxFps": 61,
        "totalFrames": 57,
        "frameRates": 60
      },
      {
        "trial_number": 50,
        "trial_index": 306,
        "rt": 761,
        "correct": true,
        "response": "ArrowLeft",
        "congruent": false,
        "gazeTowards": false,
        "gazeCondition": "away",
        "faceOnLeft": true,
        "impliedDirection": 0,
        "testDirection": 180,
        "avgFps": 60,
        "minFps": 59,
        "maxFps": 61,
        "totalFrames": 45,
        "frameRates": 60
      },
      {
        "trial_number": 51,
        "trial_index": 311,
        "rt": 867,
        "correct": true,
        "response": "ArrowLeft",
        "congruent": false,
        "gazeTowards": false,
        "gazeCondition": "away",
        "faceOnLeft": true,
        "impliedDirection": 0,
        "testDirection": 180,
        "avgFps": 60,
        "minFps": 60,
        "maxFps": 61,
        "totalFrames": 52,
        "frameRates": 60
      },
      {
        "trial_number": 52,
        "trial_index": 316,
        "rt": 883,
        "correct": true,
        "response": "ArrowRight",
        "congruent": true,
        "gazeTowards": true,
        "gazeCondition": "towards",
        "faceOnLeft": true,
        "impliedDirection": 0,
        "testDirection": 0,
        "avgFps": 60,
        "minFps": 59,
        "maxFps": 61,
        "totalFrames": 53,
        "frameRates": 60
      },
      {
        "trial_number": 53,
        "trial_index": 321,
        "rt": 710,
        "correct": true,
        "response": "ArrowRight",
        "congruent": false,
        "gazeTowards": false,
        "gazeCondition": "away",
        "faceOnLeft": false,
        "impliedDirection": 180,
        "testDirection": 0,
        "avgFps": 60,
        "minFps": 60,
        "maxFps": 61,
        "totalFrames": 43,
        "frameRates": 60
      },
      {
        "trial_number": 54,
        "trial_index": 326,
        "rt": 812,
        "correct": true,
        "response": "ArrowLeft",
        "congruent": false,
        "gazeTowards": false,
        "gazeCondition": "away",
        "faceOnLeft": true,
        "impliedDirection": 0,
        "testDirection": 180,
        "avgFps": 60,
        "minFps": 59,
        "maxFps": 61,
        "totalFrames": 49,
        "frameRates": 60
      },
      {
        "trial_number": 55,
        "trial_index": 331,
        "rt": 1184,
        "correct": true,
        "response": "ArrowLeft",
        "congruent": true,
        "gazeTowards": false,
        "gazeCondition": "away",
        "faceOnLeft": false,
        "impliedDirection": 180,
        "testDirection": 180,
        "avgFps": 60,
        "minFps": 59,
        "maxFps": 65,
        "totalFrames": 71,
        "frameRates": 60
      },
      {
        "trial_number": 56,
        "trial_index": 336,
        "rt": 1089,
        "correct": false,
        "response": "ArrowRight",
        "congruent": false,
        "gazeTowards": true,
        "gazeCondition": "towards",
        "faceOnLeft": true,
        "impliedDirection": 0,
        "testDirection": 180,
        "avgFps": 60,
        "minFps": 59,
        "maxFps": 61,
        "totalFrames": 65,
        "frameRates": 60
      },
      {
        "trial_number": 57,
        "trial_index": 341,
        "rt": 1474,
        "correct": false,
        "response": "ArrowRight",
        "congruent": false,
        "gazeTowards": true,
        "gazeCondition": "towards",
        "faceOnLeft": true,
        "impliedDirection": 0,
        "testDirection": 180,
        "avgFps": 60,
        "minFps": 60,
        "maxFps": 61,
        "totalFrames": 88,
        "frameRates": 60
      },
      {
        "trial_number": 58,
        "trial_index": 346,
        "rt": 847,
        "correct": true,
        "response": "ArrowRight",
        "congruent": false,
        "gazeTowards": false,
        "gazeCondition": "away",
        "faceOnLeft": false,
        "impliedDirection": 180,
        "testDirection": 0,
        "avgFps": 60,
        "minFps": 60,
        "maxFps": 61,
        "totalFrames": 51,
        "frameRates": 60
      },
      {
        "trial_number": 59,
        "trial_index": 351,
        "rt": 834,
        "correct": true,
        "response": "ArrowRight",
        "congruent": true,
        "gazeTowards": true,
        "gazeCondition": "towards",
        "faceOnLeft": true,
        "impliedDirection": 0,
        "testDirection": 0,
        "avgFps": 60,
        "minFps": 59,
        "maxFps": 61,
        "totalFrames": 50,
        "frameRates": 60
      },
      {
        "trial_number": 60,
        "trial_index": 356,
        "rt": 965,
        "correct": false,
        "response": "ArrowRight",
        "congruent": true,
        "gazeTowards": true,
        "gazeCondition": "towards",
        "faceOnLeft": false,
        "impliedDirection": 180,
        "testDirection": 180,
        "avgFps": 60,
        "minFps": 60,
        "maxFps": 61,
        "totalFrames": 58,
        "frameRates": 60
      },
      {
        "trial_number": 61,
        "trial_index": 361,
        "rt": 789,
        "correct": true,
        "response": "ArrowRight",
        "congruent": false,
        "gazeTowards": false,
        "gazeCondition": "away",
        "faceOnLeft": false,
        "impliedDirection": 180,
        "testDirection": 0,
        "avgFps": 60,
        "minFps": 60,
        "maxFps": 61,
        "totalFrames": 47,
        "frameRates": 60
      },
      {
        "trial_number": 62,
        "trial_index": 369,
        "rt": 954,
        "correct": true,
        "response": "ArrowRight",
        "congruent": true,
        "gazeTowards": false,
        "gazeCondition": "away",
        "faceOnLeft": true,
        "impliedDirection": 0,
        "testDirection": 0,
        "avgFps": 60,
        "minFps": 60,
        "maxFps": 61,
        "totalFrames": 57,
        "frameRates": 60
      },
      {
        "trial_number": 63,
        "trial_index": 375,
        "rt": 806,
        "correct": true,
        "response": "ArrowRight",
        "congruent": true,
        "gazeTowards": false,
        "gazeCondition": "away",
        "faceOnLeft": true,
        "impliedDirection": 0,
        "testDirection": 0,
        "avgFps": 60,
        "minFps": 58,
        "maxFps": 61,
        "totalFrames": 48,
        "frameRates": 60
      },
      {
        "trial_number": 64,
        "trial_index": 380,
        "rt": 876,
        "correct": true,
        "response": "ArrowLeft",
        "congruent": false,
        "gazeTowards": false,
        "gazeCondition": "away",
        "faceOnLeft": true,
        "impliedDirection": 0,
        "testDirection": 180,
        "avgFps": 60,
        "minFps": 57,
        "maxFps": 63,
        "totalFrames": 53,
        "frameRates": 60
      },
      {
        "trial_number": 65,
        "trial_index": 385,
        "rt": 914,
        "correct": true,
        "response": "ArrowRight",
        "congruent": true,
        "gazeTowards": false,
        "gazeCondition": "away",
        "faceOnLeft": true,
        "impliedDirection": 0,
        "testDirection": 0,
        "avgFps": 60,
        "minFps": 58,
        "maxFps": 62,
        "totalFrames": 54,
        "frameRates": 60
      },
      {
        "trial_number": 66,
        "trial_index": 393,
        "rt": 1155,
        "correct": true,
        "response": "ArrowLeft",
        "congruent": true,
        "gazeTowards": true,
        "gazeCondition": "towards",
        "faceOnLeft": false,
        "impliedDirection": 180,
        "testDirection": 180,
        "avgFps": 59,
        "minFps": 29,
        "maxFps": 66,
        "totalFrames": 69,
        "frameRates": 59
      },
      {
        "trial_number": 67,
        "trial_index": 398,
        "rt": 718,
        "correct": true,
        "response": "ArrowRight",
        "congruent": false,
        "gazeTowards": false,
        "gazeCondition": "away",
        "faceOnLeft": false,
        "impliedDirection": 180,
        "testDirection": 0,
        "avgFps": 60,
        "minFps": 58,
        "maxFps": 62,
        "totalFrames": 43,
        "frameRates": 60
      },
      {
        "trial_number": 68,
        "trial_index": 403,
        "rt": 863,
        "correct": true,
        "response": "ArrowRight",
        "congruent": true,
        "gazeTowards": false,
        "gazeCondition": "away",
        "faceOnLeft": true,
        "impliedDirection": 0,
        "testDirection": 0,
        "avgFps": 60,
        "minFps": 57,
        "maxFps": 63,
        "totalFrames": 52,
        "frameRates": 60
      },
      {
        "trial_number": 69,
        "trial_index": 408,
        "rt": 781,
        "correct": true,
        "response": "ArrowLeft",
        "congruent": false,
        "gazeTowards": false,
        "gazeCondition": "away",
        "faceOnLeft": true,
        "impliedDirection": 0,
        "testDirection": 180,
        "avgFps": 60,
        "minFps": 57,
        "maxFps": 62,
        "totalFrames": 47,
        "frameRates": 60
      },
      {
        "trial_number": 70,
        "trial_index": 416,
        "rt": 891,
        "correct": true,
        "response": "ArrowLeft",
        "congruent": false,
        "gazeTowards": true,
        "gazeCondition": "towards",
        "faceOnLeft": true,
        "impliedDirection": 0,
        "testDirection": 180,
        "avgFps": 60,
        "minFps": 58,
        "maxFps": 63,
        "totalFrames": 53,
        "frameRates": 60
      },
      {
        "trial_number": 71,
        "trial_index": 421,
        "rt": 730,
        "correct": true,
        "response": "ArrowRight",
        "congruent": false,
        "gazeTowards": false,
        "gazeCondition": "away",
        "faceOnLeft": false,
        "impliedDirection": 180,
        "testDirection": 0,
        "avgFps": 60,
        "minFps": 60,
        "maxFps": 62,
        "totalFrames": 44,
        "frameRates": 60
      },
      {
        "trial_number": 72,
        "trial_index": 426,
        "rt": 818,
        "correct": true,
        "response": "ArrowLeft",
        "congruent": true,
        "gazeTowards": true,
        "gazeCondition": "towards",
        "faceOnLeft": false,
        "impliedDirection": 180,
        "testDirection": 180,
        "avgFps": 60,
        "minFps": 58,
        "maxFps": 62,
        "totalFrames": 49,
        "frameRates": 60
      },
      {
        "trial_number": 73,
        "trial_index": 431,
        "rt": 899,
        "correct": true,
        "response": "ArrowLeft",
        "congruent": false,
        "gazeTowards": false,
        "gazeCondition": "away",
        "faceOnLeft": true,
        "impliedDirection": 0,
        "testDirection": 180,
        "avgFps": 60,
        "minFps": 60,
        "maxFps": 62,
        "totalFrames": 53,
        "frameRates": 60
      },
      {
        "trial_number": 74,
        "trial_index": 436,
        "rt": 1074,
        "correct": true,
        "response": "ArrowLeft",
        "congruent": false,
        "gazeTowards": true,
        "gazeCondition": "towards",
        "faceOnLeft": true,
        "impliedDirection": 0,
        "testDirection": 180,
        "avgFps": 60,
        "minFps": 58,
        "maxFps": 63,
        "totalFrames": 65,
        "frameRates": 60
      },
      {
        "trial_number": 75,
        "trial_index": 441,
        "rt": 879,
        "correct": true,
        "response": "ArrowLeft",
        "congruent": false,
        "gazeTowards": false,
        "gazeCondition": "away",
        "faceOnLeft": true,
        "impliedDirection": 0,
        "testDirection": 180,
        "avgFps": 60,
        "minFps": 58,
        "maxFps": 62,
        "totalFrames": 53,
        "frameRates": 60
      },
      {
        "trial_number": 76,
        "trial_index": 446,
        "rt": 781,
        "correct": true,
        "response": "ArrowRight",
        "congruent": true,
        "gazeTowards": false,
        "gazeCondition": "away",
        "faceOnLeft": true,
        "impliedDirection": 0,
        "testDirection": 0,
        "avgFps": 60,
        "minFps": 60,
        "maxFps": 62,
        "totalFrames": 47,
        "frameRates": 60
      },
      {
        "trial_number": 77,
        "trial_index": 451,
        "rt": 772,
        "correct": true,
        "response": "ArrowRight",
        "congruent": false,
        "gazeTowards": false,
        "gazeCondition": "away",
        "faceOnLeft": false,
        "impliedDirection": 180,
        "testDirection": 0,
        "avgFps": 60,
        "minFps": 58,
        "maxFps": 63,
        "totalFrames": 46,
        "frameRates": 60
      },
      {
        "trial_number": 78,
        "trial_index": 456,
        "rt": 589,
        "correct": true,
        "response": "ArrowLeft",
        "congruent": false,
        "gazeTowards": true,
        "gazeCondition": "towards",
        "faceOnLeft": true,
        "impliedDirection": 0,
        "testDirection": 180,
        "avgFps": 60,
        "minFps": 59,
        "maxFps": 62,
        "totalFrames": 35,
        "frameRates": 60
      },
      {
        "trial_number": 79,
        "trial_index": 461,
        "rt": 1426,
        "correct": true,
        "response": "ArrowLeft",
        "congruent": true,
        "gazeTowards": false,
        "gazeCondition": "away",
        "faceOnLeft": false,
        "impliedDirection": 180,
        "testDirection": 180,
        "avgFps": 60,
        "minFps": 58,
        "maxFps": 62,
        "totalFrames": 85,
        "frameRates": 60
      },
      {
        "trial_number": 80,
        "trial_index": 466,
        "rt": 1170,
        "correct": true,
        "response": "ArrowLeft",
        "congruent": false,
        "gazeTowards": false,
        "gazeCondition": "away",
        "faceOnLeft": true,
        "impliedDirection": 0,
        "testDirection": 180,
        "avgFps": 60,
        "minFps": 57,
        "maxFps": 62,
        "totalFrames": 70,
        "frameRates": 60
      },
      {
        "trial_number": 81,
        "trial_index": 471,
        "rt": 778,
        "correct": true,
        "response": "ArrowRight",
        "congruent": false,
        "gazeTowards": true,
        "gazeCondition": "towards",
        "faceOnLeft": false,
        "impliedDirection": 180,
        "testDirection": 0,
        "avgFps": 60,
        "minFps": 60,
        "maxFps": 61,
        "totalFrames": 46,
        "frameRates": 60
      },
      {
        "trial_number": 82,
        "trial_index": 476,
        "rt": 803,
        "correct": true,
        "response": "ArrowLeft",
        "congruent": true,
        "gazeTowards": true,
        "gazeCondition": "towards",
        "faceOnLeft": false,
        "impliedDirection": 180,
        "testDirection": 180,
        "avgFps": 60,
        "minFps": 58,
        "maxFps": 62,
        "totalFrames": 48,
        "frameRates": 60
      },
      {
        "trial_number": 83,
        "trial_index": 481,
        "rt": 784,
        "correct": true,
        "response": "ArrowRight",
        "congruent": true,
        "gazeTowards": false,
        "gazeCondition": "away",
        "faceOnLeft": true,
        "impliedDirection": 0,
        "testDirection": 0,
        "avgFps": 60,
        "minFps": 59,
        "maxFps": 61,
        "totalFrames": 47,
        "frameRates": 60
      },
      {
        "trial_number": 84,
        "trial_index": 486,
        "rt": 891,
        "correct": true,
        "response": "ArrowLeft",
        "congruent": true,
        "gazeTowards": true,
        "gazeCondition": "towards",
        "faceOnLeft": false,
        "impliedDirection": 180,
        "testDirection": 180,
        "avgFps": 60,
        "minFps": 60,
        "maxFps": 62,
        "totalFrames": 53,
        "frameRates": 60
      },
      {
        "trial_number": 85,
        "trial_index": 491,
        "rt": 792,
        "correct": true,
        "response": "ArrowRight",
        "congruent": false,
        "gazeTowards": false,
        "gazeCondition": "away",
        "faceOnLeft": false,
        "impliedDirection": 180,
        "testDirection": 0,
        "avgFps": 60,
        "minFps": 60,
        "maxFps": 62,
        "totalFrames": 48,
        "frameRates": 60
      },
      {
        "trial_number": 86,
        "trial_index": 496,
        "rt": 944,
        "correct": true,
        "response": "ArrowLeft",
        "congruent": true,
        "gazeTowards": false,
        "gazeCondition": "away",
        "faceOnLeft": false,
        "impliedDirection": 180,
        "testDirection": 180,
        "avgFps": 60,
        "minFps": 60,
        "maxFps": 62,
        "totalFrames": 56,
        "frameRates": 60
      },
      {
        "trial_number": 87,
        "trial_index": 501,
        "rt": 1357,
        "correct": true,
        "response": "ArrowRight",
        "congruent": true,
        "gazeTowards": true,
        "gazeCondition": "towards",
        "faceOnLeft": true,
        "impliedDirection": 0,
        "testDirection": 0,
        "avgFps": 60,
        "minFps": 58,
        "maxFps": 62,
        "totalFrames": 81,
        "frameRates": 60
      },
      {
        "trial_number": 88,
        "trial_index": 506,
        "rt": 1021,
        "correct": true,
        "response": "ArrowRight",
        "congruent": false,
        "gazeTowards": true,
        "gazeCondition": "towards",
        "faceOnLeft": false,
        "impliedDirection": 180,
        "testDirection": 0,
        "avgFps": 60,
        "minFps": 58,
        "maxFps": 62,
        "totalFrames": 61,
        "frameRates": 60
      },
      {
        "trial_number": 89,
        "trial_index": 511,
        "rt": 1090,
        "correct": true,
        "response": "ArrowRight",
        "congruent": false,
        "gazeTowards": false,
        "gazeCondition": "away",
        "faceOnLeft": false,
        "impliedDirection": 180,
        "testDirection": 0,
        "avgFps": 60,
        "minFps": 58,
        "maxFps": 63,
        "totalFrames": 65,
        "frameRates": 60
      },
      {
        "trial_number": 90,
        "trial_index": 519,
        "rt": 916,
        "correct": true,
        "response": "ArrowLeft",
        "congruent": true,
        "gazeTowards": false,
        "gazeCondition": "away",
        "faceOnLeft": false,
        "impliedDirection": 180,
        "testDirection": 180,
        "avgFps": 60,
        "minFps": 60,
        "maxFps": 62,
        "totalFrames": 55,
        "frameRates": 60
      },
      {
        "trial_number": 91,
        "trial_index": 534,
        "rt": 1026,
        "correct": true,
        "response": "ArrowRight",
        "congruent": false,
        "gazeTowards": false,
        "gazeCondition": "away",
        "faceOnLeft": false,
        "impliedDirection": 180,
        "testDirection": 0,
        "avgFps": 60,
        "minFps": 58,
        "maxFps": 62,
        "totalFrames": 61,
        "frameRates": 60
      },
      {
        "trial_number": 92,
        "trial_index": 539,
        "rt": 939,
        "correct": true,
        "response": "ArrowRight",
        "congruent": true,
        "gazeTowards": true,
        "gazeCondition": "towards",
        "faceOnLeft": true,
        "impliedDirection": 0,
        "testDirection": 0,
        "avgFps": 60,
        "minFps": 58,
        "maxFps": 61,
        "totalFrames": 56,
        "frameRates": 60
      },
      {
        "trial_number": 93,
        "trial_index": 544,
        "rt": 843,
        "correct": true,
        "response": "ArrowLeft",
        "congruent": false,
        "gazeTowards": false,
        "gazeCondition": "away",
        "faceOnLeft": true,
        "impliedDirection": 0,
        "testDirection": 180,
        "avgFps": 60,
        "minFps": 58,
        "maxFps": 62,
        "totalFrames": 51,
        "frameRates": 60
      },
      {
        "trial_number": 94,
        "trial_index": 549,
        "rt": 872,
        "correct": true,
        "response": "ArrowLeft",
        "congruent": false,
        "gazeTowards": true,
        "gazeCondition": "towards",
        "faceOnLeft": true,
        "impliedDirection": 0,
        "testDirection": 180,
        "avgFps": 60,
        "minFps": 58,
        "maxFps": 62,
        "totalFrames": 52,
        "frameRates": 60
      },
      {
        "trial_number": 95,
        "trial_index": 554,
        "rt": 1023,
        "correct": false,
        "response": "ArrowRight",
        "congruent": false,
        "gazeTowards": false,
        "gazeCondition": "away",
        "faceOnLeft": true,
        "impliedDirection": 0,
        "testDirection": 180,
        "avgFps": 60,
        "minFps": 60,
        "maxFps": 62,
        "totalFrames": 61,
        "frameRates": 60
      },
      {
        "trial_number": 96,
        "trial_index": 559,
        "rt": 919,
        "correct": true,
        "response": "ArrowLeft",
        "congruent": true,
        "gazeTowards": true,
        "gazeCondition": "towards",
        "faceOnLeft": false,
        "impliedDirection": 180,
        "testDirection": 180,
        "avgFps": 59,
        "minFps": 29,
        "maxFps": 64,
        "totalFrames": 55,
        "frameRates": 59
      },
      {
        "trial_number": 97,
        "trial_index": 564,
        "rt": 942,
        "correct": true,
        "response": "ArrowLeft",
        "congruent": true,
        "gazeTowards": false,
        "gazeCondition": "away",
        "faceOnLeft": false,
        "impliedDirection": 180,
        "testDirection": 180,
        "avgFps": 60,
        "minFps": 58,
        "maxFps": 62,
        "totalFrames": 57,
        "frameRates": 60
      },
      {
        "trial_number": 98,
        "trial_index": 569,
        "rt": 856,
        "correct": true,
        "response": "ArrowRight",
        "congruent": true,
        "gazeTowards": false,
        "gazeCondition": "away",
        "faceOnLeft": true,
        "impliedDirection": 0,
        "testDirection": 0,
        "avgFps": 60,
        "minFps": 60,
        "maxFps": 62,
        "totalFrames": 51,
        "frameRates": 60
      },
      {
        "trial_number": 99,
        "trial_index": 574,
        "rt": 893,
        "correct": true,
        "response": "ArrowRight",
        "congruent": true,
        "gazeTowards": true,
        "gazeCondition": "towards",
        "faceOnLeft": true,
        "impliedDirection": 0,
        "testDirection": 0,
        "avgFps": 60,
        "minFps": 58,
        "maxFps": 63,
        "totalFrames": 54,
        "frameRates": 60
      },
      {
        "trial_number": 100,
        "trial_index": 579,
        "rt": 817,
        "correct": true,
        "response": "ArrowRight",
        "congruent": false,
        "gazeTowards": false,
        "gazeCondition": "away",
        "faceOnLeft": false,
        "impliedDirection": 180,
        "testDirection": 0,
        "avgFps": 60,
        "minFps": 59,
        "maxFps": 62,
        "totalFrames": 49,
        "frameRates": 60
      },
      {
        "trial_number": 101,
        "trial_index": 584,
        "rt": 845,
        "correct": true,
        "response": "ArrowLeft",
        "congruent": false,
        "gazeTowards": false,
        "gazeCondition": "away",
        "faceOnLeft": true,
        "impliedDirection": 0,
        "testDirection": 180,
        "avgFps": 60,
        "minFps": 58,
        "maxFps": 62,
        "totalFrames": 51,
        "frameRates": 60
      },
      {
        "trial_number": 102,
        "trial_index": 589,
        "rt": 744,
        "correct": true,
        "response": "ArrowRight",
        "congruent": false,
        "gazeTowards": true,
        "gazeCondition": "towards",
        "faceOnLeft": false,
        "impliedDirection": 180,
        "testDirection": 0,
        "avgFps": 60,
        "minFps": 58,
        "maxFps": 62,
        "totalFrames": 44,
        "frameRates": 60
      },
      {
        "trial_number": 103,
        "trial_index": 594,
        "rt": 1521,
        "correct": false,
        "response": "ArrowRight",
        "congruent": false,
        "gazeTowards": false,
        "gazeCondition": "away",
        "faceOnLeft": true,
        "impliedDirection": 0,
        "testDirection": 180,
        "avgFps": 60,
        "minFps": 59,
        "maxFps": 62,
        "totalFrames": 91,
        "frameRates": 60
      },
      {
        "trial_number": 104,
        "trial_index": 599,
        "rt": 892,
        "correct": true,
        "response": "ArrowRight",
        "congruent": false,
        "gazeTowards": true,
        "gazeCondition": "towards",
        "faceOnLeft": false,
        "impliedDirection": 180,
        "testDirection": 0,
        "avgFps": 60,
        "minFps": 59,
        "maxFps": 62,
        "totalFrames": 53,
        "frameRates": 60
      },
      {
        "trial_number": 105,
        "trial_index": 604,
        "rt": 815,
        "correct": true,
        "response": "ArrowLeft",
        "congruent": false,
        "gazeTowards": false,
        "gazeCondition": "away",
        "faceOnLeft": true,
        "impliedDirection": 0,
        "testDirection": 180,
        "avgFps": 60,
        "minFps": 59,
        "maxFps": 63,
        "totalFrames": 49,
        "frameRates": 60
      },
      {
        "trial_number": 106,
        "trial_index": 609,
        "rt": 834,
        "correct": true,
        "response": "ArrowLeft",
        "congruent": true,
        "gazeTowards": true,
        "gazeCondition": "towards",
        "faceOnLeft": false,
        "impliedDirection": 180,
        "testDirection": 180,
        "avgFps": 60,
        "minFps": 59,
        "maxFps": 62,
        "totalFrames": 50,
        "frameRates": 60
      },
      {
        "trial_number": 107,
        "trial_index": 617,
        "rt": 861,
        "correct": true,
        "response": "ArrowRight",
        "congruent": true,
        "gazeTowards": false,
        "gazeCondition": "away",
        "faceOnLeft": true,
        "impliedDirection": 0,
        "testDirection": 0,
        "avgFps": 60,
        "minFps": 58,
        "maxFps": 62,
        "totalFrames": 52,
        "frameRates": 60
      },
      {
        "trial_number": 108,
        "trial_index": 625,
        "rt": 1268,
        "correct": true,
        "response": "ArrowLeft",
        "congruent": true,
        "gazeTowards": true,
        "gazeCondition": "towards",
        "faceOnLeft": false,
        "impliedDirection": 180,
        "testDirection": 180,
        "avgFps": 60,
        "minFps": 58,
        "maxFps": 62,
        "totalFrames": 76,
        "frameRates": 60
      },
      {
        "trial_number": 109,
        "trial_index": 630,
        "rt": 1048,
        "correct": true,
        "response": "ArrowLeft",
        "congruent": false,
        "gazeTowards": true,
        "gazeCondition": "towards",
        "faceOnLeft": true,
        "impliedDirection": 0,
        "testDirection": 180,
        "avgFps": 60,
        "minFps": 55,
        "maxFps": 66,
        "totalFrames": 62,
        "frameRates": 60
      },
      {
        "trial_number": 110,
        "trial_index": 635,
        "rt": 768,
        "correct": true,
        "response": "ArrowRight",
        "congruent": true,
        "gazeTowards": false,
        "gazeCondition": "away",
        "faceOnLeft": true,
        "impliedDirection": 0,
        "testDirection": 0,
        "avgFps": 60,
        "minFps": 58,
        "maxFps": 62,
        "totalFrames": 46,
        "frameRates": 60
      },
      {
        "trial_number": 111,
        "trial_index": 640,
        "rt": 843,
        "correct": true,
        "response": "ArrowRight",
        "congruent": false,
        "gazeTowards": false,
        "gazeCondition": "away",
        "faceOnLeft": false,
        "impliedDirection": 180,
        "testDirection": 0,
        "avgFps": 60,
        "minFps": 60,
        "maxFps": 62,
        "totalFrames": 50,
        "frameRates": 60
      },
      {
        "trial_number": 112,
        "trial_index": 648,
        "rt": 756,
        "correct": true,
        "response": "ArrowRight",
        "congruent": false,
        "gazeTowards": false,
        "gazeCondition": "away",
        "faceOnLeft": false,
        "impliedDirection": 180,
        "testDirection": 0,
        "avgFps": 60,
        "minFps": 60,
        "maxFps": 62,
        "totalFrames": 45,
        "frameRates": 60
      },
      {
        "trial_number": 113,
        "trial_index": 653,
        "rt": 812,
        "correct": true,
        "response": "ArrowRight",
        "congruent": true,
        "gazeTowards": false,
        "gazeCondition": "away",
        "faceOnLeft": true,
        "impliedDirection": 0,
        "testDirection": 0,
        "avgFps": 60,
        "minFps": 58,
        "maxFps": 63,
        "totalFrames": 49,
        "frameRates": 60
      },
      {
        "trial_number": 114,
        "trial_index": 658,
        "rt": 748,
        "correct": true,
        "response": "ArrowRight",
        "congruent": false,
        "gazeTowards": true,
        "gazeCondition": "towards",
        "faceOnLeft": false,
        "impliedDirection": 180,
        "testDirection": 0,
        "avgFps": 60,
        "minFps": 58,
        "maxFps": 62,
        "totalFrames": 45,
        "frameRates": 60
      },
      {
        "trial_number": 115,
        "trial_index": 663,
        "rt": 796,
        "correct": true,
        "response": "ArrowRight",
        "congruent": true,
        "gazeTowards": true,
        "gazeCondition": "towards",
        "faceOnLeft": true,
        "impliedDirection": 0,
        "testDirection": 0,
        "avgFps": 61,
        "minFps": 59,
        "maxFps": null,
        "totalFrames": 48,
        "frameRates": 61
      },
      {
        "trial_number": 116,
        "trial_index": 668,
        "rt": 792,
        "correct": true,
        "response": "ArrowRight",
        "congruent": true,
        "gazeTowards": false,
        "gazeCondition": "away",
        "faceOnLeft": true,
        "impliedDirection": 0,
        "testDirection": 0,
        "avgFps": 60,
        "minFps": 58,
        "maxFps": 61,
        "totalFrames": 47,
        "frameRates": 60
      },
      {
        "trial_number": 117,
        "trial_index": 673,
        "rt": 834,
        "correct": true,
        "response": "ArrowLeft",
        "congruent": true,
        "gazeTowards": true,
        "gazeCondition": "towards",
        "faceOnLeft": false,
        "impliedDirection": 180,
        "testDirection": 180,
        "avgFps": 59,
        "minFps": 30,
        "maxFps": 61,
        "totalFrames": 49,
        "frameRates": 59
      },
      {
        "trial_number": 118,
        "trial_index": 678,
        "rt": 613,
        "correct": true,
        "response": "ArrowRight",
        "congruent": false,
        "gazeTowards": true,
        "gazeCondition": "towards",
        "faceOnLeft": false,
        "impliedDirection": 180,
        "testDirection": 0,
        "avgFps": 60,
        "minFps": 58,
        "maxFps": 63,
        "totalFrames": 36,
        "frameRates": 60
      },
      {
        "trial_number": 119,
        "trial_index": 683,
        "rt": 698,
        "correct": true,
        "response": "ArrowRight",
        "congruent": true,
        "gazeTowards": false,
        "gazeCondition": "away",
        "faceOnLeft": true,
        "impliedDirection": 0,
        "testDirection": 0,
        "avgFps": 60,
        "minFps": 59,
        "maxFps": 63,
        "totalFrames": 42,
        "frameRates": 60
      }
    ],
    "catch": {
      "total": 12,
      "correct": 12,
      "accuracy": 100,
      "meanRT": 874,
      "trials": [
        {
          "trial_number": 0,
          "trial_index": 98,
          "rt": 779,
          "correct": true,
          "colorTarget": "tree",
          "gazeTowards": true,
          "gazeCondition": "towards",
          "faceOnLeft": false
        },
        {
          "trial_number": 1,
          "trial_index": 267,
          "rt": 943,
          "correct": true,
          "colorTarget": "face",
          "gazeTowards": false,
          "gazeCondition": "away",
          "faceOnLeft": false
        },
        {
          "trial_number": 2,
          "trial_index": 365,
          "rt": 1262,
          "correct": true,
          "colorTarget": "face",
          "gazeTowards": false,
          "gazeCondition": "away",
          "faceOnLeft": false
        },
        {
          "trial_number": 3,
          "trial_index": 389,
          "rt": 839,
          "correct": true,
          "colorTarget": "tree",
          "gazeTowards": false,
          "gazeCondition": "away",
          "faceOnLeft": false
        },
        {
          "trial_number": 4,
          "trial_index": 412,
          "rt": 915,
          "correct": true,
          "colorTarget": "face",
          "gazeTowards": false,
          "gazeCondition": "away",
          "faceOnLeft": false
        },
        {
          "trial_number": 5,
          "trial_index": 515,
          "rt": 775,
          "correct": true,
          "colorTarget": "face",
          "gazeTowards": true,
          "gazeCondition": "towards",
          "faceOnLeft": true
        },
        {
          "trial_number": 6,
          "trial_index": 523,
          "rt": 900,
          "correct": true,
          "colorTarget": "face",
          "gazeTowards": true,
          "gazeCondition": "towards",
          "faceOnLeft": false
        },
        {
          "trial_number": 7,
          "trial_index": 526,
          "rt": 711,
          "correct": true,
          "colorTarget": "tree",
          "gazeTowards": false,
          "gazeCondition": "away",
          "faceOnLeft": false
        },
        {
          "trial_number": 8,
          "trial_index": 530,
          "rt": 983,
          "correct": true,
          "colorTarget": "tree",
          "gazeTowards": true,
          "gazeCondition": "towards",
          "faceOnLeft": true
        },
        {
          "trial_number": 9,
          "trial_index": 613,
          "rt": 670,
          "correct": true,
          "colorTarget": "tree",
          "gazeTowards": false,
          "gazeCondition": "away",
          "faceOnLeft": false
        },
        {
          "trial_number": 10,
          "trial_index": 621,
          "rt": 779,
          "correct": true,
          "colorTarget": "face",
          "gazeTowards": true,
          "gazeCondition": "towards",
          "faceOnLeft": true
        },
        {
          "trial_number": 11,
          "trial_index": 644,
          "rt": 933,
          "correct": true,
          "colorTarget": "tree",
          "gazeTowards": true,
          "gazeCondition": "towards",
          "faceOnLeft": true
        }
      ]
    },
    "practice": {
      "trials": [
        {
          "trial_number": 0,
          "rt": 1213,
          "correct": true,
          "direction": 0
        },
        {
          "trial_number": 1,
          "rt": 1906,
          "correct": true,
          "direction": 0
        },
        {
          "trial_number": 2,
          "rt": null,
          "correct": false,
          "direction": 0
        },
        {
          "trial_number": 3,
          "rt": 1080,
          "correct": true,
          "direction": 180
        },
        {
          "trial_number": 4,
          "rt": 775,
          "correct": true,
          "direction": 0
        },
        {
          "trial_number": 5,
          "rt": 959,
          "correct": true,
          "direction": 0
        },
        {
          "trial_number": 6,
          "rt": 1512,
          "correct": false,
          "direction": 0
        },
        {
          "trial_number": 7,
          "rt": 830,
          "correct": true,
          "direction": 0
        },
        {
          "trial_number": 8,
          "rt": 1015,
          "correct": true,
          "direction": 180
        },
        {
          "trial_number": 9,
          "rt": 1029,
          "correct": true,
          "direction": 180
        }
      ],
      "meanRT": 1147,
      "accuracy": 80
    }
  }
}