{
  "experiment": "rdk-face-1",
  "UUID": "6cd90825-0a2d-4f92-b229-b1a7b6c6320a",
  "data": {
    "session": {
      "experiment_version": "1.8.6",
      "treatment": "faces_towards_away_catch",
      "file_version": "1.8.6",
      "totalTrials": 120,
      "totalTrialsIncludingCatch": 132,
      "conditions": {
        "gazeTowardsCount": 60,
        "gazeAwayCount": 60,
        "gazeTowardsAccuracy": 98,
        "gazeAwayAccuracy": 92
      },
      "session_group": "default",
      "browserData": {
        "os": "Windows",
        "browser": "Firefox",
        "screenResolution": "1920x1080",
        "browserViewport": "1920x1080",
        "devicePixelRatio": 1,
        "colorDepth": 24,
        "hardwareConcurrency": 16,
        "deviceMemory": "Unknown",
        "gpuRenderer": "ANGLE (NVIDIA, NVIDIA GeForce GTX 980 Direct3D11 vs_5_0 ps_5_0), or similar",
        "measuredRefreshRateHz": 122
      },
      "attention": {
        "visibilityEvents": [
          {
            "event": "focus",
            "state": "focused",
            "timestamp": 1772776516873
          },
          {
            "event": "blur",
            "state": "blurred",
            "timestamp": 1772776518866
          },
          {
            "event": "visibilitychange",
            "state": "hidden",
            "timestamp": 1772776519589
          },
          {
            "event": "focus",
            "state": "focused",
            "timestamp": 1772776520754
          },
          {
            "event": "visibilitychange",
            "state": "visible",
            "timestamp": 1772776520755
          }
        ]
      },
      "calibration": {
        "monitorWidthCm": 38,
        "viewingDistanceCm": 54,
        "pixelsPerDegree": 50
      },
      "parameters": {
        "coherence": 0.4,
        "apertureDeg": 5,
        "densityDotsPerDeg2": 40,
        "dotDiameterDeg": 0.035,
        "dotSpeedDegPerSec": 3,
        "lifetimeMs": 200,
        "fixationDurationMs": 1500,
        "faceDurationMs": 1500,
        "testDurationMs": 2000,
        "catchResponseMs": 3000
      },
      "prolific": {
        "prolificPid": "5ae145815f327e0001fbade7",
        "studyId": "",
        "sessionId": ""
      },
      "timing": {
        "startTime": "2026-03-06T05:55:16.868Z",
        "endTime": "2026-03-06T06:09:08.516Z",
        "totalElapsedTimeMs": 831648
      }
    },
    "trials": [
      {
        "trial_number": 0,
        "trial_index": 90,
        "rt": 893,
        "correct": true,
        "response": "ArrowLeft",
        "congruent": true,
        "gazeTowards": true,
        "gazeCondition": "towards",
        "faceOnLeft": false,
        "impliedDirection": 180,
        "testDirection": 180,
        "avgFps": 146,
        "minFps": 144,
        "maxFps": 10000,
        "totalFrames": 130,
        "frameRates": 146
      },
      {
        "trial_number": 1,
        "trial_index": 95,
        "rt": 469,
        "correct": true,
        "response": "ArrowRight",
        "congruent": true,
        "gazeTowards": true,
        "gazeCondition": "towards",
        "faceOnLeft": true,
        "impliedDirection": 0,
        "testDirection": 0,
        "avgFps": 147,
        "minFps": 144,
        "maxFps": 2381,
        "totalFrames": 69,
        "frameRates": 147
      },
      {
        "trial_number": 2,
        "trial_index": 100,
        "rt": 537,
        "correct": true,
        "response": "ArrowRight",
        "congruent": false,
        "gazeTowards": false,
        "gazeCondition": "away",
        "faceOnLeft": false,
        "impliedDirection": 180,
        "testDirection": 0,
        "avgFps": 146,
        "minFps": 144,
        "maxFps": 8333,
        "totalFrames": 78,
        "frameRates": 146
      },
      {
        "trial_number": 3,
        "trial_index": 105,
        "rt": 424,
        "correct": true,
        "response": "ArrowRight",
        "congruent": true,
        "gazeTowards": true,
        "gazeCondition": "towards",
        "faceOnLeft": true,
        "impliedDirection": 0,
        "testDirection": 0,
        "avgFps": 147,
        "minFps": 144,
        "maxFps": 3846,
        "totalFrames": 62,
        "frameRates": 147
      },
      {
        "trial_number": 4,
        "trial_index": 113,
        "rt": 528,
        "correct": true,
        "response": "ArrowRight",
        "congruent": true,
        "gazeTowards": false,
        "gazeCondition": "away",
        "faceOnLeft": true,
        "impliedDirection": 0,
        "testDirection": 0,
        "avgFps": 144,
        "minFps": 61,
        "maxFps": 6250,
        "totalFrames": 75,
        "frameRates": 144
      },
      {
        "trial_number": 5,
        "trial_index": 118,
        "rt": 515,
        "correct": true,
        "response": "ArrowRight",
        "congruent": true,
        "gazeTowards": true,
        "gazeCondition": "towards",
        "faceOnLeft": true,
        "impliedDirection": 0,
        "testDirection": 0,
        "avgFps": 146,
        "minFps": 144,
        "maxFps": 8333,
        "totalFrames": 75,
        "frameRates": 146
      },
      {
        "trial_number": 6,
        "trial_index": 123,
        "rt": 392,
        "correct": true,
        "response": "ArrowRight",
        "congruent": true,
        "gazeTowards": false,
        "gazeCondition": "away",
        "faceOnLeft": true,
        "impliedDirection": 0,
        "testDirection": 0,
        "avgFps": 148,
        "minFps": 144,
        "maxFps": 8333,
        "totalFrames": 58,
        "frameRates": 148
      },
      {
        "trial_number": 7,
        "trial_index": 128,
        "rt": 523,
        "correct": true,
        "response": "ArrowRight",
        "congruent": false,
        "gazeTowards": true,
        "gazeCondition": "towards",
        "faceOnLeft": false,
        "impliedDirection": 180,
        "testDirection": 0,
        "avgFps": 146,
        "minFps": 144,
        "maxFps": 10000,
        "totalFrames": 76,
        "frameRates": 146
      },
      {
        "trial_number": 8,
        "trial_index": 136,
        "rt": 473,
        "correct": true,
        "response": "ArrowRight",
        "congruent": false,
        "gazeTowards": true,
        "gazeCondition": "towards",
        "faceOnLeft": false,
        "impliedDirection": 180,
        "testDirection": 0,
        "avgFps": 146,
        "minFps": 144,
        "maxFps": 746,
        "totalFrames": 68,
        "frameRates": 146
      },
      {
        "trial_number": 9,
        "trial_index": 141,
        "rt": 411,
        "correct": true,
        "response": "ArrowRight",
        "congruent": true,
        "gazeTowards": false,
        "gazeCondition": "away",
        "faceOnLeft": true,
        "impliedDirection": 0,
        "testDirection": 0,
        "avgFps": 147,
        "minFps": 144,
        "maxFps": 10000,
        "totalFrames": 60,
        "frameRates": 147
      },
      {
        "trial_number": 10,
        "trial_index": 146,
        "rt": 420,
        "correct": true,
        "response": "ArrowLeft",
        "congruent": false,
        "gazeTowards": false,
        "gazeCondition": "away",
        "faceOnLeft": true,
        "impliedDirection": 0,
        "testDirection": 180,
        "avgFps": 146,
        "minFps": 144,
        "maxFps": 8333,
        "totalFrames": 61,
        "frameRates": 146
      },
      {
        "trial_number": 11,
        "trial_index": 151,
        "rt": 479,
        "correct": true,
        "response": "ArrowLeft",
        "congruent": false,
        "gazeTowards": true,
        "gazeCondition": "towards",
        "faceOnLeft": true,
        "impliedDirection": 0,
        "testDirection": 180,
        "avgFps": 147,
        "minFps": 144,
        "maxFps": 5556,
        "totalFrames": 70,
        "frameRates": 147
      },
      {
        "trial_number": 12,
        "trial_index": 156,
        "rt": 497,
        "correct": true,
        "response": "ArrowLeft",
        "congruent": false,
        "gazeTowards": true,
        "gazeCondition": "towards",
        "faceOnLeft": true,
        "impliedDirection": 0,
        "testDirection": 180,
        "avgFps": 146,
        "minFps": 122,
        "maxFps": 5556,
        "totalFrames": 72,
        "frameRates": 146
      },
      {
        "trial_number": 13,
        "trial_index": 161,
        "rt": 451,
        "correct": true,
        "response": "ArrowRight",
        "congruent": false,
        "gazeTowards": false,
        "gazeCondition": "away",
        "faceOnLeft": false,
        "impliedDirection": 180,
        "testDirection": 0,
        "avgFps": 146,
        "minFps": 144,
        "maxFps": 10000,
        "totalFrames": 66,
        "frameRates": 146
      },
      {
        "trial_number": 14,
        "trial_index": 166,
        "rt": 477,
        "correct": true,
        "response": "ArrowLeft",
        "congruent": false,
        "gazeTowards": true,
        "gazeCondition": "towards",
        "faceOnLeft": true,
        "impliedDirection": 0,
        "testDirection": 180,
        "avgFps": 147,
        "minFps": 144,
        "maxFps": 6250,
        "totalFrames": 70,
        "frameRates": 147
      },
      {
        "trial_number": 15,
        "trial_index": 171,
        "rt": 505,
        "correct": true,
        "response": "ArrowLeft",
        "congruent": false,
        "gazeTowards": true,
        "gazeCondition": "towards",
        "faceOnLeft": true,
        "impliedDirection": 0,
        "testDirection": 180,
        "avgFps": 146,
        "minFps": 119,
        "maxFps": 8333,
        "totalFrames": 73,
        "frameRates": 146
      },
      {
        "trial_number": 16,
        "trial_index": 176,
        "rt": 456,
        "correct": true,
        "response": "ArrowRight",
        "congruent": true,
        "gazeTowards": false,
        "gazeCondition": "away",
        "faceOnLeft": true,
        "impliedDirection": 0,
        "testDirection": 0,
        "avgFps": 147,
        "minFps": 144,
        "maxFps": 8333,
        "totalFrames": 67,
        "frameRates": 147
      },
      {
        "trial_number": 17,
        "trial_index": 181,
        "rt": 416,
        "correct": true,
        "response": "ArrowLeft",
        "congruent": false,
        "gazeTowards": true,
        "gazeCondition": "towards",
        "faceOnLeft": true,
        "impliedDirection": 0,
        "testDirection": 180,
        "avgFps": 146,
        "minFps": 144,
        "maxFps": 8333,
        "totalFrames": 60,
        "frameRates": 146
      },
      {
        "trial_number": 18,
        "trial_index": 186,
        "rt": 359,
        "correct": true,
        "response": "ArrowRight",
        "congruent": false,
        "gazeTowards": true,
        "gazeCondition": "towards",
        "faceOnLeft": false,
        "impliedDirection": 180,
        "testDirection": 0,
        "avgFps": 149,
        "minFps": 144,
        "maxFps": 7143,
        "totalFrames": 53,
        "frameRates": 149
      },
      {
        "trial_number": 19,
        "trial_index": 191,
        "rt": 482,
        "correct": true,
        "response": "ArrowLeft",
        "congruent": true,
        "gazeTowards": true,
        "gazeCondition": "towards",
        "faceOnLeft": false,
        "impliedDirection": 180,
        "testDirection": 180,
        "avgFps": 145,
        "minFps": 144,
        "maxFps": 472,
        "totalFrames": 70,
        "frameRates": 145
      },
      {
        "trial_number": 20,
        "trial_index": 196,
        "rt": 468,
        "correct": true,
        "response": "ArrowLeft",
        "congruent": false,
        "gazeTowards": false,
        "gazeCondition": "away",
        "faceOnLeft": true,
        "impliedDirection": 0,
        "testDirection": 180,
        "avgFps": 147,
        "minFps": 144,
        "maxFps": 10000,
        "totalFrames": 68,
        "frameRates": 147
      },
      {
        "trial_number": 21,
        "trial_index": 201,
        "rt": 416,
        "correct": true,
        "response": "ArrowRight",
        "congruent": false,
        "gazeTowards": true,
        "gazeCondition": "towards",
        "faceOnLeft": false,
        "impliedDirection": 180,
        "testDirection": 0,
        "avgFps": 149,
        "minFps": 144,
        "maxFps": 8333,
        "totalFrames": 61,
        "frameRates": 149
      },
      {
        "trial_number": 22,
        "trial_index": 206,
        "rt": 415,
        "correct": true,
        "response": "ArrowLeft",
        "congruent": true,
        "gazeTowards": true,
        "gazeCondition": "towards",
        "faceOnLeft": false,
        "impliedDirection": 180,
        "testDirection": 180,
        "avgFps": 148,
        "minFps": 144,
        "maxFps": 5000,
        "totalFrames": 61,
        "frameRates": 148
      },
      {
        "trial_number": 23,
        "trial_index": 211,
        "rt": 448,
        "correct": true,
        "response": "ArrowRight",
        "congruent": false,
        "gazeTowards": false,
        "gazeCondition": "away",
        "faceOnLeft": false,
        "impliedDirection": 180,
        "testDirection": 0,
        "avgFps": 148,
        "minFps": 144,
        "maxFps": 2083,
        "totalFrames": 66,
        "frameRates": 148
      },
      {
        "trial_number": 24,
        "trial_index": 216,
        "rt": 681,
        "correct": true,
        "response": "ArrowRight",
        "congruent": false,
        "gazeTowards": false,
        "gazeCondition": "away",
        "faceOnLeft": false,
        "impliedDirection": 180,
        "testDirection": 0,
        "avgFps": 146,
        "minFps": 144,
        "maxFps": 8333,
        "totalFrames": 99,
        "frameRates": 146
      },
      {
        "trial_number": 25,
        "trial_index": 221,
        "rt": 404,
        "correct": true,
        "response": "ArrowLeft",
        "congruent": false,
        "gazeTowards": true,
        "gazeCondition": "towards",
        "faceOnLeft": true,
        "impliedDirection": 0,
        "testDirection": 180,
        "avgFps": 149,
        "minFps": 144,
        "maxFps": 5000,
        "totalFrames": 60,
        "frameRates": 149
      },
      {
        "trial_number": 26,
        "trial_index": 226,
        "rt": 467,
        "correct": true,
        "response": "ArrowRight",
        "congruent": false,
        "gazeTowards": true,
        "gazeCondition": "towards",
        "faceOnLeft": false,
        "impliedDirection": 180,
        "testDirection": 0,
        "avgFps": 147,
        "minFps": 144,
        "maxFps": 10000,
        "totalFrames": 68,
        "frameRates": 147
      },
      {
        "trial_number": 27,
        "trial_index": 231,
        "rt": 391,
        "correct": true,
        "response": "ArrowLeft",
        "congruent": true,
        "gazeTowards": true,
        "gazeCondition": "towards",
        "faceOnLeft": false,
        "impliedDirection": 180,
        "testDirection": 180,
        "avgFps": 147,
        "minFps": 144,
        "maxFps": 8333,
        "totalFrames": 57,
        "frameRates": 147
      },
      {
        "trial_number": 28,
        "trial_index": 236,
        "rt": 651,
        "correct": true,
        "response": "ArrowRight",
        "congruent": true,
        "gazeTowards": true,
        "gazeCondition": "towards",
        "faceOnLeft": true,
        "impliedDirection": 0,
        "testDirection": 0,
        "avgFps": 146,
        "minFps": 144,
        "maxFps": 7143,
        "totalFrames": 94,
        "frameRates": 146
      },
      {
        "trial_number": 29,
        "trial_index": 241,
        "rt": 533,
        "correct": true,
        "response": "ArrowRight",
        "congruent": false,
        "gazeTowards": true,
        "gazeCondition": "towards",
        "faceOnLeft": false,
        "impliedDirection": 180,
        "testDirection": 0,
        "avgFps": 145,
        "minFps": 119,
        "maxFps": 10000,
        "totalFrames": 77,
        "frameRates": 145
      },
      {
        "trial_number": 30,
        "trial_index": 246,
        "rt": 689,
        "correct": true,
        "response": "ArrowRight",
        "congruent": false,
        "gazeTowards": false,
        "gazeCondition": "away",
        "faceOnLeft": false,
        "impliedDirection": 180,
        "testDirection": 0,
        "avgFps": 146,
        "minFps": 144,
        "maxFps": 8333,
        "totalFrames": 100,
        "frameRates": 146
      },
      {
        "trial_number": 31,
        "trial_index": 252,
        "rt": 441,
        "correct": true,
        "response": "ArrowLeft",
        "congruent": false,
        "gazeTowards": true,
        "gazeCondition": "towards",
        "faceOnLeft": true,
        "impliedDirection": 0,
        "testDirection": 180,
        "avgFps": 146,
        "minFps": 144,
        "maxFps": 8333,
        "totalFrames": 64,
        "frameRates": 146
      },
      {
        "trial_number": 32,
        "trial_index": 257,
        "rt": 438,
        "correct": true,
        "response": "ArrowRight",
        "congruent": true,
        "gazeTowards": true,
        "gazeCondition": "towards",
        "faceOnLeft": true,
        "impliedDirection": 0,
        "testDirection": 0,
        "avgFps": 144,
        "minFps": 63,
        "maxFps": 6250,
        "totalFrames": 63,
        "frameRates": 144
      },
      {
        "trial_number": 33,
        "trial_index": 268,
        "rt": 532,
        "correct": true,
        "response": "ArrowRight",
        "congruent": false,
        "gazeTowards": true,
        "gazeCondition": "towards",
        "faceOnLeft": false,
        "impliedDirection": 180,
        "testDirection": 0,
        "avgFps": 145,
        "minFps": 144,
        "maxFps": 685,
        "totalFrames": 77,
        "frameRates": 145
      },
      {
        "trial_number": 34,
        "trial_index": 273,
        "rt": 590,
        "correct": true,
        "response": "ArrowLeft",
        "congruent": true,
        "gazeTowards": true,
        "gazeCondition": "towards",
        "faceOnLeft": false,
        "impliedDirection": 180,
        "testDirection": 180,
        "avgFps": 144,
        "minFps": 65,
        "maxFps": 3333,
        "totalFrames": 84,
        "frameRates": 144
      },
      {
        "trial_number": 35,
        "trial_index": 278,
        "rt": 676,
        "correct": true,
        "response": "ArrowRight",
        "congruent": true,
        "gazeTowards": true,
        "gazeCondition": "towards",
        "faceOnLeft": true,
        "impliedDirection": 0,
        "testDirection": 0,
        "avgFps": 141,
        "minFps": 34,
        "maxFps": 10000,
        "totalFrames": 95,
        "frameRates": 141
      },
      {
        "trial_number": 36,
        "trial_index": 283,
        "rt": 654,
        "correct": true,
        "response": "ArrowLeft",
        "congruent": false,
        "gazeTowards": true,
        "gazeCondition": "towards",
        "faceOnLeft": true,
        "impliedDirection": 0,
        "testDirection": 180,
        "avgFps": 147,
        "minFps": 144,
        "maxFps": 5556,
        "totalFrames": 95,
        "frameRates": 147
      },
      {
        "trial_number": 37,
        "trial_index": 288,
        "rt": 555,
        "correct": true,
        "response": "ArrowRight",
        "congruent": true,
        "gazeTowards": true,
        "gazeCondition": "towards",
        "faceOnLeft": true,
        "impliedDirection": 0,
        "testDirection": 0,
        "avgFps": 138,
        "minFps": 36,
        "maxFps": 10000,
        "totalFrames": 77,
        "frameRates": 138
      },
      {
        "trial_number": 38,
        "trial_index": 293,
        "rt": 553,
        "correct": true,
        "response": "ArrowRight",
        "congruent": false,
        "gazeTowards": true,
        "gazeCondition": "towards",
        "faceOnLeft": false,
        "impliedDirection": 180,
        "testDirection": 0,
        "avgFps": 146,
        "minFps": 144,
        "maxFps": 7143,
        "totalFrames": 80,
        "frameRates": 146
      },
      {
        "trial_number": 39,
        "trial_index": 301,
        "rt": 543,
        "correct": true,
        "response": "ArrowLeft",
        "congruent": true,
        "gazeTowards": false,
        "gazeCondition": "away",
        "faceOnLeft": false,
        "impliedDirection": 180,
        "testDirection": 180,
        "avgFps": 146,
        "minFps": 144,
        "maxFps": 6250,
        "totalFrames": 79,
        "frameRates": 146
      },
      {
        "trial_number": 40,
        "trial_index": 306,
        "rt": 966,
        "correct": true,
        "response": "ArrowLeft",
        "congruent": true,
        "gazeTowards": true,
        "gazeCondition": "towards",
        "faceOnLeft": false,
        "impliedDirection": 180,
        "testDirection": 180,
        "avgFps": 144,
        "minFps": 65,
        "maxFps": 8333,
        "totalFrames": 139,
        "frameRates": 144
      },
      {
        "trial_number": 41,
        "trial_index": 311,
        "rt": 545,
        "correct": true,
        "response": "ArrowRight",
        "congruent": false,
        "gazeTowards": true,
        "gazeCondition": "towards",
        "faceOnLeft": false,
        "impliedDirection": 180,
        "testDirection": 0,
        "avgFps": 145,
        "minFps": 144,
        "maxFps": 649,
        "totalFrames": 79,
        "frameRates": 145
      },
      {
        "trial_number": 42,
        "trial_index": 316,
        "rt": 585,
        "correct": true,
        "response": "ArrowLeft",
        "congruent": false,
        "gazeTowards": false,
        "gazeCondition": "away",
        "faceOnLeft": true,
        "impliedDirection": 0,
        "testDirection": 180,
        "avgFps": 146,
        "minFps": 144,
        "maxFps": 7143,
        "totalFrames": 85,
        "frameRates": 146
      },
      {
        "trial_number": 43,
        "trial_index": 321,
        "rt": 1055,
        "correct": true,
        "response": "ArrowLeft",
        "congruent": false,
        "gazeTowards": false,
        "gazeCondition": "away",
        "faceOnLeft": true,
        "impliedDirection": 0,
        "testDirection": 180,
        "avgFps": 145,
        "minFps": 144,
        "maxFps": 5556,
        "totalFrames": 153,
        "frameRates": 145
      },
      {
        "trial_number": 44,
        "trial_index": 326,
        "rt": 529,
        "correct": true,
        "response": "ArrowRight",
        "congruent": true,
        "gazeTowards": true,
        "gazeCondition": "towards",
        "faceOnLeft": true,
        "impliedDirection": 0,
        "testDirection": 0,
        "avgFps": 146,
        "minFps": 144,
        "maxFps": 6250,
        "totalFrames": 77,
        "frameRates": 146
      },
      {
        "trial_number": 45,
        "trial_index": 331,
        "rt": 620,
        "correct": true,
        "response": "ArrowLeft",
        "congruent": false,
        "gazeTowards": false,
        "gazeCondition": "away",
        "faceOnLeft": true,
        "impliedDirection": 0,
        "testDirection": 180,
        "avgFps": 146,
        "minFps": 144,
        "maxFps": 4545,
        "totalFrames": 90,
        "frameRates": 146
      },
      {
        "trial_number": 46,
        "trial_index": 336,
        "rt": 479,
        "correct": true,
        "response": "ArrowRight",
        "congruent": true,
        "gazeTowards": false,
        "gazeCondition": "away",
        "faceOnLeft": true,
        "impliedDirection": 0,
        "testDirection": 0,
        "avgFps": 146,
        "minFps": 144,
        "maxFps": 10000,
        "totalFrames": 70,
        "frameRates": 146
      },
      {
        "trial_number": 47,
        "trial_index": 341,
        "rt": 570,
        "correct": true,
        "response": "ArrowLeft",
        "congruent": false,
        "gazeTowards": false,
        "gazeCondition": "away",
        "faceOnLeft": true,
        "impliedDirection": 0,
        "testDirection": 180,
        "avgFps": 147,
        "minFps": 144,
        "maxFps": 5556,
        "totalFrames": 83,
        "frameRates": 147
      },
      {
        "trial_number": 48,
        "trial_index": 346,
        "rt": 479,
        "correct": true,
        "response": "ArrowRight",
        "congruent": true,
        "gazeTowards": false,
        "gazeCondition": "away",
        "faceOnLeft": true,
        "impliedDirection": 0,
        "testDirection": 0,
        "avgFps": 147,
        "minFps": 144,
        "maxFps": 8333,
        "totalFrames": 70,
        "frameRates": 147
      },
      {
        "trial_number": 49,
        "trial_index": 351,
        "rt": 533,
        "correct": true,
        "response": "ArrowRight",
        "congruent": false,
        "gazeTowards": false,
        "gazeCondition": "away",
        "faceOnLeft": false,
        "impliedDirection": 180,
        "testDirection": 0,
        "avgFps": 144,
        "minFps": 63,
        "maxFps": 8333,
        "totalFrames": 76,
        "frameRates": 144
      },
      {
        "trial_number": 50,
        "trial_index": 356,
        "rt": 684,
        "correct": true,
        "response": "ArrowLeft",
        "congruent": false,
        "gazeTowards": false,
        "gazeCondition": "away",
        "faceOnLeft": true,
        "impliedDirection": 0,
        "testDirection": 180,
        "avgFps": 145,
        "minFps": 114,
        "maxFps": 7143,
        "totalFrames": 99,
        "frameRates": 145
      },
      {
        "trial_number": 51,
        "trial_index": 361,
        "rt": 507,
        "correct": true,
        "response": "ArrowLeft",
        "congruent": true,
        "gazeTowards": true,
        "gazeCondition": "towards",
        "faceOnLeft": false,
        "impliedDirection": 180,
        "testDirection": 180,
        "avgFps": 146,
        "minFps": 112,
        "maxFps": 6250,
        "totalFrames": 74,
        "frameRates": 146
      },
      {
        "trial_number": 52,
        "trial_index": 369,
        "rt": 759,
        "correct": true,
        "response": "ArrowLeft",
        "congruent": false,
        "gazeTowards": false,
        "gazeCondition": "away",
        "faceOnLeft": true,
        "impliedDirection": 0,
        "testDirection": 180,
        "avgFps": 146,
        "minFps": 144,
        "maxFps": 7143,
        "totalFrames": 110,
        "frameRates": 146
      },
      {
        "trial_number": 53,
        "trial_index": 374,
        "rt": 732,
        "correct": true,
        "response": "ArrowLeft",
        "congruent": true,
        "gazeTowards": false,
        "gazeCondition": "away",
        "faceOnLeft": false,
        "impliedDirection": 180,
        "testDirection": 180,
        "avgFps": 145,
        "minFps": 144,
        "maxFps": 6250,
        "totalFrames": 106,
        "frameRates": 145
      },
      {
        "trial_number": 54,
        "trial_index": 379,
        "rt": 573,
        "correct": true,
        "response": "ArrowRight",
        "congruent": false,
        "gazeTowards": true,
        "gazeCondition": "towards",
        "faceOnLeft": false,
        "impliedDirection": 180,
        "testDirection": 0,
        "avgFps": 147,
        "minFps": 144,
        "maxFps": 2778,
        "totalFrames": 84,
        "frameRates": 147
      },
      {
        "trial_number": 55,
        "trial_index": 384,
        "rt": 830,
        "correct": true,
        "response": "ArrowRight",
        "congruent": true,
        "gazeTowards": true,
        "gazeCondition": "towards",
        "faceOnLeft": true,
        "impliedDirection": 0,
        "testDirection": 0,
        "avgFps": 145,
        "minFps": 144,
        "maxFps": 7143,
        "totalFrames": 120,
        "frameRates": 145
      },
      {
        "trial_number": 56,
        "trial_index": 389,
        "rt": 607,
        "correct": true,
        "response": "ArrowLeft",
        "congruent": true,
        "gazeTowards": false,
        "gazeCondition": "away",
        "faceOnLeft": false,
        "impliedDirection": 180,
        "testDirection": 180,
        "avgFps": 145,
        "minFps": 118,
        "maxFps": 8333,
        "totalFrames": 88,
        "frameRates": 145
      },
      {
        "trial_number": 57,
        "trial_index": 394,
        "rt": 683,
        "correct": true,
        "response": "ArrowLeft",
        "congruent": true,
        "gazeTowards": false,
        "gazeCondition": "away",
        "faceOnLeft": false,
        "impliedDirection": 180,
        "testDirection": 180,
        "avgFps": 145,
        "minFps": 144,
        "maxFps": 694,
        "totalFrames": 99,
        "frameRates": 145
      },
      {
        "trial_number": 58,
        "trial_index": 402,
        "rt": 810,
        "correct": true,
        "response": "ArrowLeft",
        "congruent": false,
        "gazeTowards": false,
        "gazeCondition": "away",
        "faceOnLeft": true,
        "impliedDirection": 0,
        "testDirection": 180,
        "avgFps": 144,
        "minFps": 63,
        "maxFps": 4545,
        "totalFrames": 116,
        "frameRates": 144
      },
      {
        "trial_number": 59,
        "trial_index": 408,
        "rt": 702,
        "correct": true,
        "response": "ArrowRight",
        "congruent": false,
        "gazeTowards": true,
        "gazeCondition": "towards",
        "faceOnLeft": false,
        "impliedDirection": 180,
        "testDirection": 0,
        "avgFps": 145,
        "minFps": 119,
        "maxFps": 8333,
        "totalFrames": 101,
        "frameRates": 145
      },
      {
        "trial_number": 60,
        "trial_index": 413,
        "rt": 944,
        "correct": true,
        "response": "ArrowRight",
        "congruent": false,
        "gazeTowards": false,
        "gazeCondition": "away",
        "faceOnLeft": false,
        "impliedDirection": 180,
        "testDirection": 0,
        "avgFps": 145,
        "minFps": 144,
        "maxFps": 5556,
        "totalFrames": 137,
        "frameRates": 145
      },
      {
        "trial_number": 61,
        "trial_index": 418,
        "rt": 902,
        "correct": true,
        "response": "ArrowRight",
        "congruent": false,
        "gazeTowards": true,
        "gazeCondition": "towards",
        "faceOnLeft": false,
        "impliedDirection": 180,
        "testDirection": 0,
        "avgFps": 146,
        "minFps": 144,
        "maxFps": 6250,
        "totalFrames": 131,
        "frameRates": 146
      },
      {
        "trial_number": 62,
        "trial_index": 423,
        "rt": 708,
        "correct": true,
        "response": "ArrowLeft",
        "congruent": false,
        "gazeTowards": false,
        "gazeCondition": "away",
        "faceOnLeft": true,
        "impliedDirection": 0,
        "testDirection": 180,
        "avgFps": 144,
        "minFps": 64,
        "maxFps": 4545,
        "totalFrames": 101,
        "frameRates": 144
      },
      {
        "trial_number": 63,
        "trial_index": 428,
        "rt": 547,
        "correct": true,
        "response": "ArrowLeft",
        "congruent": false,
        "gazeTowards": true,
        "gazeCondition": "towards",
        "faceOnLeft": true,
        "impliedDirection": 0,
        "testDirection": 180,
        "avgFps": 146,
        "minFps": 144,
        "maxFps": 2000,
        "totalFrames": 79,
        "frameRates": 146
      },
      {
        "trial_number": 64,
        "trial_index": 433,
        "rt": 743,
        "correct": true,
        "response": "ArrowLeft",
        "congruent": true,
        "gazeTowards": true,
        "gazeCondition": "towards",
        "faceOnLeft": false,
        "impliedDirection": 180,
        "testDirection": 180,
        "avgFps": 146,
        "minFps": 144,
        "maxFps": 8333,
        "totalFrames": 108,
        "frameRates": 146
      },
      {
        "trial_number": 65,
        "trial_index": 438,
        "rt": 702,
        "correct": true,
        "response": "ArrowLeft",
        "congruent": true,
        "gazeTowards": false,
        "gazeCondition": "away",
        "faceOnLeft": false,
        "impliedDirection": 180,
        "testDirection": 180,
        "avgFps": 145,
        "minFps": 144,
        "maxFps": 8333,
        "totalFrames": 102,
        "frameRates": 145
      },
      {
        "trial_number": 66,
        "trial_index": 443,
        "rt": 800,
        "correct": true,
        "response": "ArrowLeft",
        "congruent": true,
        "gazeTowards": true,
        "gazeCondition": "towards",
        "faceOnLeft": false,
        "impliedDirection": 180,
        "testDirection": 180,
        "avgFps": 145,
        "minFps": 122,
        "maxFps": 8333,
        "totalFrames": 116,
        "frameRates": 145
      },
      {
        "trial_number": 67,
        "trial_index": 448,
        "rt": 750,
        "correct": true,
        "response": "ArrowLeft",
        "congruent": false,
        "gazeTowards": true,
        "gazeCondition": "towards",
        "faceOnLeft": true,
        "impliedDirection": 0,
        "testDirection": 180,
        "avgFps": 145,
        "minFps": 144,
        "maxFps": 3846,
        "totalFrames": 109,
        "frameRates": 145
      },
      {
        "trial_number": 68,
        "trial_index": 453,
        "rt": 519,
        "correct": true,
        "response": "ArrowLeft",
        "congruent": false,
        "gazeTowards": true,
        "gazeCondition": "towards",
        "faceOnLeft": true,
        "impliedDirection": 0,
        "testDirection": 180,
        "avgFps": 146,
        "minFps": 144,
        "maxFps": 6250,
        "totalFrames": 75,
        "frameRates": 146
      },
      {
        "trial_number": 69,
        "trial_index": 458,
        "rt": 1164,
        "correct": true,
        "response": "ArrowRight",
        "congruent": true,
        "gazeTowards": false,
        "gazeCondition": "away",
        "faceOnLeft": true,
        "impliedDirection": 0,
        "testDirection": 0,
        "avgFps": 145,
        "minFps": 144,
        "maxFps": 1852,
        "totalFrames": 168,
        "frameRates": 145
      },
      {
        "trial_number": 70,
        "trial_index": 463,
        "rt": 779,
        "correct": true,
        "response": "ArrowLeft",
        "congruent": false,
        "gazeTowards": false,
        "gazeCondition": "away",
        "faceOnLeft": true,
        "impliedDirection": 0,
        "testDirection": 180,
        "avgFps": 146,
        "minFps": 144,
        "maxFps": 10000,
        "totalFrames": 113,
        "frameRates": 146
      },
      {
        "trial_number": 71,
        "trial_index": 468,
        "rt": 703,
        "correct": true,
        "response": "ArrowLeft",
        "congruent": true,
        "gazeTowards": true,
        "gazeCondition": "towards",
        "faceOnLeft": false,
        "impliedDirection": 180,
        "testDirection": 180,
        "avgFps": 145,
        "minFps": 144,
        "maxFps": 6250,
        "totalFrames": 102,
        "frameRates": 145
      },
      {
        "trial_number": 72,
        "trial_index": 473,
        "rt": 592,
        "correct": true,
        "response": "ArrowLeft",
        "congruent": true,
        "gazeTowards": true,
        "gazeCondition": "towards",
        "faceOnLeft": false,
        "impliedDirection": 180,
        "testDirection": 180,
        "avgFps": 147,
        "minFps": 144,
        "maxFps": 8333,
        "totalFrames": 86,
        "frameRates": 147
      },
      {
        "trial_number": 73,
        "trial_index": 478,
        "rt": 602,
        "correct": true,
        "response": "ArrowLeft",
        "congruent": false,
        "gazeTowards": true,
        "gazeCondition": "towards",
        "faceOnLeft": true,
        "impliedDirection": 0,
        "testDirection": 180,
        "avgFps": 146,
        "minFps": 144,
        "maxFps": 10000,
        "totalFrames": 87,
        "frameRates": 146
      },
      {
        "trial_number": 74,
        "trial_index": 483,
        "rt": 744,
        "correct": true,
        "response": "ArrowLeft",
        "congruent": false,
        "gazeTowards": false,
        "gazeCondition": "away",
        "faceOnLeft": true,
        "impliedDirection": 0,
        "testDirection": 180,
        "avgFps": 145,
        "minFps": 120,
        "maxFps": 5000,
        "totalFrames": 107,
        "frameRates": 145
      },
      {
        "trial_number": 75,
        "trial_index": 488,
        "rt": 740,
        "correct": true,
        "response": "ArrowLeft",
        "congruent": false,
        "gazeTowards": true,
        "gazeCondition": "towards",
        "faceOnLeft": true,
        "impliedDirection": 0,
        "testDirection": 180,
        "avgFps": 144,
        "minFps": 68,
        "maxFps": 2778,
        "totalFrames": 106,
        "frameRates": 144
      },
      {
        "trial_number": 76,
        "trial_index": 493,
        "rt": 772,
        "correct": true,
        "response": "ArrowRight",
        "congruent": false,
        "gazeTowards": true,
        "gazeCondition": "towards",
        "faceOnLeft": false,
        "impliedDirection": 180,
        "testDirection": 0,
        "avgFps": 144,
        "minFps": 83,
        "maxFps": 7143,
        "totalFrames": 111,
        "frameRates": 144
      },
      {
        "trial_number": 77,
        "trial_index": 498,
        "rt": 577,
        "correct": true,
        "response": "ArrowLeft",
        "congruent": true,
        "gazeTowards": false,
        "gazeCondition": "away",
        "faceOnLeft": false,
        "impliedDirection": 180,
        "testDirection": 180,
        "avgFps": 146,
        "minFps": 144,
        "maxFps": 10000,
        "totalFrames": 84,
        "frameRates": 146
      },
      {
        "trial_number": 78,
        "trial_index": 506,
        "rt": 558,
        "correct": true,
        "response": "ArrowLeft",
        "congruent": false,
        "gazeTowards": true,
        "gazeCondition": "towards",
        "faceOnLeft": true,
        "impliedDirection": 0,
        "testDirection": 180,
        "avgFps": 146,
        "minFps": 144,
        "maxFps": 7143,
        "totalFrames": 81,
        "frameRates": 146
      },
      {
        "trial_number": 79,
        "trial_index": 511,
        "rt": 430,
        "correct": true,
        "response": "ArrowRight",
        "congruent": true,
        "gazeTowards": false,
        "gazeCondition": "away",
        "faceOnLeft": true,
        "impliedDirection": 0,
        "testDirection": 0,
        "avgFps": 147,
        "minFps": 144,
        "maxFps": 1220,
        "totalFrames": 63,
        "frameRates": 147
      },
      {
        "trial_number": 80,
        "trial_index": 516,
        "rt": 505,
        "correct": true,
        "response": "ArrowRight",
        "congruent": true,
        "gazeTowards": false,
        "gazeCondition": "away",
        "faceOnLeft": true,
        "impliedDirection": 0,
        "testDirection": 0,
        "avgFps": 140,
        "minFps": 46,
        "maxFps": 2500,
        "totalFrames": 70,
        "frameRates": 140
      },
      {
        "trial_number": 81,
        "trial_index": 521,
        "rt": 424,
        "correct": true,
        "response": "ArrowRight",
        "congruent": true,
        "gazeTowards": true,
        "gazeCondition": "towards",
        "faceOnLeft": true,
        "impliedDirection": 0,
        "testDirection": 0,
        "avgFps": 148,
        "minFps": 144,
        "maxFps": 5556,
        "totalFrames": 62,
        "frameRates": 148
      },
      {
        "trial_number": 82,
        "trial_index": 526,
        "rt": 499,
        "correct": true,
        "response": "ArrowLeft",
        "congruent": true,
        "gazeTowards": true,
        "gazeCondition": "towards",
        "faceOnLeft": false,
        "impliedDirection": 180,
        "testDirection": 180,
        "avgFps": 147,
        "minFps": 144,
        "maxFps": 5556,
        "totalFrames": 73,
        "frameRates": 147
      },
      {
        "trial_number": 83,
        "trial_index": 531,
        "rt": 918,
        "correct": true,
        "response": "ArrowLeft",
        "congruent": true,
        "gazeTowards": false,
        "gazeCondition": "away",
        "faceOnLeft": false,
        "impliedDirection": 180,
        "testDirection": 180,
        "avgFps": 145,
        "minFps": 144,
        "maxFps": 3571,
        "totalFrames": 133,
        "frameRates": 145
      },
      {
        "trial_number": 84,
        "trial_index": 536,
        "rt": 498,
        "correct": true,
        "response": "ArrowLeft",
        "congruent": true,
        "gazeTowards": false,
        "gazeCondition": "away",
        "faceOnLeft": false,
        "impliedDirection": 180,
        "testDirection": 180,
        "avgFps": 147,
        "minFps": 144,
        "maxFps": 10000,
        "totalFrames": 73,
        "frameRates": 147
      },
      {
        "trial_number": 85,
        "trial_index": 544,
        "rt": 514,
        "correct": true,
        "response": "ArrowRight",
        "congruent": true,
        "gazeTowards": false,
        "gazeCondition": "away",
        "faceOnLeft": true,
        "impliedDirection": 0,
        "testDirection": 0,
        "avgFps": 147,
        "minFps": 144,
        "maxFps": 8333,
        "totalFrames": 75,
        "frameRates": 147
      },
      {
        "trial_number": 86,
        "trial_index": 549,
        "rt": 543,
        "correct": true,
        "response": "ArrowLeft",
        "congruent": true,
        "gazeTowards": true,
        "gazeCondition": "towards",
        "faceOnLeft": false,
        "impliedDirection": 180,
        "testDirection": 180,
        "avgFps": 147,
        "minFps": 144,
        "maxFps": 12500,
        "totalFrames": 79,
        "frameRates": 147
      },
      {
        "trial_number": 87,
        "trial_index": 554,
        "rt": 383,
        "correct": true,
        "response": "ArrowRight",
        "congruent": true,
        "gazeTowards": false,
        "gazeCondition": "away",
        "faceOnLeft": true,
        "impliedDirection": 0,
        "testDirection": 0,
        "avgFps": 147,
        "minFps": 144,
        "maxFps": 8333,
        "totalFrames": 56,
        "frameRates": 147
      },
      {
        "trial_number": 88,
        "trial_index": 562,
        "rt": 469,
        "correct": true,
        "response": "ArrowLeft",
        "congruent": false,
        "gazeTowards": false,
        "gazeCondition": "away",
        "faceOnLeft": true,
        "impliedDirection": 0,
        "testDirection": 180,
        "avgFps": 147,
        "minFps": 144,
        "maxFps": 6250,
        "totalFrames": 68,
        "frameRates": 147
      },
      {
        "trial_number": 89,
        "trial_index": 571,
        "rt": 780,
        "correct": true,
        "response": "ArrowRight",
        "congruent": true,
        "gazeTowards": false,
        "gazeCondition": "away",
        "faceOnLeft": true,
        "impliedDirection": 0,
        "testDirection": 0,
        "avgFps": 145,
        "minFps": 144,
        "maxFps": 8333,
        "totalFrames": 113,
        "frameRates": 145
      },
      {
        "trial_number": 90,
        "trial_index": 576,
        "rt": 515,
        "correct": true,
        "response": "ArrowRight",
        "congruent": true,
        "gazeTowards": false,
        "gazeCondition": "away",
        "faceOnLeft": true,
        "impliedDirection": 0,
        "testDirection": 0,
        "avgFps": 146,
        "minFps": 144,
        "maxFps": 7143,
        "totalFrames": 75,
        "frameRates": 146
      },
      {
        "trial_number": 91,
        "trial_index": 581,
        "rt": 452,
        "correct": true,
        "response": "ArrowRight",
        "congruent": true,
        "gazeTowards": true,
        "gazeCondition": "towards",
        "faceOnLeft": true,
        "impliedDirection": 0,
        "testDirection": 0,
        "avgFps": 147,
        "minFps": 144,
        "maxFps": 8333,
        "totalFrames": 66,
        "frameRates": 147
      },
      {
        "trial_number": 92,
        "trial_index": 586,
        "rt": 521,
        "correct": true,
        "response": "ArrowLeft",
        "congruent": true,
        "gazeTowards": false,
        "gazeCondition": "away",
        "faceOnLeft": false,
        "impliedDirection": 180,
        "testDirection": 180,
        "avgFps": 147,
        "minFps": 144,
        "maxFps": 8333,
        "totalFrames": 76,
        "frameRates": 147
      },
      {
        "trial_number": 93,
        "trial_index": 591,
        "rt": 1090,
        "correct": true,
        "response": "ArrowLeft",
        "congruent": false,
        "gazeTowards": false,
        "gazeCondition": "away",
        "faceOnLeft": true,
        "impliedDirection": 0,
        "testDirection": 180,
        "avgFps": 146,
        "minFps": 144,
        "maxFps": 7143,
        "totalFrames": 158,
        "frameRates": 146
      },
      {
        "trial_number": 94,
        "trial_index": 596,
        "rt": 695,
        "correct": true,
        "response": "ArrowRight",
        "congruent": true,
        "gazeTowards": true,
        "gazeCondition": "towards",
        "faceOnLeft": true,
        "impliedDirection": 0,
        "testDirection": 0,
        "avgFps": 146,
        "minFps": 144,
        "maxFps": 8333,
        "totalFrames": 101,
        "frameRates": 146
      },
      {
        "trial_number": 95,
        "trial_index": 601,
        "rt": 721,
        "correct": true,
        "response": "ArrowRight",
        "congruent": true,
        "gazeTowards": true,
        "gazeCondition": "towards",
        "faceOnLeft": true,
        "impliedDirection": 0,
        "testDirection": 0,
        "avgFps": 146,
        "minFps": 144,
        "maxFps": 8333,
        "totalFrames": 105,
        "frameRates": 146
      },
      {
        "trial_number": 96,
        "trial_index": 606,
        "rt": 1402,
        "correct": true,
        "response": "ArrowLeft",
        "congruent": true,
        "gazeTowards": true,
        "gazeCondition": "towards",
        "faceOnLeft": false,
        "impliedDirection": 180,
        "testDirection": 180,
        "avgFps": 145,
        "minFps": 144,
        "maxFps": 6250,
        "totalFrames": 203,
        "frameRates": 145
      },
      {
        "trial_number": 97,
        "trial_index": 611,
        "rt": 868,
        "correct": true,
        "response": "ArrowLeft",
        "congruent": false,
        "gazeTowards": false,
        "gazeCondition": "away",
        "faceOnLeft": true,
        "impliedDirection": 0,
        "testDirection": 180,
        "avgFps": 145,
        "minFps": 144,
        "maxFps": 3571,
        "totalFrames": 126,
        "frameRates": 145
      },
      {
        "trial_number": 98,
        "trial_index": 616,
        "rt": 482,
        "correct": true,
        "response": "ArrowLeft",
        "congruent": true,
        "gazeTowards": false,
        "gazeCondition": "away",
        "faceOnLeft": false,
        "impliedDirection": 180,
        "testDirection": 180,
        "avgFps": 146,
        "minFps": 144,
        "maxFps": 5000,
        "totalFrames": 70,
        "frameRates": 146
      },
      {
        "trial_number": 99,
        "trial_index": 621,
        "rt": 569,
        "correct": true,
        "response": "ArrowLeft",
        "congruent": true,
        "gazeTowards": false,
        "gazeCondition": "away",
        "faceOnLeft": false,
        "impliedDirection": 180,
        "testDirection": 180,
        "avgFps": 146,
        "minFps": 144,
        "maxFps": 8333,
        "totalFrames": 83,
        "frameRates": 146
      },
      {
        "trial_number": 100,
        "trial_index": 626,
        "rt": 647,
        "correct": true,
        "response": "ArrowLeft",
        "congruent": true,
        "gazeTowards": false,
        "gazeCondition": "away",
        "faceOnLeft": false,
        "impliedDirection": 180,
        "testDirection": 180,
        "avgFps": 146,
        "minFps": 144,
        "maxFps": 3571,
        "totalFrames": 94,
        "frameRates": 146
      },
      {
        "trial_number": 101,
        "trial_index": 631,
        "rt": null,
        "correct": false,
        "response": null,
        "congruent": false,
        "gazeTowards": true,
        "gazeCondition": "towards",
        "faceOnLeft": true,
        "impliedDirection": 0,
        "testDirection": 180,
        "avgFps": 144,
        "minFps": 144,
        "maxFps": 1316,
        "totalFrames": 289,
        "frameRates": 144
      },
      {
        "trial_number": 102,
        "trial_index": 636,
        "rt": 624,
        "correct": true,
        "response": "ArrowLeft",
        "congruent": false,
        "gazeTowards": false,
        "gazeCondition": "away",
        "faceOnLeft": true,
        "impliedDirection": 0,
        "testDirection": 180,
        "avgFps": 146,
        "minFps": 144,
        "maxFps": 6250,
        "totalFrames": 90,
        "frameRates": 146
      },
      {
        "trial_number": 103,
        "trial_index": 641,
        "rt": 953,
        "correct": true,
        "response": "ArrowLeft",
        "congruent": false,
        "gazeTowards": false,
        "gazeCondition": "away",
        "faceOnLeft": true,
        "impliedDirection": 0,
        "testDirection": 180,
        "avgFps": 145,
        "minFps": 144,
        "maxFps": 8333,
        "totalFrames": 138,
        "frameRates": 145
      },
      {
        "trial_number": 104,
        "trial_index": 646,
        "rt": null,
        "correct": false,
        "response": null,
        "congruent": true,
        "gazeTowards": false,
        "gazeCondition": "away",
        "faceOnLeft": true,
        "impliedDirection": 0,
        "testDirection": 0,
        "avgFps": 144,
        "minFps": 114,
        "maxFps": 6250,
        "totalFrames": 289,
        "frameRates": 144
      },
      {
        "trial_number": 105,
        "trial_index": 654,
        "rt": 653,
        "correct": true,
        "response": "ArrowLeft",
        "congruent": true,
        "gazeTowards": false,
        "gazeCondition": "away",
        "faceOnLeft": false,
        "impliedDirection": 180,
        "testDirection": 180,
        "avgFps": 146,
        "minFps": 144,
        "maxFps": 5000,
        "totalFrames": 94,
        "frameRates": 146
      },
      {
        "trial_number": 106,
        "trial_index": 659,
        "rt": 1264,
        "correct": true,
        "response": "ArrowLeft",
        "congruent": true,
        "gazeTowards": false,
        "gazeCondition": "away",
        "faceOnLeft": false,
        "impliedDirection": 180,
        "testDirection": 180,
        "avgFps": 145,
        "minFps": 144,
        "maxFps": 7143,
        "totalFrames": 183,
        "frameRates": 145
      },
      {
        "trial_number": 107,
        "trial_index": 664,
        "rt": 685,
        "correct": true,
        "response": "ArrowLeft",
        "congruent": true,
        "gazeTowards": true,
        "gazeCondition": "towards",
        "faceOnLeft": false,
        "impliedDirection": 180,
        "testDirection": 180,
        "avgFps": 146,
        "minFps": 144,
        "maxFps": 5556,
        "totalFrames": 99,
        "frameRates": 146
      },
      {
        "trial_number": 108,
        "trial_index": 669,
        "rt": 729,
        "correct": true,
        "response": "ArrowLeft",
        "congruent": false,
        "gazeTowards": true,
        "gazeCondition": "towards",
        "faceOnLeft": true,
        "impliedDirection": 0,
        "testDirection": 180,
        "avgFps": 145,
        "minFps": 144,
        "maxFps": 10000,
        "totalFrames": 106,
        "frameRates": 145
      },
      {
        "trial_number": 109,
        "trial_index": 674,
        "rt": 1702,
        "correct": true,
        "response": "ArrowRight",
        "congruent": false,
        "gazeTowards": false,
        "gazeCondition": "away",
        "faceOnLeft": false,
        "impliedDirection": 180,
        "testDirection": 0,
        "avgFps": 145,
        "minFps": 144,
        "maxFps": 4167,
        "totalFrames": 245,
        "frameRates": 145
      },
      {
        "trial_number": 110,
        "trial_index": 679,
        "rt": 696,
        "correct": true,
        "response": "ArrowLeft",
        "congruent": false,
        "gazeTowards": true,
        "gazeCondition": "towards",
        "faceOnLeft": true,
        "impliedDirection": 0,
        "testDirection": 180,
        "avgFps": 145,
        "minFps": 82,
        "maxFps": 8333,
        "totalFrames": 101,
        "frameRates": 145
      },
      {
        "trial_number": 111,
        "trial_index": 684,
        "rt": 909,
        "correct": true,
        "response": "ArrowLeft",
        "congruent": false,
        "gazeTowards": false,
        "gazeCondition": "away",
        "faceOnLeft": true,
        "impliedDirection": 0,
        "testDirection": 180,
        "avgFps": 145,
        "minFps": 144,
        "maxFps": 7143,
        "totalFrames": 131,
        "frameRates": 145
      },
      {
        "trial_number": 112,
        "trial_index": 689,
        "rt": 661,
        "correct": true,
        "response": "ArrowLeft",
        "congruent": true,
        "gazeTowards": true,
        "gazeCondition": "towards",
        "faceOnLeft": false,
        "impliedDirection": 180,
        "testDirection": 180,
        "avgFps": 146,
        "minFps": 144,
        "maxFps": 8333,
        "totalFrames": 96,
        "frameRates": 146
      },
      {
        "trial_number": 113,
        "trial_index": 694,
        "rt": null,
        "correct": false,
        "response": null,
        "congruent": false,
        "gazeTowards": false,
        "gazeCondition": "away",
        "faceOnLeft": false,
        "impliedDirection": 180,
        "testDirection": 0,
        "avgFps": 144,
        "minFps": 101,
        "maxFps": 8333,
        "totalFrames": 289,
        "frameRates": 144
      },
      {
        "trial_number": 114,
        "trial_index": 699,
        "rt": 992,
        "correct": true,
        "response": "ArrowLeft",
        "congruent": false,
        "gazeTowards": false,
        "gazeCondition": "away",
        "faceOnLeft": true,
        "impliedDirection": 0,
        "testDirection": 180,
        "avgFps": 145,
        "minFps": 144,
        "maxFps": 8333,
        "totalFrames": 144,
        "frameRates": 145
      },
      {
        "trial_number": 115,
        "trial_index": 704,
        "rt": 1293,
        "correct": true,
        "response": "ArrowLeft",
        "congruent": false,
        "gazeTowards": false,
        "gazeCondition": "away",
        "faceOnLeft": true,
        "impliedDirection": 0,
        "testDirection": 180,
        "avgFps": 145,
        "minFps": 144,
        "maxFps": 6250,
        "totalFrames": 187,
        "frameRates": 145
      },
      {
        "trial_number": 116,
        "trial_index": 709,
        "rt": 774,
        "correct": true,
        "response": "ArrowRight",
        "congruent": true,
        "gazeTowards": true,
        "gazeCondition": "towards",
        "faceOnLeft": true,
        "impliedDirection": 0,
        "testDirection": 0,
        "avgFps": 145,
        "minFps": 116,
        "maxFps": 4167,
        "totalFrames": 112,
        "frameRates": 145
      },
      {
        "trial_number": 117,
        "trial_index": 714,
        "rt": null,
        "correct": false,
        "response": null,
        "congruent": true,
        "gazeTowards": false,
        "gazeCondition": "away",
        "faceOnLeft": false,
        "impliedDirection": 180,
        "testDirection": 180,
        "avgFps": 145,
        "minFps": 144,
        "maxFps": 8333,
        "totalFrames": 290,
        "frameRates": 145
      },
      {
        "trial_number": 118,
        "trial_index": 719,
        "rt": null,
        "correct": false,
        "response": null,
        "congruent": false,
        "gazeTowards": false,
        "gazeCondition": "away",
        "faceOnLeft": true,
        "impliedDirection": 0,
        "testDirection": 180,
        "avgFps": 144,
        "minFps": 120,
        "maxFps": 8333,
        "totalFrames": 288,
        "frameRates": 144
      },
      {
        "trial_number": 119,
        "trial_index": 724,
        "rt": null,
        "correct": false,
        "response": null,
        "congruent": true,
        "gazeTowards": false,
        "gazeCondition": "away",
        "faceOnLeft": false,
        "impliedDirection": 180,
        "testDirection": 180,
        "avgFps": 144,
        "minFps": 120,
        "maxFps": 7143,
        "totalFrames": 289,
        "frameRates": 144
      }
    ],
    "catch": {
      "total": 12,
      "correct": 11,
      "accuracy": 92,
      "meanRT": 699,
      "trials": [
        {
          "trial_number": 0,
          "trial_index": 109,
          "rt": 781,
          "correct": true,
          "colorTarget": "tree",
          "gazeTowards": true,
          "gazeCondition": "towards",
          "faceOnLeft": false
        },
        {
          "trial_number": 1,
          "trial_index": 132,
          "rt": 705,
          "correct": true,
          "colorTarget": "tree",
          "gazeTowards": true,
          "gazeCondition": "towards",
          "faceOnLeft": true
        },
        {
          "trial_number": 2,
          "trial_index": 261,
          "rt": 725,
          "correct": true,
          "colorTarget": "face",
          "gazeTowards": true,
          "gazeCondition": "towards",
          "faceOnLeft": false
        },
        {
          "trial_number": 3,
          "trial_index": 264,
          "rt": 632,
          "correct": true,
          "colorTarget": "face",
          "gazeTowards": true,
          "gazeCondition": "towards",
          "faceOnLeft": true
        },
        {
          "trial_number": 4,
          "trial_index": 297,
          "rt": 516,
          "correct": true,
          "colorTarget": "tree",
          "gazeTowards": true,
          "gazeCondition": "towards",
          "faceOnLeft": true
        },
        {
          "trial_number": 5,
          "trial_index": 365,
          "rt": 638,
          "correct": true,
          "colorTarget": "face",
          "gazeTowards": false,
          "gazeCondition": "away",
          "faceOnLeft": true
        },
        {
          "trial_number": 6,
          "trial_index": 398,
          "rt": 571,
          "correct": true,
          "colorTarget": "face",
          "gazeTowards": true,
          "gazeCondition": "towards",
          "faceOnLeft": true
        },
        {
          "trial_number": 7,
          "trial_index": 502,
          "rt": null,
          "correct": false,
          "colorTarget": "face",
          "gazeTowards": true,
          "gazeCondition": "towards",
          "faceOnLeft": false
        },
        {
          "trial_number": 8,
          "trial_index": 540,
          "rt": 966,
          "correct": true,
          "colorTarget": "tree",
          "gazeTowards": false,
          "gazeCondition": "away",
          "faceOnLeft": false
        },
        {
          "trial_number": 9,
          "trial_index": 558,
          "rt": 475,
          "correct": true,
          "colorTarget": "tree",
          "gazeTowards": false,
          "gazeCondition": "away",
          "faceOnLeft": true
        },
        {
          "trial_number": 10,
          "trial_index": 567,
          "rt": 529,
          "correct": true,
          "colorTarget": "tree",
          "gazeTowards": false,
          "gazeCondition": "away",
          "faceOnLeft": false
        },
        {
          "trial_number": 11,
          "trial_index": 650,
          "rt": 1155,
          "correct": true,
          "colorTarget": "face",
          "gazeTowards": false,
          "gazeCondition": "away",
          "faceOnLeft": true
        }
      ]
    },
    "practice": {
      "trials": [
        {
          "trial_number": 0,
          "rt": null,
          "correct": false,
          "direction": 0
        },
        {
          "trial_number": 1,
          "rt": 1139,
          "correct": false,
          "direction": 180
        },
        {
          "trial_number": 2,
          "rt": 1102,
          "correct": true,
          "direction": 0
        },
        {
          "trial_number": 3,
          "rt": 1183,
          "correct": false,
          "direction": 0
        },
        {
          "trial_number": 4,
          "rt": 1186,
          "correct": false,
          "direction": 180
        },
        {
          "trial_number": 5,
          "rt": 1071,
          "correct": true,
          "direction": 180
        },
        {
          "trial_number": 6,
          "rt": 887,
          "correct": true,
          "direction": 0
        },
        {
          "trial_number": 7,
          "rt": 1011,
          "correct": true,
          "direction": 0
        },
        {
          "trial_number": 8,
          "rt": 871,
          "correct": true,
          "direction": 180
        },
        {
          "trial_number": 9,
          "rt": 514,
          "correct": true,
          "direction": 0
        },
        {
          "trial_number": 10,
          "rt": 895,
          "correct": true,
          "direction": 0
        },
        {
          "trial_number": 11,
          "rt": 611,
          "correct": true,
          "direction": 180
        },
        {
          "trial_number": 12,
          "rt": 552,
          "correct": true,
          "direction": 0
        },
        {
          "trial_number": 13,
          "rt": 788,
          "correct": true,
          "direction": 0
        },
        {
          "trial_number": 14,
          "rt": 521,
          "correct": true,
          "direction": 180
        },
        {
          "trial_number": 15,
          "rt": 587,
          "correct": true,
          "direction": 180
        },
        {
          "trial_number": 16,
          "rt": 486,
          "correct": true,
          "direction": 0
        },
        {
          "trial_number": 17,
          "rt": 535,
          "correct": true,
          "direction": 0
        },
        {
          "trial_number": 18,
          "rt": 434,
          "correct": true,
          "direction": 180
        },
        {
          "trial_number": 19,
          "rt": 411,
          "correct": true,
          "direction": 0
        }
      ],
      "meanRT": 778,
      "accuracy": 80
    }
  }
}