{
  "experiment": "rdk-face-1",
  "UUID": "9a403ec4-c32f-480f-9654-885411700d2d",
  "data": {
    "session": {
      "experiment_version": "1.3",
      "treatment": "faces",
      "file_version": "1.3",
      "totalTrials": 40,
      "session_group": "default",
      "browserData": {
        "os": "Windows",
        "browser": "Chrome",
        "screenResolution": "1366x768",
        "browserViewport": "1366x625"
      },
      "calibration": {
        "monitorWidthCm": 38,
        "viewingDistanceCm": 54,
        "pixelsPerDegree": 50
      },
      "parameters": {
        "coherence": 0.4,
        "apertureDeg": 5,
        "dotSpeedDegPerSec": 2,
        "lifetimeMs": 200,
        "fixationDurationMs": 1500,
        "faceDurationMs": 1500,
        "testDurationMs": 2000
      },
      "mturk": {
        "assignmentId": "3SB4CE2TJ9TJV82E17SD08UV69DAXB",
        "workerId": "A272A0JGRTBFCR",
        "hitId": "3HUR21WDE7NH463NRB1REAG2OQKYX1"
      }
    },
    "trials": [
      {
        "trial_number": 0,
        "trial_index": 47,
        "rt": 799,
        "correct": true,
        "response": "ArrowLeft",
        "congruent": false,
        "eyesOpen": true,
        "faceOnLeft": true,
        "impliedDirection": 0,
        "testDirection": 180
      },
      {
        "trial_number": 1,
        "trial_index": 52,
        "rt": 762,
        "correct": true,
        "response": "ArrowLeft",
        "congruent": false,
        "eyesOpen": false,
        "faceOnLeft": true,
        "impliedDirection": 0,
        "testDirection": 180
      },
      {
        "trial_number": 2,
        "trial_index": 57,
        "rt": 1048,
        "correct": true,
        "response": "ArrowLeft",
        "congruent": false,
        "eyesOpen": false,
        "faceOnLeft": true,
        "impliedDirection": 0,
        "testDirection": 180
      },
      {
        "trial_number": 3,
        "trial_index": 62,
        "rt": 697,
        "correct": true,
        "response": "ArrowRight",
        "congruent": false,
        "eyesOpen": true,
        "faceOnLeft": false,
        "impliedDirection": 180,
        "testDirection": 0
      },
      {
        "trial_number": 4,
        "trial_index": 67,
        "rt": 751,
        "correct": true,
        "response": "ArrowLeft",
        "congruent": true,
        "eyesOpen": false,
        "faceOnLeft": false,
        "impliedDirection": 180,
        "testDirection": 180
      },
      {
        "trial_number": 5,
        "trial_index": 72,
        "rt": 860,
        "correct": true,
        "response": "ArrowRight",
        "congruent": true,
        "eyesOpen": false,
        "faceOnLeft": true,
        "impliedDirection": 0,
        "testDirection": 0
      },
      {
        "trial_number": 6,
        "trial_index": 77,
        "rt": 711,
        "correct": true,
        "response": "ArrowLeft",
        "congruent": true,
        "eyesOpen": true,
        "faceOnLeft": false,
        "impliedDirection": 180,
        "testDirection": 180
      },
      {
        "trial_number": 7,
        "trial_index": 82,
        "rt": 885,
        "correct": true,
        "response": "ArrowLeft",
        "congruent": true,
        "eyesOpen": false,
        "faceOnLeft": false,
        "impliedDirection": 180,
        "testDirection": 180
      },
      {
        "trial_number": 8,
        "trial_index": 87,
        "rt": 885,
        "correct": true,
        "response": "ArrowLeft",
        "congruent": false,
        "eyesOpen": true,
        "faceOnLeft": true,
        "impliedDirection": 0,
        "testDirection": 180
      },
      {
        "trial_number": 9,
        "trial_index": 92,
        "rt": 748,
        "correct": true,
        "response": "ArrowRight",
        "congruent": true,
        "eyesOpen": false,
        "faceOnLeft": true,
        "impliedDirection": 0,
        "testDirection": 0
      },
      {
        "trial_number": 10,
        "trial_index": 97,
        "rt": 742,
        "correct": true,
        "response": "ArrowLeft",
        "congruent": true,
        "eyesOpen": false,
        "faceOnLeft": false,
        "impliedDirection": 180,
        "testDirection": 180
      },
      {
        "trial_number": 11,
        "trial_index": 102,
        "rt": 690,
        "correct": false,
        "response": "ArrowRight",
        "congruent": false,
        "eyesOpen": true,
        "faceOnLeft": true,
        "impliedDirection": 0,
        "testDirection": 180
      },
      {
        "trial_number": 12,
        "trial_index": 107,
        "rt": 693,
        "correct": true,
        "response": "ArrowLeft",
        "congruent": true,
        "eyesOpen": true,
        "faceOnLeft": false,
        "impliedDirection": 180,
        "testDirection": 180
      },
      {
        "trial_number": 13,
        "trial_index": 112,
        "rt": 779,
        "correct": true,
        "response": "ArrowLeft",
        "congruent": true,
        "eyesOpen": true,
        "faceOnLeft": false,
        "impliedDirection": 180,
        "testDirection": 180
      },
      {
        "trial_number": 14,
        "trial_index": 117,
        "rt": 901,
        "correct": true,
        "response": "ArrowLeft",
        "congruent": false,
        "eyesOpen": false,
        "faceOnLeft": true,
        "impliedDirection": 0,
        "testDirection": 180
      },
      {
        "trial_number": 15,
        "trial_index": 122,
        "rt": 810,
        "correct": true,
        "response": "ArrowRight",
        "congruent": true,
        "eyesOpen": false,
        "faceOnLeft": true,
        "impliedDirection": 0,
        "testDirection": 0
      },
      {
        "trial_number": 16,
        "trial_index": 127,
        "rt": 847,
        "correct": true,
        "response": "ArrowRight",
        "congruent": true,
        "eyesOpen": true,
        "faceOnLeft": true,
        "impliedDirection": 0,
        "testDirection": 0
      },
      {
        "trial_number": 17,
        "trial_index": 132,
        "rt": 1015,
        "correct": true,
        "response": "ArrowRight",
        "congruent": false,
        "eyesOpen": false,
        "faceOnLeft": false,
        "impliedDirection": 180,
        "testDirection": 0
      },
      {
        "trial_number": 18,
        "trial_index": 137,
        "rt": 1654,
        "correct": false,
        "response": "ArrowLeft",
        "congruent": true,
        "eyesOpen": false,
        "faceOnLeft": true,
        "impliedDirection": 0,
        "testDirection": 0
      },
      {
        "trial_number": 19,
        "trial_index": 142,
        "rt": 717,
        "correct": true,
        "response": "ArrowRight",
        "congruent": true,
        "eyesOpen": true,
        "faceOnLeft": true,
        "impliedDirection": 0,
        "testDirection": 0
      },
      {
        "trial_number": 20,
        "trial_index": 147,
        "rt": 636,
        "correct": false,
        "response": "ArrowRight",
        "congruent": false,
        "eyesOpen": false,
        "faceOnLeft": true,
        "impliedDirection": 0,
        "testDirection": 180
      },
      {
        "trial_number": 21,
        "trial_index": 152,
        "rt": 913,
        "correct": true,
        "response": "ArrowLeft",
        "congruent": false,
        "eyesOpen": false,
        "faceOnLeft": true,
        "impliedDirection": 0,
        "testDirection": 180
      },
      {
        "trial_number": 22,
        "trial_index": 157,
        "rt": 808,
        "correct": true,
        "response": "ArrowLeft",
        "congruent": false,
        "eyesOpen": false,
        "faceOnLeft": true,
        "impliedDirection": 0,
        "testDirection": 180
      },
      {
        "trial_number": 23,
        "trial_index": 162,
        "rt": 732,
        "correct": true,
        "response": "ArrowLeft",
        "congruent": true,
        "eyesOpen": false,
        "faceOnLeft": false,
        "impliedDirection": 180,
        "testDirection": 180
      },
      {
        "trial_number": 24,
        "trial_index": 167,
        "rt": 868,
        "correct": true,
        "response": "ArrowRight",
        "congruent": true,
        "eyesOpen": false,
        "faceOnLeft": true,
        "impliedDirection": 0,
        "testDirection": 0
      },
      {
        "trial_number": 25,
        "trial_index": 172,
        "rt": 835,
        "correct": false,
        "response": "ArrowLeft",
        "congruent": true,
        "eyesOpen": true,
        "faceOnLeft": true,
        "impliedDirection": 0,
        "testDirection": 0
      },
      {
        "trial_number": 26,
        "trial_index": 177,
        "rt": 1129,
        "correct": true,
        "response": "ArrowRight",
        "congruent": false,
        "eyesOpen": false,
        "faceOnLeft": false,
        "impliedDirection": 180,
        "testDirection": 0
      },
      {
        "trial_number": 27,
        "trial_index": 182,
        "rt": 925,
        "correct": true,
        "response": "ArrowRight",
        "congruent": true,
        "eyesOpen": true,
        "faceOnLeft": true,
        "impliedDirection": 0,
        "testDirection": 0
      },
      {
        "trial_number": 28,
        "trial_index": 187,
        "rt": 1306,
        "correct": true,
        "response": "ArrowRight",
        "congruent": false,
        "eyesOpen": true,
        "faceOnLeft": false,
        "impliedDirection": 180,
        "testDirection": 0
      },
      {
        "trial_number": 29,
        "trial_index": 192,
        "rt": 1636,
        "correct": false,
        "response": "ArrowLeft",
        "congruent": false,
        "eyesOpen": true,
        "faceOnLeft": false,
        "impliedDirection": 180,
        "testDirection": 0
      },
      {
        "trial_number": 30,
        "trial_index": 197,
        "rt": 724,
        "correct": true,
        "response": "ArrowLeft",
        "congruent": false,
        "eyesOpen": false,
        "faceOnLeft": true,
        "impliedDirection": 0,
        "testDirection": 180
      },
      {
        "trial_number": 31,
        "trial_index": 202,
        "rt": 1129,
        "correct": true,
        "response": "ArrowRight",
        "congruent": true,
        "eyesOpen": true,
        "faceOnLeft": true,
        "impliedDirection": 0,
        "testDirection": 0
      },
      {
        "trial_number": 32,
        "trial_index": 207,
        "rt": 1176,
        "correct": true,
        "response": "ArrowLeft",
        "congruent": true,
        "eyesOpen": true,
        "faceOnLeft": false,
        "impliedDirection": 180,
        "testDirection": 180
      },
      {
        "trial_number": 33,
        "trial_index": 212,
        "rt": 695,
        "correct": true,
        "response": "ArrowLeft",
        "congruent": false,
        "eyesOpen": true,
        "faceOnLeft": true,
        "impliedDirection": 0,
        "testDirection": 180
      },
      {
        "trial_number": 34,
        "trial_index": 217,
        "rt": 923,
        "correct": true,
        "response": "ArrowLeft",
        "congruent": true,
        "eyesOpen": false,
        "faceOnLeft": false,
        "impliedDirection": 180,
        "testDirection": 180
      },
      {
        "trial_number": 35,
        "trial_index": 222,
        "rt": 679,
        "correct": true,
        "response": "ArrowLeft",
        "congruent": false,
        "eyesOpen": false,
        "faceOnLeft": true,
        "impliedDirection": 0,
        "testDirection": 180
      },
      {
        "trial_number": 36,
        "trial_index": 227,
        "rt": 1854,
        "correct": true,
        "response": "ArrowLeft",
        "congruent": false,
        "eyesOpen": true,
        "faceOnLeft": true,
        "impliedDirection": 0,
        "testDirection": 180
      },
      {
        "trial_number": 37,
        "trial_index": 232,
        "rt": 1114,
        "correct": false,
        "response": "ArrowRight",
        "congruent": true,
        "eyesOpen": true,
        "faceOnLeft": false,
        "impliedDirection": 180,
        "testDirection": 180
      },
      {
        "trial_number": 38,
        "trial_index": 237,
        "rt": 777,
        "correct": true,
        "response": "ArrowRight",
        "congruent": false,
        "eyesOpen": true,
        "faceOnLeft": false,
        "impliedDirection": 180,
        "testDirection": 0
      },
      {
        "trial_number": 39,
        "trial_index": 242,
        "rt": 1239,
        "correct": true,
        "response": "ArrowLeft",
        "congruent": false,
        "eyesOpen": true,
        "faceOnLeft": true,
        "impliedDirection": 0,
        "testDirection": 180
      }
    ],
    "practice": {
      "trials": [
        {
          "trial_number": 0,
          "rt": 523,
          "correct": true,
          "direction": 180
        },
        {
          "trial_number": 1,
          "rt": 640,
          "correct": true,
          "direction": 180
        },
        {
          "trial_number": 2,
          "rt": 893,
          "correct": true,
          "direction": 0
        },
        {
          "trial_number": 3,
          "rt": 764,
          "correct": false,
          "direction": 0
        },
        {
          "trial_number": 4,
          "rt": 1000,
          "correct": true,
          "direction": 0
        },
        {
          "trial_number": 5,
          "rt": 770,
          "correct": true,
          "direction": 180
        },
        {
          "trial_number": 6,
          "rt": 908,
          "correct": true,
          "direction": 180
        },
        {
          "trial_number": 7,
          "rt": 1695,
          "correct": false,
          "direction": 180
        },
        {
          "trial_number": 8,
          "rt": 658,
          "correct": true,
          "direction": 180
        },
        {
          "trial_number": 9,
          "rt": 734,
          "correct": true,
          "direction": 0
        }
      ],
      "meanRT": 859,
      "accuracy": 80
    }
  }
}